"success","ttype","start_time","trial_type","trial_index","time_elapsed","internal_node_id","warning","missed_checkup","PID","view_history","rt","responses","repeat_instructions","key_press","index","keypress_isi","keypress_S2","block","trial_num","phase","group_type","pair_type","S1_stim","S2_stim","S1_img","S2_img","S1_chosen","S1_higher","accuracy","keypress_iti","total_bonus_tally"
"true","full_screen","d04062023hr1740","fullscreen","0","1947","0.0-0.0","0","0","61754","","","","","","","","","","","","","","","","","","","","","",""
"","instructions","","instructions","1","17452","0.0-1.0-0.0-0.0","0","0","61754","[{""page_index"":0,""viewing_time"":2463},{""page_index"":1,""viewing_time"":9778},{""page_index"":2,""viewing_time"":2513},{""page_index"":3,""viewing_time"":749}]","15503","","","","","","","","","","","","","","","","","","","",""
"","comprehension_check","","survey-multi-choice","2","217250","0.0-1.0-0.0-1.0","0","0","61754","","199794","{""Q0"":""True"",""Q1"":""D"",""Q2"":""Once the second image appears and while the screen 'MAKE A CHOICE' is shown"",""Q3"":""Green mark"",""Q4"":""either D or K""}","0","","","","","","","","","","","","","","","","","",""
"","start_exp","","html-keyboard-response","3","218093","0.0-1.0-1.0","0","0","61754","","841","","","32","","","","","","","","","","","","","","","","",""
"","S1","","html-keyboard-response","4","218246","0.0-1.0-2.0","0","0","61754","","null","","","null","0","","","","","","","","","","","","","","","",""
"","ISI","","html-keyboard-response","5","220261","0.0-1.0-3.0","0","0","61754","","null","","","null","0","NaN","","","","","","","","","","","","","","",""
"","S2","","html-keyboard-response","6","220424","0.0-1.0-4.0","0","0","61754","","null","","","null","0","","NaN","","","","","","","","","","","","","",""
"","response","","html-keyboard-response","7","220703","0.0-1.0-5.0-0.0","0","0","61754","","277","","","68","0","","","1","0","training","adjacent","AB","1","2","R.jpg","O.jpg","1","1","1","",""
"","feedback","","html-keyboard-response","8","221711","0.0-1.0-6.0-0.0","0","0","61754","","null","","","null","0","","","","","","","","","","","","","","","",""
"","ITI","","html-keyboard-response","9","222715","0.0-1.0-9.0","0","0","61754","","null","","","null","0","","","","","","","","","","","","","","","NaN",""
"","S1","","html-keyboard-response","10","222867","0.0-1.0-11.0","0","0","61754","","null","","","null","1","","","","","","","","","","","","","","","",""
"","ISI","","html-keyboard-response","11","224870","0.0-1.0-12.0","0","0","61754","","null","","","null","1","NaN","","","","","","","","","","","","","","",""
"","S2","","html-keyboard-response","12","225023","0.0-1.0-13.0","0","0","61754","","null","","","null","1","","NaN","","","","","","","","","","","","","",""
"","response","","html-keyboard-response","13","225457","0.0-1.0-14.0-0.0","0","0","61754","","433","","","75","1","","","1","1","training","adjacent","EF","5","6","L.jpg","P.jpg","0","1","0","",""
"","feedback","","html-keyboard-response","14","226458","0.0-1.0-15.0-0.0","0","0","61754","","null","","","null","1","","","","","","","","","","","","","","","",""
"","time_out","","html-keyboard-response","15","228459","0.0-1.0-17.0-0.0","0","0","61754","","null","","","null","1","","","","","","","","","","","","","","","",""
"","ITI","","html-keyboard-response","16","229462","0.0-1.0-18.0","0","0","61754","","null","","","null","1","","","","","","","","","","","","","","","NaN",""
"","S1","","html-keyboard-response","17","229615","0.0-1.0-20.0","0","0","61754","","null","","","null","2","","","","","","","","","","","","","","","",""
"","ISI","","html-keyboard-response","18","231618","0.0-1.0-21.0","0","0","61754","","null","","","null","2","NaN","","","","","","","","","","","","","","",""
"","S2","","html-keyboard-response","19","231773","0.0-1.0-22.0","0","0","61754","","null","","","null","2","","NaN","","","","","","","","","","","","","",""
"","response","","html-keyboard-response","20","231994","0.0-1.0-23.0-0.0","0","0","61754","","220","","","68","2","","","1","2","training","adjacent","AB","1","2","R.jpg","O.jpg","1","1","1","",""
"","feedback","","html-keyboard-response","21","232997","0.0-1.0-24.0-0.0","0","0","61754","","null","","","null","2","","","","","","","","","","","","","","","",""
"","ITI","","html-keyboard-response","22","234000","0.0-1.0-27.0","0","0","61754","","null","","","null","2","","","","","","","","","","","","","","","NaN",""
"","S1","","html-keyboard-response","23","234156","0.0-1.0-29.0","0","0","61754","","null","","","null","3","","","","","","","","","","","","","","","",""
"","ISI","","html-keyboard-response","24","236158","0.0-1.0-30.0","0","0","61754","","null","","","null","3","NaN","","","","","","","","","","","","","","",""
"","S2","","html-keyboard-response","25","236311","0.0-1.0-31.0","0","0","61754","","null","","","null","3","","NaN","","","","","","","","","","","","","",""
"","response","","html-keyboard-response","26","236748","0.0-1.0-32.0-0.0","0","0","61754","","434","","","68","3","","","1","3","training","adjacent","EF","5","6","L.jpg","P.jpg","1","1","1","",""
"","feedback","","html-keyboard-response","27","237753","0.0-1.0-33.0-0.0","0","0","61754","","null","","","null","3","","","","","","","","","","","","","","","",""
"","ITI","","html-keyboard-response","28","238756","0.0-1.0-36.0","0","0","61754","","null","","","null","3","","","","","","","","","","","","","","","NaN",""
"","S1","","html-keyboard-response","29","238908","0.0-1.0-38.0","0","0","61754","","null","","","null","4","","","","","","","","","","","","","","","",""
"","ISI","","html-keyboard-response","30","240911","0.0-1.0-39.0","0","0","61754","","null","","","null","4","NaN","","","","","","","","","","","","","","",""
"","S2","","html-keyboard-response","31","241063","0.0-1.0-40.0","0","0","61754","","null","","","null","4","","NaN","","","","","","","","","","","","","",""
"","response","","html-keyboard-response","32","241551","0.0-1.0-41.0-0.0","0","0","61754","","487","","","75","4","","","1","4","training","adjacent","DC","4","3","M.jpg","Q.jpg","0","0","1","",""
"","feedback","","html-keyboard-response","33","242553","0.0-1.0-42.0-0.0","0","0","61754","","null","","","null","4","","","","","","","","","","","","","","","",""
"","ITI","","html-keyboard-response","34","243555","0.0-1.0-45.0","0","0","61754","","null","","","null","4","","","","","","","","","","","","","","","NaN",""
"","S1","","html-keyboard-response","35","243707","0.0-1.0-47.0","0","0","61754","","null","","","null","5","","","","","","","","","","","","","","","",""
"","ISI","","html-keyboard-response","36","245709","0.0-1.0-48.0","0","0","61754","","null","","","null","5","NaN","","","","","","","","","","","","","","",""
"","S2","","html-keyboard-response","37","245861","0.0-1.0-49.0","0","0","61754","","null","","","null","5","","NaN","","","","","","","","","","","","","",""
"","response","","html-keyboard-response","38","246100","0.0-1.0-50.0-0.0","0","0","61754","","238","","","68","5","","","1","5","training","adjacent","CD","3","4","Q.jpg","M.jpg","1","1","1","",""
"","feedback","","html-keyboard-response","39","247103","0.0-1.0-51.0-0.0","0","0","61754","","null","","","null","5","","","","","","","","","","","","","","","",""
"","ITI","","html-keyboard-response","40","248104","0.0-1.0-54.0","0","0","61754","","null","","","null","5","","","","","","","","","","","","","","","NaN",""
"","S1","","html-keyboard-response","41","248257","0.0-1.0-56.0","0","0","61754","","null","","","null","6","","","","","","","","","","","","","","","",""
"","ISI","","html-keyboard-response","42","250259","0.0-1.0-57.0","0","0","61754","","null","","","null","6","NaN","","","","","","","","","","","","","","",""
"","S2","","html-keyboard-response","43","250413","0.0-1.0-58.0","0","0","61754","","null","","","null","6","","NaN","","","","","","","","","","","","","",""
"","response","","html-keyboard-response","44","250536","0.0-1.0-59.0-0.0","0","0","61754","","120","","","68","6","","","1","6","training","adjacent","CD","3","4","Q.jpg","M.jpg","1","1","1","",""
"","feedback","","html-keyboard-response","45","251538","0.0-1.0-60.0-0.0","0","0","61754","","null","","","null","6","","","","","","","","","","","","","","","",""
"","ITI","","html-keyboard-response","46","252551","0.0-1.0-63.0","0","0","61754","","null","","","null","6","","","","","","","","","","","","","","","NaN",""
"","S1","","html-keyboard-response","47","252702","0.0-1.0-65.0","0","0","61754","","null","","","null","7","","","","","","","","","","","","","","","",""
"","ISI","","html-keyboard-response","48","254706","0.0-1.0-66.0","0","0","61754","","null","","","null","7","NaN","","","","","","","","","","","","","","",""
"","S2","","html-keyboard-response","49","254859","0.0-1.0-67.0","0","0","61754","","null","","","null","7","","NaN","","","","","","","","","","","","","",""
"","response","","html-keyboard-response","50","255391","0.0-1.0-68.0-0.0","0","0","61754","","531","","","75","7","","","1","7","training","adjacent","DC","4","3","M.jpg","Q.jpg","0","0","1","",""
"","feedback","","html-keyboard-response","51","256399","0.0-1.0-69.0-0.0","0","0","61754","","null","","","null","7","","","","","","","","","","","","","","","",""
"","ITI","","html-keyboard-response","52","257401","0.0-1.0-72.0","0","0","61754","","null","","","null","7","","","","","","","","","","","","","","","NaN",""
"","S1","","html-keyboard-response","53","257553","0.0-1.0-74.0","0","0","61754","","null","","","null","8","","","","","","","","","","","","","","","",""
"","ISI","","html-keyboard-response","54","259555","0.0-1.0-75.0","0","0","61754","","null","","","null","8","NaN","","","","","","","","","","","","","","",""
"","S2","","html-keyboard-response","55","259707","0.0-1.0-76.0","0","0","61754","","null","","","null","8","","NaN","","","","","","","","","","","","","",""
"","response","","html-keyboard-response","56","260016","0.0-1.0-77.0-0.0","0","0","61754","","308","","","75","8","","","1","8","training","adjacent","BA","2","1","O.jpg","R.jpg","0","0","1","",""
"","feedback","","html-keyboard-response","57","261019","0.0-1.0-78.0-0.0","0","0","61754","","null","","","null","8","","","","","","","","","","","","","","","",""
"","ITI","","html-keyboard-response","58","262021","0.0-1.0-81.0","0","0","61754","","null","","","null","8","","","","","","","","","","","","","","","NaN",""
"","S1","","html-keyboard-response","59","262173","0.0-1.0-83.0","0","0","61754","","null","","","null","9","","","","","","","","","","","","","","","",""
"","ISI","","html-keyboard-response","60","264175","0.0-1.0-84.0","0","0","61754","","null","","","null","9","NaN","","","","","","","","","","","","","","",""
"","S2","","html-keyboard-response","61","264328","0.0-1.0-85.0","0","0","61754","","null","","","null","9","","NaN","","","","","","","","","","","","","",""
"","response","","html-keyboard-response","62","264669","0.0-1.0-86.0-0.0","0","0","61754","","340","","","75","9","","","1","9","training","adjacent","DC","4","3","M.jpg","Q.jpg","0","0","1","",""
"","feedback","","html-keyboard-response","63","265670","0.0-1.0-87.0-0.0","0","0","61754","","null","","","null","9","","","","","","","","","","","","","","","",""
"","ITI","","html-keyboard-response","64","266673","0.0-1.0-90.0","0","0","61754","","null","","","null","9","","","","","","","","","","","","","","","NaN",""
"","S1","","html-keyboard-response","65","266827","0.0-1.0-92.0","0","0","61754","","null","","","null","10","","","","","","","","","","","","","","","",""
"","ISI","","html-keyboard-response","66","268840","0.0-1.0-93.0","0","0","61754","","null","","","null","10","NaN","","","","","","","","","","","","","","",""
"","S2","","html-keyboard-response","67","268993","0.0-1.0-94.0","0","0","61754","","null","","","null","10","","NaN","","","","","","","","","","","","","",""
"","response","","html-keyboard-response","68","269391","0.0-1.0-95.0-0.0","0","0","61754","","397","","","75","10","","","1","10","training","adjacent","BC","2","3","O.jpg","Q.jpg","0","1","0","",""
"","feedback","","html-keyboard-response","69","270394","0.0-1.0-96.0-0.0","0","0","61754","","null","","","null","10","","","","","","","","","","","","","","","",""
"","time_out","","html-keyboard-response","70","272396","0.0-1.0-98.0-0.0","0","0","61754","","null","","","null","10","","","","","","","","","","","","","","","",""
"","ITI","","html-keyboard-response","71","273398","0.0-1.0-99.0","0","0","61754","","null","","","null","10","","","","","","","","","","","","","","","NaN",""
"","S1","","html-keyboard-response","72","273551","0.0-1.0-101.0","0","0","61754","","null","","","null","11","","","","","","","","","","","","","","","",""
"","ISI","","html-keyboard-response","73","275553","0.0-1.0-102.0","0","0","61754","","null","","","null","11","NaN","","","","","","","","","","","","","","",""
"","S2","","html-keyboard-response","74","275706","0.0-1.0-103.0","0","0","61754","","null","","","null","11","","NaN","","","","","","","","","","","","","",""
"","response","","html-keyboard-response","75","276053","0.0-1.0-104.0-0.0","0","0","61754","","345","","","68","11","","","1","11","training","adjacent","AB","1","2","R.jpg","O.jpg","1","1","1","",""
"","feedback","","html-keyboard-response","76","277056","0.0-1.0-105.0-0.0","0","0","61754","","null","","","null","11","","","","","","","","","","","","","","","",""
"","ITI","","html-keyboard-response","77","278058","0.0-1.0-108.0","0","0","61754","","null","","","null","11","","","","","","","","","","","","","","","NaN",""
"","S1","","html-keyboard-response","78","278211","0.0-1.0-110.0","0","0","61754","","null","","","null","12","","","","","","","","","","","","","","","",""
"","ISI","","html-keyboard-response","79","280213","0.0-1.0-111.0","0","0","61754","","null","","","null","12","NaN","","","","","","","","","","","","","","",""
"","S2","","html-keyboard-response","80","280365","0.0-1.0-112.0","0","0","61754","","null","","","null","12","","NaN","","","","","","","","","","","","","",""
"","response","","html-keyboard-response","81","281289","0.0-1.0-113.0-0.0","0","0","61754","","923","","","75","12","","","1","12","training","adjacent","ED","5","4","L.jpg","M.jpg","0","0","1","",""
"","feedback","","html-keyboard-response","82","282292","0.0-1.0-114.0-0.0","0","0","61754","","null","","","null","12","","","","","","","","","","","","","","","",""
"","ITI","","html-keyboard-response","83","283293","0.0-1.0-117.0","0","0","61754","","null","","","null","12","","","","","","","","","","","","","","","NaN",""
"","S1","","html-keyboard-response","84","283449","0.0-1.0-119.0","0","0","61754","","null","","","null","13","","","","","","","","","","","","","","","",""
"","ISI","","html-keyboard-response","85","285453","0.0-1.0-120.0","0","0","61754","","null","","","null","13","NaN","","","","","","","","","","","","","","",""
"","S2","","html-keyboard-response","86","285609","0.0-1.0-121.0","0","0","61754","","null","","","null","13","","NaN","","","","","","","","","","","","","",""
"","response","","html-keyboard-response","87","286003","0.0-1.0-122.0-0.0","0","0","61754","","391","","","75","13","","","1","13","training","adjacent","BC","2","3","O.jpg","Q.jpg","0","1","0","",""
"","feedback","","html-keyboard-response","88","287018","0.0-1.0-123.0-0.0","0","0","61754","","null","","","null","13","","","","","","","","","","","","","","","",""
"","time_out","","html-keyboard-response","89","289019","0.0-1.0-125.0-0.0","0","0","61754","","null","","","null","13","","","","","","","","","","","","","","","",""
"","ITI","","html-keyboard-response","90","290022","0.0-1.0-126.0","0","0","61754","","null","","","null","13","","","","","","","","","","","","","","","NaN",""
"","S1","","html-keyboard-response","91","290174","0.0-1.0-128.0","0","0","61754","","null","","","null","14","","","","","","","","","","","","","","","",""
"","ISI","","html-keyboard-response","92","292177","0.0-1.0-129.0","0","0","61754","","null","","","null","14","NaN","","","","","","","","","","","","","","",""
"","S2","","html-keyboard-response","93","292328","0.0-1.0-130.0","0","0","61754","","null","","","null","14","","NaN","","","","","","","","","","","","","",""
"","response","","html-keyboard-response","94","292635","0.0-1.0-131.0-0.0","0","0","61754","","305","","","68","14","","","1","14","training","adjacent","BC","2","3","O.jpg","Q.jpg","1","1","1","",""
"","feedback","","html-keyboard-response","95","293648","0.0-1.0-132.0-0.0","0","0","61754","","null","","","null","14","","","","","","","","","","","","","","","",""
"","ITI","","html-keyboard-response","96","294671","0.0-1.0-135.0","0","0","61754","","null","","","null","14","","","","","","","","","","","","","","","NaN",""
"","S1","","html-keyboard-response","97","294824","0.0-1.0-137.0","0","0","61754","","null","","","null","15","","","","","","","","","","","","","","","",""
"","ISI","","html-keyboard-response","98","296826","0.0-1.0-138.0","0","0","61754","","null","","","null","15","NaN","","","","","","","","","","","","","","",""
"","S2","","html-keyboard-response","99","296977","0.0-1.0-139.0","0","0","61754","","null","","","null","15","","NaN","","","","","","","","","","","","","",""
"","response","","html-keyboard-response","100","297456","0.0-1.0-140.0-0.0","0","0","61754","","477","","","68","15","","","1","15","training","adjacent","BC","2","3","O.jpg","Q.jpg","1","1","1","",""
"","feedback","","html-keyboard-response","101","298459","0.0-1.0-141.0-0.0","0","0","61754","","null","","","null","15","","","","","","","","","","","","","","","",""
"","ITI","","html-keyboard-response","102","299461","0.0-1.0-144.0","0","0","61754","","null","","","null","15","","","","","","","","","","","","","","","NaN",""
"","S1","","html-keyboard-response","103","299614","0.0-1.0-146.0","0","0","61754","","null","","","null","16","","","","","","","","","","","","","","","",""
"","ISI","","html-keyboard-response","104","301617","0.0-1.0-147.0","0","0","61754","","null","","","null","16","NaN","","","","","","","","","","","","","","",""
"","S2","","html-keyboard-response","105","301770","0.0-1.0-148.0","0","0","61754","","null","","","null","16","","NaN","","","","","","","","","","","","","",""
"","response","","html-keyboard-response","106","302348","0.0-1.0-149.0-0.0","0","0","61754","","577","","","75","16","","","1","16","training","adjacent","FG","6","7","P.jpg","N.jpg","0","1","0","",""
"","feedback","","html-keyboard-response","107","303350","0.0-1.0-150.0-0.0","0","0","61754","","null","","","null","16","","","","","","","","","","","","","","","",""
"","time_out","","html-keyboard-response","108","305351","0.0-1.0-152.0-0.0","0","0","61754","","null","","","null","16","","","","","","","","","","","","","","","",""
"","ITI","","html-keyboard-response","109","306354","0.0-1.0-153.0","0","0","61754","","null","","","null","16","","","","","","","","","","","","","","","NaN",""
"","S1","","html-keyboard-response","110","306506","0.0-1.0-155.0","0","0","61754","","null","","","null","17","","","","","","","","","","","","","","","",""
"","ISI","","html-keyboard-response","111","308508","0.0-1.0-156.0","0","0","61754","","null","","","null","17","NaN","","","","","","","","","","","","","","",""
"","S2","","html-keyboard-response","112","308679","0.0-1.0-157.0","0","0","61754","","null","","","null","17","","NaN","","","","","","","","","","","","","",""
"","response","","html-keyboard-response","113","309559","0.0-1.0-158.0-0.0","0","0","61754","","879","","","75","17","","","1","17","training","adjacent","FE","6","5","P.jpg","L.jpg","0","0","1","",""
"","feedback","","html-keyboard-response","114","310561","0.0-1.0-159.0-0.0","0","0","61754","","null","","","null","17","","","","","","","","","","","","","","","",""
"","ITI","","html-keyboard-response","115","311564","0.0-1.0-162.0","0","0","61754","","null","","","null","17","","","","","","","","","","","","","","","NaN",""
"","S1","","html-keyboard-response","116","311717","0.0-1.0-164.0","0","0","61754","","null","","","null","18","","","","","","","","","","","","","","","",""
"","ISI","","html-keyboard-response","117","313719","0.0-1.0-165.0","0","0","61754","","null","","","null","18","NaN","","","","","","","","","","","","","","",""
"","S2","","html-keyboard-response","118","313872","0.0-1.0-166.0","0","0","61754","","null","","","null","18","","NaN","","","","","","","","","","","","","",""
"","response","","html-keyboard-response","119","314262","0.0-1.0-167.0-0.0","0","0","61754","","388","","","68","18","","","1","18","training","adjacent","DE","4","5","M.jpg","L.jpg","1","1","1","",""
"","feedback","","html-keyboard-response","120","315265","0.0-1.0-168.0-0.0","0","0","61754","","null","","","null","18","","","","","","","","","","","","","","","",""
"","ITI","","html-keyboard-response","121","316267","0.0-1.0-171.0","0","0","61754","","null","","","null","18","","","","","","","","","","","","","","","NaN",""
"","S1","","html-keyboard-response","122","316422","0.0-1.0-173.0","0","0","61754","","null","","","null","19","","","","","","","","","","","","","","","",""
"","ISI","","html-keyboard-response","123","318424","0.0-1.0-174.0","0","0","61754","","null","","","null","19","NaN","","","","","","","","","","","","","","",""
"","S2","","html-keyboard-response","124","318575","0.0-1.0-175.0","0","0","61754","","null","","","null","19","","NaN","","","","","","","","","","","","","",""
"","response","","html-keyboard-response","125","318940","0.0-1.0-176.0-0.0","0","0","61754","","364","","","68","19","","","1","19","training","adjacent","DC","4","3","M.jpg","Q.jpg","1","0","0","",""
"","feedback","","html-keyboard-response","126","319958","0.0-1.0-177.0-0.0","0","0","61754","","null","","","null","19","","","","","","","","","","","","","","","",""
"","time_out","","html-keyboard-response","127","321960","0.0-1.0-179.0-0.0","0","0","61754","","null","","","null","19","","","","","","","","","","","","","","","",""
"","ITI","","html-keyboard-response","128","322963","0.0-1.0-180.0","0","0","61754","","null","","","null","19","","","","","","","","","","","","","","","NaN",""
"","S1","","html-keyboard-response","129","323116","0.0-1.0-182.0","0","0","61754","","null","","","null","20","","","","","","","","","","","","","","","",""
"","ISI","","html-keyboard-response","130","325118","0.0-1.0-183.0","0","0","61754","","null","","","null","20","NaN","","","","","","","","","","","","","","",""
"","S2","","html-keyboard-response","131","325278","0.0-1.0-184.0","0","0","61754","","null","","","null","20","","NaN","","","","","","","","","","","","","",""
"","response","","html-keyboard-response","132","325715","0.0-1.0-185.0-0.0","0","0","61754","","436","","","68","20","","","1","20","training","adjacent","DE","4","5","M.jpg","L.jpg","1","1","1","",""
"","feedback","","html-keyboard-response","133","326717","0.0-1.0-186.0-0.0","0","0","61754","","null","","","null","20","","","","","","","","","","","","","","","",""
"","ITI","","html-keyboard-response","134","327720","0.0-1.0-189.0","0","0","61754","","null","","","null","20","","","","","","","","","","","","","","","NaN",""
"","S1","","html-keyboard-response","135","327873","0.0-1.0-191.0","0","0","61754","","null","","","null","21","","","","","","","","","","","","","","","",""
"","ISI","","html-keyboard-response","136","329874","0.0-1.0-192.0","0","0","61754","","null","","","null","21","NaN","","","","","","","","","","","","","","",""
"","S2","","html-keyboard-response","137","330026","0.0-1.0-193.0","0","0","61754","","null","","","null","21","","NaN","","","","","","","","","","","","","",""
"","response","","html-keyboard-response","138","330512","0.0-1.0-194.0-0.0","0","0","61754","","484","","","75","21","","","1","21","training","adjacent","FE","6","5","P.jpg","L.jpg","0","0","1","",""
"","feedback","","html-keyboard-response","139","331514","0.0-1.0-195.0-0.0","0","0","61754","","null","","","null","21","","","","","","","","","","","","","","","",""
"","ITI","","html-keyboard-response","140","332515","0.0-1.0-198.0","0","0","61754","","null","","","null","21","","","","","","","","","","","","","","","NaN",""
"","S1","","html-keyboard-response","141","332668","0.0-1.0-200.0","0","0","61754","","null","","","null","22","","","","","","","","","","","","","","","",""
"","ISI","","html-keyboard-response","142","334672","0.0-1.0-201.0","0","0","61754","","null","","","null","22","NaN","","","","","","","","","","","","","","",""
"","S2","","html-keyboard-response","143","334825","0.0-1.0-202.0","0","0","61754","","null","","","null","22","","NaN","","","","","","","","","","","","","",""
"","response","","html-keyboard-response","144","335277","0.0-1.0-203.0-0.0","0","0","61754","","451","","","68","22","","","1","22","training","adjacent","FG","6","7","P.jpg","N.jpg","1","1","1","",""
"","feedback","","html-keyboard-response","145","336279","0.0-1.0-204.0-0.0","0","0","61754","","null","","","null","22","","","","","","","","","","","","","","","",""
"","ITI","","html-keyboard-response","146","337283","0.0-1.0-207.0","0","0","61754","","null","","","null","22","","","","","","","","","","","","","","","NaN",""
"","S1","","html-keyboard-response","147","337434","0.0-1.0-209.0","0","0","61754","","null","","","null","23","","","","","","","","","","","","","","","",""
"","ISI","","html-keyboard-response","148","339438","0.0-1.0-210.0","0","0","61754","","null","","","null","23","NaN","","","","","","","","","","","","","","",""
"","S2","","html-keyboard-response","149","339591","0.0-1.0-211.0","0","0","61754","","null","","","null","23","","NaN","","","","","","","","","","","","","",""
"","response","","html-keyboard-response","150","339953","0.0-1.0-212.0-0.0","0","0","61754","","361","","","75","23","","","1","23","training","adjacent","GF","7","6","N.jpg","P.jpg","0","0","1","",""
"","feedback","","html-keyboard-response","151","340955","0.0-1.0-213.0-0.0","0","0","61754","","null","","","null","23","","","","","","","","","","","","","","","",""
"","ITI","","html-keyboard-response","152","341959","0.0-1.0-216.0","0","0","61754","","null","","","null","23","","","","","","","","","","","","","","","NaN",""
"","S1","","html-keyboard-response","153","342110","0.0-1.0-218.0","0","0","61754","","null","","","null","24","","","","","","","","","","","","","","","",""
"","ISI","","html-keyboard-response","154","344112","0.0-1.0-219.0","0","0","61754","","null","","","null","24","NaN","","","","","","","","","","","","","","",""
"","S2","","html-keyboard-response","155","344264","0.0-1.0-220.0","0","0","61754","","null","","","null","24","","NaN","","","","","","","","","","","","","",""
"","response","","html-keyboard-response","156","344739","0.0-1.0-221.0-0.0","0","0","61754","","472","","","75","24","","","1","24","training","adjacent","FE","6","5","P.jpg","L.jpg","0","0","1","",""
"","feedback","","html-keyboard-response","157","345755","0.0-1.0-222.0-0.0","0","0","61754","","null","","","null","24","","","","","","","","","","","","","","","",""
"","ITI","","html-keyboard-response","158","346762","0.0-1.0-225.0","0","0","61754","","null","","","null","24","","","","","","","","","","","","","","","NaN",""
"","S1","","html-keyboard-response","159","346915","0.0-1.0-227.0","0","0","61754","","null","","","null","25","","","","","","","","","","","","","","","",""
"","ISI","","html-keyboard-response","160","348918","0.0-1.0-228.0","0","0","61754","","null","","","null","25","NaN","","","","","","","","","","","","","","",""
"","S2","","html-keyboard-response","161","349080","0.0-1.0-229.0","0","0","61754","","null","","","null","25","","NaN","","","","","","","","","","","","","",""
"","response","","html-keyboard-response","162","349548","0.0-1.0-230.0-0.0","0","0","61754","","466","","","75","25","","","1","25","training","adjacent","GF","7","6","N.jpg","P.jpg","0","0","1","",""
"","feedback","","html-keyboard-response","163","350550","0.0-1.0-231.0-0.0","0","0","61754","","null","","","null","25","","","","","","","","","","","","","","","",""
"","ITI","","html-keyboard-response","164","351552","0.0-1.0-234.0","0","0","61754","","null","","","null","25","","","","","","","","","","","","","","","NaN",""
"","S1","","html-keyboard-response","165","351704","0.0-1.0-236.0","0","0","61754","","null","","","null","26","","","","","","","","","","","","","","","",""
"","ISI","","html-keyboard-response","166","353706","0.0-1.0-237.0","0","0","61754","","null","","","null","26","NaN","","","","","","","","","","","","","","",""
"","S2","","html-keyboard-response","167","353858","0.0-1.0-238.0","0","0","61754","","null","","","null","26","","NaN","","","","","","","","","","","","","",""
"","response","","html-keyboard-response","168","354438","0.0-1.0-239.0-0.0","0","0","61754","","578","","","68","26","","","1","26","training","adjacent","DE","4","5","M.jpg","L.jpg","1","1","1","",""
"","feedback","","html-keyboard-response","169","355440","0.0-1.0-240.0-0.0","0","0","61754","","null","","","null","26","","","","","","","","","","","","","","","",""
"","ITI","","html-keyboard-response","170","356442","0.0-1.0-243.0","0","0","61754","","null","","","null","26","","","","","","","","","","","","","","","NaN",""
"","S1","","html-keyboard-response","171","356594","0.0-1.0-245.0","0","0","61754","","null","","","null","27","","","","","","","","","","","","","","","",""
"","ISI","","html-keyboard-response","172","358602","0.0-1.0-246.0","0","0","61754","","null","","","null","27","NaN","","","","","","","","","","","","","","",""
"","S2","","html-keyboard-response","173","358760","0.0-1.0-247.0","0","0","61754","","null","","","null","27","","NaN","","","","","","","","","","","","","",""
"","response","","html-keyboard-response","174","359140","0.0-1.0-248.0-0.0","0","0","61754","","379","","","68","27","","","1","27","training","adjacent","FG","6","7","P.jpg","N.jpg","1","1","1","",""
"","feedback","","html-keyboard-response","175","360143","0.0-1.0-249.0-0.0","0","0","61754","","null","","","null","27","","","","","","","","","","","","","","","",""
"","ITI","","html-keyboard-response","176","361145","0.0-1.0-252.0","0","0","61754","","null","","","null","27","","","","","","","","","","","","","","","NaN",""
"","S1","","html-keyboard-response","177","361298","0.0-1.0-254.0","0","0","61754","","null","","","null","28","","","","","","","","","","","","","","","",""
"","ISI","","html-keyboard-response","178","363302","0.0-1.0-255.0","0","0","61754","","null","","","null","28","NaN","","","","","","","","","","","","","","",""
"","S2","","html-keyboard-response","179","363454","0.0-1.0-256.0","0","0","61754","","null","","","null","28","","NaN","","","","","","","","","","","","","",""
"","response","","html-keyboard-response","180","364061","0.0-1.0-257.0-0.0","0","0","61754","","606","","","75","28","","","1","28","training","adjacent","BA","2","1","O.jpg","R.jpg","0","0","1","",""
"","feedback","","html-keyboard-response","181","365065","0.0-1.0-258.0-0.0","0","0","61754","","null","","","null","28","","","","","","","","","","","","","","","",""
"","ITI","","html-keyboard-response","182","366067","0.0-1.0-261.0","0","0","61754","","null","","","null","28","","","","","","","","","","","","","","","NaN",""
"","S1","","html-keyboard-response","183","366221","0.0-1.0-263.0","0","0","61754","","null","","","null","29","","","","","","","","","","","","","","","",""
"","ISI","","html-keyboard-response","184","368223","0.0-1.0-264.0","0","0","61754","","null","","","null","29","NaN","","","","","","","","","","","","","","",""
"","S2","","html-keyboard-response","185","368376","0.0-1.0-265.0","0","0","61754","","null","","","null","29","","NaN","","","","","","","","","","","","","",""
"","response","","html-keyboard-response","186","368840","0.0-1.0-266.0-0.0","0","0","61754","","462","","","75","29","","","1","29","training","adjacent","ED","5","4","L.jpg","M.jpg","0","0","1","",""
"","feedback","","html-keyboard-response","187","369845","0.0-1.0-267.0-0.0","0","0","61754","","null","","","null","29","","","","","","","","","","","","","","","",""
"","ITI","","html-keyboard-response","188","370852","0.0-1.0-270.0","0","0","61754","","null","","","null","29","","","","","","","","","","","","","","","NaN",""
"","S1","","html-keyboard-response","189","371004","0.0-1.0-272.0","0","0","61754","","null","","","null","30","","","","","","","","","","","","","","","",""
"","ISI","","html-keyboard-response","190","373006","0.0-1.0-273.0","0","0","61754","","null","","","null","30","NaN","","","","","","","","","","","","","","",""
"","S2","","html-keyboard-response","191","373158","0.0-1.0-274.0","0","0","61754","","null","","","null","30","","NaN","","","","","","","","","","","","","",""
"","response","","html-keyboard-response","192","373661","0.0-1.0-275.0-0.0","0","0","61754","","502","","","75","30","","","1","30","training","adjacent","ED","5","4","L.jpg","M.jpg","0","0","1","",""
"","feedback","","html-keyboard-response","193","374664","0.0-1.0-276.0-0.0","0","0","61754","","null","","","null","30","","","","","","","","","","","","","","","",""
"","ITI","","html-keyboard-response","194","375666","0.0-1.0-279.0","0","0","61754","","null","","","null","30","","","","","","","","","","","","","","","NaN",""
"","S1","","html-keyboard-response","195","375818","0.0-1.0-281.0","0","0","61754","","null","","","null","31","","","","","","","","","","","","","","","",""
"","ISI","","html-keyboard-response","196","377821","0.0-1.0-282.0","0","0","61754","","null","","","null","31","NaN","","","","","","","","","","","","","","",""
"","S2","","html-keyboard-response","197","377973","0.0-1.0-283.0","0","0","61754","","null","","","null","31","","NaN","","","","","","","","","","","","","",""
"","response","","html-keyboard-response","198","378395","0.0-1.0-284.0-0.0","0","0","61754","","421","","","68","31","","","1","31","training","adjacent","EF","5","6","L.jpg","P.jpg","1","1","1","",""
"","feedback","","html-keyboard-response","199","379398","0.0-1.0-285.0-0.0","0","0","61754","","null","","","null","31","","","","","","","","","","","","","","","",""
"","ITI","","html-keyboard-response","200","380400","0.0-1.0-288.0","0","0","61754","","null","","","null","31","","","","","","","","","","","","","","","NaN",""
"","S1","","html-keyboard-response","201","380552","0.0-1.0-290.0","0","0","61754","","null","","","null","32","","","","","","","","","","","","","","","",""
"","ISI","","html-keyboard-response","202","382554","0.0-1.0-291.0","0","0","61754","","null","","","null","32","NaN","","","","","","","","","","","","","","",""
"","S2","","html-keyboard-response","203","382706","0.0-1.0-292.0","0","0","61754","","null","","","null","32","","NaN","","","","","","","","","","","","","",""
"","response","","html-keyboard-response","204","383095","0.0-1.0-293.0-0.0","0","0","61754","","387","","","68","32","","","1","32","training","adjacent","DE","4","5","M.jpg","L.jpg","1","1","1","",""
"","feedback","","html-keyboard-response","205","384099","0.0-1.0-294.0-0.0","0","0","61754","","null","","","null","32","","","","","","","","","","","","","","","",""
"","ITI","","html-keyboard-response","206","385104","0.0-1.0-297.0","0","0","61754","","null","","","null","32","","","","","","","","","","","","","","","NaN",""
"","S1","","html-keyboard-response","207","385256","0.0-1.0-299.0","0","0","61754","","null","","","null","33","","","","","","","","","","","","","","","",""
"","ISI","","html-keyboard-response","208","387260","0.0-1.0-300.0","0","0","61754","","null","","","null","33","NaN","","","","","","","","","","","","","","",""
"","S2","","html-keyboard-response","209","387414","0.0-1.0-301.0","0","0","61754","","null","","","null","33","","NaN","","","","","","","","","","","","","",""
"","response","","html-keyboard-response","210","387771","0.0-1.0-302.0-0.0","0","0","61754","","355","","","75","33","","","1","33","training","adjacent","GF","7","6","N.jpg","P.jpg","0","0","1","",""
"","feedback","","html-keyboard-response","211","388774","0.0-1.0-303.0-0.0","0","0","61754","","null","","","null","33","","","","","","","","","","","","","","","",""
"","ITI","","html-keyboard-response","212","389780","0.0-1.0-306.0","0","0","61754","","null","","","null","33","","","","","","","","","","","","","","","NaN",""
"","S1","","html-keyboard-response","213","389933","0.0-1.0-308.0","0","0","61754","","null","","","null","34","","","","","","","","","","","","","","","",""
"","ISI","","html-keyboard-response","214","391935","0.0-1.0-309.0","0","0","61754","","null","","","null","34","NaN","","","","","","","","","","","","","","",""
"","S2","","html-keyboard-response","215","392087","0.0-1.0-310.0","0","0","61754","","null","","","null","34","","NaN","","","","","","","","","","","","","",""
"","response","","html-keyboard-response","216","392536","0.0-1.0-311.0-0.0","0","0","61754","","447","","","68","34","","","1","34","training","adjacent","CD","3","4","Q.jpg","M.jpg","1","1","1","",""
"","feedback","","html-keyboard-response","217","393539","0.0-1.0-312.0-0.0","0","0","61754","","null","","","null","34","","","","","","","","","","","","","","","",""
"","ITI","","html-keyboard-response","218","394542","0.0-1.0-315.0","0","0","61754","","null","","","null","34","","","","","","","","","","","","","","","NaN",""
"","S1","","html-keyboard-response","219","394695","0.0-1.0-317.0","0","0","61754","","null","","","null","35","","","","","","","","","","","","","","","",""
"","ISI","","html-keyboard-response","220","396697","0.0-1.0-318.0","0","0","61754","","null","","","null","35","NaN","","","","","","","","","","","","","","",""
"","S2","","html-keyboard-response","221","396850","0.0-1.0-319.0","0","0","61754","","null","","","null","35","","NaN","","","","","","","","","","","","","",""
"","response","","html-keyboard-response","222","397242","0.0-1.0-320.0-0.0","0","0","61754","","391","","","68","35","","","1","35","training","adjacent","CB","3","2","Q.jpg","O.jpg","1","0","0","",""
"","feedback","","html-keyboard-response","223","398244","0.0-1.0-321.0-0.0","0","0","61754","","null","","","null","35","","","","","","","","","","","","","","","",""
"","time_out","","html-keyboard-response","224","400246","0.0-1.0-323.0-0.0","0","0","61754","","null","","","null","35","","","","","","","","","","","","","","","",""
"","ITI","","html-keyboard-response","225","401248","0.0-1.0-324.0","0","0","61754","","null","","","null","35","","","","","","","","","","","","","","","NaN",""
"","S1","","html-keyboard-response","226","401416","0.0-1.0-326.0","0","0","61754","","null","","","null","36","","","","","","","","","","","","","","","",""
"","ISI","","html-keyboard-response","227","403433","0.0-1.0-327.0","0","0","61754","","null","","","null","36","NaN","","","","","","","","","","","","","","",""
"","S2","","html-keyboard-response","228","403586","0.0-1.0-328.0","0","0","61754","","null","","","null","36","","NaN","","","","","","","","","","","","","",""
"","response","","html-keyboard-response","229","404080","0.0-1.0-329.0-0.0","0","0","61754","","493","","","68","36","","","1","36","training","adjacent","CD","3","4","Q.jpg","M.jpg","1","1","1","",""
"","feedback","","html-keyboard-response","230","405083","0.0-1.0-330.0-0.0","0","0","61754","","null","","","null","36","","","","","","","","","","","","","","","",""
"","ITI","","html-keyboard-response","231","406085","0.0-1.0-333.0","0","0","61754","","null","","","null","36","","","","","","","","","","","","","","","NaN",""
"","S1","","html-keyboard-response","232","406238","0.0-1.0-335.0","0","0","61754","","null","","","null","37","","","","","","","","","","","","","","","",""
"","ISI","","html-keyboard-response","233","408240","0.0-1.0-336.0","0","0","61754","","null","","","null","37","NaN","","","","","","","","","","","","","","",""
"","S2","","html-keyboard-response","234","408393","0.0-1.0-337.0","0","0","61754","","null","","","null","37","","NaN","","","","","","","","","","","","","",""
"","response","","html-keyboard-response","235","408758","0.0-1.0-338.0-0.0","0","0","61754","","363","","","68","37","","","1","37","training","adjacent","AB","1","2","R.jpg","O.jpg","1","1","1","",""
"","feedback","","html-keyboard-response","236","409760","0.0-1.0-339.0-0.0","0","0","61754","","null","","","null","37","","","","","","","","","","","","","","","",""
"","ITI","","html-keyboard-response","237","410762","0.0-1.0-342.0","0","0","61754","","null","","","null","37","","","","","","","","","","","","","","","NaN",""
"","S1","","html-keyboard-response","238","410919","0.0-1.0-344.0","0","0","61754","","null","","","null","38","","","","","","","","","","","","","","","",""
"","ISI","","html-keyboard-response","239","412921","0.0-1.0-345.0","0","0","61754","","null","","","null","38","NaN","","","","","","","","","","","","","","",""
"","S2","","html-keyboard-response","240","413074","0.0-1.0-346.0","0","0","61754","","null","","","null","38","","NaN","","","","","","","","","","","","","",""
"","response","","html-keyboard-response","241","413433","0.0-1.0-347.0-0.0","0","0","61754","","357","","","75","38","","","1","38","training","adjacent","GF","7","6","N.jpg","P.jpg","0","0","1","",""
"","feedback","","html-keyboard-response","242","414437","0.0-1.0-348.0-0.0","0","0","61754","","null","","","null","38","","","","","","","","","","","","","","","",""
"","ITI","","html-keyboard-response","243","415440","0.0-1.0-351.0","0","0","61754","","null","","","null","38","","","","","","","","","","","","","","","NaN",""
"","S1","","html-keyboard-response","244","415592","0.0-1.0-353.0","0","0","61754","","null","","","null","39","","","","","","","","","","","","","","","",""
"","ISI","","html-keyboard-response","245","417595","0.0-1.0-354.0","0","0","61754","","null","","","null","39","NaN","","","","","","","","","","","","","","",""
"","S2","","html-keyboard-response","246","417779","0.0-1.0-355.0","0","0","61754","","null","","","null","39","","NaN","","","","","","","","","","","","","",""
"","response","","html-keyboard-response","247","418105","0.0-1.0-356.0-0.0","0","0","61754","","325","","","68","39","","","1","39","training","adjacent","CB","3","2","Q.jpg","O.jpg","1","0","0","",""
"","feedback","","html-keyboard-response","248","419108","0.0-1.0-357.0-0.0","0","0","61754","","null","","","null","39","","","","","","","","","","","","","","","",""
"","time_out","","html-keyboard-response","249","421109","0.0-1.0-359.0-0.0","0","0","61754","","null","","","null","39","","","","","","","","","","","","","","","",""
"","ITI","","html-keyboard-response","250","422113","0.0-1.0-360.0","0","0","61754","","null","","","null","39","","","","","","","","","","","","","","","NaN",""
"","S1","","html-keyboard-response","251","422265","0.0-1.0-362.0","0","0","61754","","null","","","null","40","","","","","","","","","","","","","","","",""
"","ISI","","html-keyboard-response","252","424268","0.0-1.0-363.0","0","0","61754","","null","","","null","40","NaN","","","","","","","","","","","","","","",""
"","S2","","html-keyboard-response","253","424420","0.0-1.0-364.0","0","0","61754","","null","","","null","40","","NaN","","","","","","","","","","","","","",""
"","response","","html-keyboard-response","254","424819","0.0-1.0-365.0-0.0","0","0","61754","","397","","","75","40","","","1","40","training","adjacent","CB","3","2","Q.jpg","O.jpg","0","0","1","",""
"","feedback","","html-keyboard-response","255","425821","0.0-1.0-366.0-0.0","0","0","61754","","null","","","null","40","","","","","","","","","","","","","","","",""
"","ITI","","html-keyboard-response","256","426823","0.0-1.0-369.0","0","0","61754","","null","","","null","40","","","","","","","","","","","","","","","NaN",""
"","S1","","html-keyboard-response","257","426976","0.0-1.0-371.0","0","0","61754","","null","","","null","41","","","","","","","","","","","","","","","",""
"","ISI","","html-keyboard-response","258","428978","0.0-1.0-372.0","0","0","61754","","null","","","null","41","NaN","","","","","","","","","","","","","","",""
"","S2","","html-keyboard-response","259","429131","0.0-1.0-373.0","0","0","61754","","null","","","null","41","","NaN","","","","","","","","","","","","","",""
"","response","","html-keyboard-response","260","429488","0.0-1.0-374.0-0.0","0","0","61754","","356","","","75","41","","","1","41","training","adjacent","BA","2","1","O.jpg","R.jpg","0","0","1","",""
"","feedback","","html-keyboard-response","261","430490","0.0-1.0-375.0-0.0","0","0","61754","","null","","","null","41","","","","","","","","","","","","","","","",""
"","ITI","","html-keyboard-response","262","431492","0.0-1.0-378.0","0","0","61754","","null","","","null","41","","","","","","","","","","","","","","","NaN",""
"","S1","","html-keyboard-response","263","431644","0.0-1.0-380.0","0","0","61754","","null","","","null","42","","","","","","","","","","","","","","","",""
"","ISI","","html-keyboard-response","264","433666","0.0-1.0-381.0","0","0","61754","","null","","","null","42","NaN","","","","","","","","","","","","","","",""
"","S2","","html-keyboard-response","265","433831","0.0-1.0-382.0","0","0","61754","","null","","","null","42","","NaN","","","","","","","","","","","","","",""
"","response","","html-keyboard-response","266","434288","0.0-1.0-383.0-0.0","0","0","61754","","456","","","75","42","","","1","42","training","adjacent","ED","5","4","L.jpg","M.jpg","0","0","1","",""
"","feedback","","html-keyboard-response","267","435292","0.0-1.0-384.0-0.0","0","0","61754","","null","","","null","42","","","","","","","","","","","","","","","",""
"","ITI","","html-keyboard-response","268","436294","0.0-1.0-387.0","0","0","61754","","null","","","null","42","","","","","","","","","","","","","","","NaN",""
"","S1","","html-keyboard-response","269","436447","0.0-1.0-389.0","0","0","61754","","null","","","null","43","","","","","","","","","","","","","","","",""
"","ISI","","html-keyboard-response","270","438448","0.0-1.0-390.0","0","0","61754","","null","","","null","43","NaN","","","","","","","","","","","","","","",""
"","S2","","html-keyboard-response","271","438602","0.0-1.0-391.0","0","0","61754","","null","","","null","43","","NaN","","","","","","","","","","","","","",""
"","response","","html-keyboard-response","272","438897","0.0-1.0-392.0-0.0","0","0","61754","","294","","","75","43","","","1","43","training","adjacent","BA","2","1","O.jpg","R.jpg","0","0","1","",""
"","feedback","","html-keyboard-response","273","439898","0.0-1.0-393.0-0.0","0","0","61754","","null","","","null","43","","","","","","","","","","","","","","","",""
"","ITI","","html-keyboard-response","274","440902","0.0-1.0-396.0","0","0","61754","","null","","","null","43","","","","","","","","","","","","","","","NaN",""
"","S1","","html-keyboard-response","275","441055","0.0-1.0-398.0","0","0","61754","","null","","","null","44","","","","","","","","","","","","","","","",""
"","ISI","","html-keyboard-response","276","443057","0.0-1.0-399.0","0","0","61754","","null","","","null","44","NaN","","","","","","","","","","","","","","",""
"","S2","","html-keyboard-response","277","443210","0.0-1.0-400.0","0","0","61754","","null","","","null","44","","NaN","","","","","","","","","","","","","",""
"","response","","html-keyboard-response","278","443422","0.0-1.0-401.0-0.0","0","0","61754","","209","","","75","44","","","1","44","training","adjacent","CB","3","2","Q.jpg","O.jpg","0","0","1","",""
"","feedback","","html-keyboard-response","279","444424","0.0-1.0-402.0-0.0","0","0","61754","","null","","","null","44","","","","","","","","","","","","","","","",""
"","ITI","","html-keyboard-response","280","445427","0.0-1.0-405.0","0","0","61754","","null","","","null","44","","","","","","","","","","","","","","","NaN",""
"","S1","","html-keyboard-response","281","445580","0.0-1.0-407.0","0","0","61754","","null","","","null","45","","","","","","","","","","","","","","","",""
"","ISI","","html-keyboard-response","282","447580","0.0-1.0-408.0","0","0","61754","","null","","","null","45","NaN","","","","","","","","","","","","","","",""
"","S2","","html-keyboard-response","283","447734","0.0-1.0-409.0","0","0","61754","","null","","","null","45","","NaN","","","","","","","","","","","","","",""
"","response","","html-keyboard-response","284","448180","0.0-1.0-410.0-0.0","0","0","61754","","444","","","68","45","","","1","45","training","adjacent","EF","5","6","L.jpg","P.jpg","1","1","1","",""
"","feedback","","html-keyboard-response","285","449183","0.0-1.0-411.0-0.0","0","0","61754","","null","","","null","45","","","","","","","","","","","","","","","",""
"","ITI","","html-keyboard-response","286","450185","0.0-1.0-414.0","0","0","61754","","null","","","null","45","","","","","","","","","","","","","","","NaN",""
"","S1","","html-keyboard-response","287","450338","0.0-1.0-416.0","0","0","61754","","null","","","null","46","","","","","","","","","","","","","","","",""
"","ISI","","html-keyboard-response","288","452340","0.0-1.0-417.0","0","0","61754","","null","","","null","46","NaN","","","","","","","","","","","","","","",""
"","S2","","html-keyboard-response","289","452491","0.0-1.0-418.0","0","0","61754","","null","","","null","46","","NaN","","","","","","","","","","","","","",""
"","response","","html-keyboard-response","290","452856","0.0-1.0-419.0-0.0","0","0","61754","","363","","","68","46","","","1","46","training","adjacent","FG","6","7","P.jpg","N.jpg","1","1","1","",""
"","feedback","","html-keyboard-response","291","453858","0.0-1.0-420.0-0.0","0","0","61754","","null","","","null","46","","","","","","","","","","","","","","","",""
"","ITI","","html-keyboard-response","292","454861","0.0-1.0-423.0","0","0","61754","","null","","","null","46","","","","","","","","","","","","","","","NaN",""
"","S1","","html-keyboard-response","293","455014","0.0-1.0-425.0","0","0","61754","","null","","","null","47","","","","","","","","","","","","","","","",""
"","ISI","","html-keyboard-response","294","457016","0.0-1.0-426.0","0","0","61754","","1413","","","68","47","d","","","","","","","","","","","","","","",""
"","S2","","html-keyboard-response","295","457168","0.0-1.0-427.0","0","0","61754","","null","","","null","47","","NaN","","","","","","","","","","","","","",""
"","response","","html-keyboard-response","296","457470","0.0-1.0-428.0-0.0","0","0","61754","","301","","","68","47","","","1","47","training","adjacent","FE","6","5","P.jpg","L.jpg","1","0","0","",""
"","feedback","","html-keyboard-response","297","458484","0.0-1.0-429.0-0.0","0","0","61754","","null","","","null","47","","","","","","","","","","","","","","","",""
"","time_out","","html-keyboard-response","298","460487","0.0-1.0-431.0-0.0","0","0","61754","","null","","","null","47","","","","","","","","","","","","","","","",""
"","ITI","","html-keyboard-response","299","461512","0.0-1.0-432.0","0","0","61754","","null","","","null","47","","","","","","","","","","","","","","","NaN",""
"","block_over","","html-keyboard-response","300","519144","0.0-1.0-433.0-0.0","0","0","61754","","57631","","","32","47","","","","","","","","","","","","","","","",""
"","S1","","html-keyboard-response","301","519297","0.0-1.0-434.0","0","0","61754","","null","","","null","48","","","","","","","","","","","","","","","",""
"","ISI","","html-keyboard-response","302","521303","0.0-1.0-435.0","0","0","61754","","null","","","null","48","NaN","","","","","","","","","","","","","","",""
"","S2","","html-keyboard-response","303","521456","0.0-1.0-436.0","0","0","61754","","null","","","null","48","","NaN","","","","","","","","","","","","","",""
"","response","","html-keyboard-response","304","521895","0.0-1.0-437.0-0.0","0","0","61754","","437","","","68","48","","","2","48","training","adjacent","BC","2","3","O.jpg","Q.jpg","1","1","1","",""
"","feedback","","html-keyboard-response","305","522897","0.0-1.0-438.0-0.0","0","0","61754","","null","","","null","48","","","","","","","","","","","","","","","",""
"","ITI","","html-keyboard-response","306","523901","0.0-1.0-441.0","0","0","61754","","null","","","null","48","","","","","","","","","","","","","","","NaN",""
"","S1","","html-keyboard-response","307","524053","0.0-1.0-443.0","0","0","61754","","null","","","null","49","","","","","","","","","","","","","","","",""
"","ISI","","html-keyboard-response","308","526055","0.0-1.0-444.0","0","0","61754","","null","","","null","49","NaN","","","","","","","","","","","","","","",""
"","S2","","html-keyboard-response","309","526208","0.0-1.0-445.0","0","0","61754","","null","","","null","49","","NaN","","","","","","","","","","","","","",""
"","response","","html-keyboard-response","310","526590","0.0-1.0-446.0-0.0","0","0","61754","","381","","","75","49","","","2","49","training","adjacent","CD","3","4","Q.jpg","M.jpg","0","1","0","",""
"","feedback","","html-keyboard-response","311","527592","0.0-1.0-447.0-0.0","0","0","61754","","null","","","null","49","","","","","","","","","","","","","","","",""
"","time_out","","html-keyboard-response","312","529593","0.0-1.0-449.0-0.0","0","0","61754","","null","","","null","49","","","","","","","","","","","","","","","",""
"","ITI","","html-keyboard-response","313","530594","0.0-1.0-450.0","0","0","61754","","null","","","null","49","","","","","","","","","","","","","","","NaN",""
"","S1","","html-keyboard-response","314","530748","0.0-1.0-452.0","0","0","61754","","null","","","null","50","","","","","","","","","","","","","","","",""
"","ISI","","html-keyboard-response","315","532751","0.0-1.0-453.0","0","0","61754","","null","","","null","50","NaN","","","","","","","","","","","","","","",""
"","S2","","html-keyboard-response","316","532902","0.0-1.0-454.0","0","0","61754","","null","","","null","50","","NaN","","","","","","","","","","","","","",""
"","response","","html-keyboard-response","317","533540","0.0-1.0-455.0-0.0","0","0","61754","","636","","","75","50","","","2","50","training","adjacent","EF","5","6","L.jpg","P.jpg","0","1","0","",""
"","feedback","","html-keyboard-response","318","534543","0.0-1.0-456.0-0.0","0","0","61754","","null","","","null","50","","","","","","","","","","","","","","","",""
"","time_out","","html-keyboard-response","319","536545","0.0-1.0-458.0-0.0","0","0","61754","","null","","","null","50","","","","","","","","","","","","","","","",""
"","ITI","","html-keyboard-response","320","537548","0.0-1.0-459.0","0","0","61754","","null","","","null","50","","","","","","","","","","","","","","","NaN",""
"","S1","","html-keyboard-response","321","537702","0.0-1.0-461.0","0","0","61754","","null","","","null","51","","","","","","","","","","","","","","","",""
"","ISI","","html-keyboard-response","322","539705","0.0-1.0-462.0","0","0","61754","","null","","","null","51","NaN","","","","","","","","","","","","","","",""
"","S2","","html-keyboard-response","323","539858","0.0-1.0-463.0","0","0","61754","","null","","","null","51","","NaN","","","","","","","","","","","","","",""
"","response","","html-keyboard-response","324","540253","0.0-1.0-464.0-0.0","0","0","61754","","394","","","75","51","","","2","51","training","adjacent","DC","4","3","M.jpg","Q.jpg","0","0","1","",""
"","feedback","","html-keyboard-response","325","541256","0.0-1.0-465.0-0.0","0","0","61754","","null","","","null","51","","","","","","","","","","","","","","","",""
"","ITI","","html-keyboard-response","326","542271","0.0-1.0-468.0","0","0","61754","","null","","","null","51","","","","","","","","","","","","","","","NaN",""
"","S1","","html-keyboard-response","327","542423","0.0-1.0-470.0","0","0","61754","","null","","","null","52","","","","","","","","","","","","","","","",""
"","ISI","","html-keyboard-response","328","544427","0.0-1.0-471.0","0","0","61754","","null","","","null","52","NaN","","","","","","","","","","","","","","",""
"","S2","","html-keyboard-response","329","544580","0.0-1.0-472.0","0","0","61754","","null","","","null","52","","NaN","","","","","","","","","","","","","",""
"","response","","html-keyboard-response","330","545047","0.0-1.0-473.0-0.0","0","0","61754","","465","","","68","52","","","2","52","training","adjacent","DE","4","5","M.jpg","L.jpg","1","1","1","",""
"","feedback","","html-keyboard-response","331","546052","0.0-1.0-474.0-0.0","0","0","61754","","null","","","null","52","","","","","","","","","","","","","","","",""
"","ITI","","html-keyboard-response","332","547055","0.0-1.0-477.0","0","0","61754","","null","","","null","52","","","","","","","","","","","","","","","NaN",""
"","S1","","html-keyboard-response","333","547211","0.0-1.0-479.0","0","0","61754","","null","","","null","53","","","","","","","","","","","","","","","",""
"","ISI","","html-keyboard-response","334","549213","0.0-1.0-480.0","0","0","61754","","null","","","null","53","NaN","","","","","","","","","","","","","","",""
"","S2","","html-keyboard-response","335","549365","0.0-1.0-481.0","0","0","61754","","null","","","null","53","","NaN","","","","","","","","","","","","","",""
"","response","","html-keyboard-response","336","549721","0.0-1.0-482.0-0.0","0","0","61754","","354","","","68","53","","","2","53","training","adjacent","CD","3","4","Q.jpg","M.jpg","1","1","1","",""
"","feedback","","html-keyboard-response","337","550722","0.0-1.0-483.0-0.0","0","0","61754","","null","","","null","53","","","","","","","","","","","","","","","",""
"","ITI","","html-keyboard-response","338","551732","0.0-1.0-486.0","0","0","61754","","null","","","null","53","","","","","","","","","","","","","","","NaN",""
"","S1","","html-keyboard-response","339","551886","0.0-1.0-488.0","0","0","61754","","null","","","null","54","","","","","","","","","","","","","","","",""
"","ISI","","html-keyboard-response","340","553889","0.0-1.0-489.0","0","0","61754","","null","","","null","54","NaN","","","","","","","","","","","","","","",""
"","S2","","html-keyboard-response","341","554041","0.0-1.0-490.0","0","0","61754","","null","","","null","54","","NaN","","","","","","","","","","","","","",""
"","response","","html-keyboard-response","342","554506","0.0-1.0-491.0-0.0","0","0","61754","","464","","","68","54","","","2","54","training","adjacent","AB","1","2","R.jpg","O.jpg","1","1","1","",""
"","feedback","","html-keyboard-response","343","555508","0.0-1.0-492.0-0.0","0","0","61754","","null","","","null","54","","","","","","","","","","","","","","","",""
"","ITI","","html-keyboard-response","344","556511","0.0-1.0-495.0","0","0","61754","","null","","","null","54","","","","","","","","","","","","","","","NaN",""
"","S1","","html-keyboard-response","345","556663","0.0-1.0-497.0","0","0","61754","","null","","","null","55","","","","","","","","","","","","","","","",""
"","ISI","","html-keyboard-response","346","558666","0.0-1.0-498.0","0","0","61754","","null","","","null","55","NaN","","","","","","","","","","","","","","",""
"","S2","","html-keyboard-response","347","558820","0.0-1.0-499.0","0","0","61754","","null","","","null","55","","NaN","","","","","","","","","","","","","",""
"","response","","html-keyboard-response","348","559112","0.0-1.0-500.0-0.0","0","0","61754","","290","","","75","55","","","2","55","training","adjacent","CB","3","2","Q.jpg","O.jpg","0","0","1","",""
"","feedback","","html-keyboard-response","349","560114","0.0-1.0-501.0-0.0","0","0","61754","","null","","","null","55","","","","","","","","","","","","","","","",""
"","ITI","","html-keyboard-response","350","561115","0.0-1.0-504.0","0","0","61754","","null","","","null","55","","","","","","","","","","","","","","","NaN",""
"","S1","","html-keyboard-response","351","561268","0.0-1.0-506.0","0","0","61754","","null","","","null","56","","","","","","","","","","","","","","","",""
"","ISI","","html-keyboard-response","352","563271","0.0-1.0-507.0","0","0","61754","","null","","","null","56","NaN","","","","","","","","","","","","","","",""
"","S2","","html-keyboard-response","353","563424","0.0-1.0-508.0","0","0","61754","","null","","","null","56","","NaN","","","","","","","","","","","","","",""
"","response","","html-keyboard-response","354","563921","0.0-1.0-509.0-0.0","0","0","61754","","495","","","68","56","","","2","56","training","adjacent","FE","6","5","P.jpg","L.jpg","1","0","0","",""
"","feedback","","html-keyboard-response","355","564923","0.0-1.0-510.0-0.0","0","0","61754","","null","","","null","56","","","","","","","","","","","","","","","",""
"","time_out","","html-keyboard-response","356","566926","0.0-1.0-512.0-0.0","0","0","61754","","null","","","null","56","","","","","","","","","","","","","","","",""
"","ITI","","html-keyboard-response","357","567994","0.0-1.0-513.0","0","0","61754","","null","","","null","56","","","","","","","","","","","","","","","NaN",""
"","S1","","html-keyboard-response","358","568147","0.0-1.0-515.0","0","0","61754","","null","","","null","57","","","","","","","","","","","","","","","",""
"","ISI","","html-keyboard-response","359","570154","0.0-1.0-516.0","0","0","61754","","null","","","null","57","NaN","","","","","","","","","","","","","","",""
"","S2","","html-keyboard-response","360","570307","0.0-1.0-517.0","0","0","61754","","null","","","null","57","","NaN","","","","","","","","","","","","","",""
"","response","","html-keyboard-response","361","570695","0.0-1.0-518.0-0.0","0","0","61754","","387","","","68","57","","","2","57","training","adjacent","EF","5","6","L.jpg","P.jpg","1","1","1","",""
"","feedback","","html-keyboard-response","362","571698","0.0-1.0-519.0-0.0","0","0","61754","","null","","","null","57","","","","","","","","","","","","","","","",""
"","ITI","","html-keyboard-response","363","572700","0.0-1.0-522.0","0","0","61754","","null","","","null","57","","","","","","","","","","","","","","","NaN",""
"","S1","","html-keyboard-response","364","572853","0.0-1.0-524.0","0","0","61754","","null","","","null","58","","","","","","","","","","","","","","","",""
"","ISI","","html-keyboard-response","365","574855","0.0-1.0-525.0","0","0","61754","","null","","","null","58","NaN","","","","","","","","","","","","","","",""
"","S2","","html-keyboard-response","366","575008","0.0-1.0-526.0","0","0","61754","","null","","","null","58","","NaN","","","","","","","","","","","","","",""
"","response","","html-keyboard-response","367","575365","0.0-1.0-527.0-0.0","0","0","61754","","356","","","68","58","","","2","58","training","adjacent","FG","6","7","P.jpg","N.jpg","1","1","1","",""
"","feedback","","html-keyboard-response","368","576368","0.0-1.0-528.0-0.0","0","0","61754","","null","","","null","58","","","","","","","","","","","","","","","",""
"","ITI","","html-keyboard-response","369","577370","0.0-1.0-531.0","0","0","61754","","null","","","null","58","","","","","","","","","","","","","","","NaN",""
"","S1","","html-keyboard-response","370","577522","0.0-1.0-533.0","0","0","61754","","null","","","null","59","","","","","","","","","","","","","","","",""
"","ISI","","html-keyboard-response","371","579524","0.0-1.0-534.0","0","0","61754","","null","","","null","59","NaN","","","","","","","","","","","","","","",""
"","S2","","html-keyboard-response","372","579677","0.0-1.0-535.0","0","0","61754","","null","","","null","59","","NaN","","","","","","","","","","","","","",""
"","response","","html-keyboard-response","373","580018","0.0-1.0-536.0-0.0","0","0","61754","","339","","","68","59","","","2","59","training","adjacent","FG","6","7","P.jpg","N.jpg","1","1","1","",""
"","feedback","","html-keyboard-response","374","581022","0.0-1.0-537.0-0.0","0","0","61754","","null","","","null","59","","","","","","","","","","","","","","","",""
"","ITI","","html-keyboard-response","375","582023","0.0-1.0-540.0","0","0","61754","","null","","","null","59","","","","","","","","","","","","","","","NaN",""
"","S1","","html-keyboard-response","376","582175","0.0-1.0-542.0","0","0","61754","","null","","","null","60","","","","","","","","","","","","","","","",""
"","ISI","","html-keyboard-response","377","584180","0.0-1.0-543.0","0","0","61754","","null","","","null","60","NaN","","","","","","","","","","","","","","",""
"","S2","","html-keyboard-response","378","584333","0.0-1.0-544.0","0","0","61754","","null","","","null","60","","NaN","","","","","","","","","","","","","",""
"","response","","html-keyboard-response","379","584658","0.0-1.0-545.0-0.0","0","0","61754","","324","","","75","60","","","2","60","training","adjacent","BA","2","1","O.jpg","R.jpg","0","0","1","",""
"","feedback","","html-keyboard-response","380","585659","0.0-1.0-546.0-0.0","0","0","61754","","null","","","null","60","","","","","","","","","","","","","","","",""
"","ITI","","html-keyboard-response","381","586662","0.0-1.0-549.0","0","0","61754","","null","","","null","60","","","","","","","","","","","","","","","NaN",""
"","S1","","html-keyboard-response","382","586814","0.0-1.0-551.0","0","0","61754","","null","","","null","61","","","","","","","","","","","","","","","",""
"","ISI","","html-keyboard-response","383","588816","0.0-1.0-552.0","0","0","61754","","null","","","null","61","NaN","","","","","","","","","","","","","","",""
"","S2","","html-keyboard-response","384","588970","0.0-1.0-553.0","0","0","61754","","null","","","null","61","","NaN","","","","","","","","","","","","","",""
"","response","","html-keyboard-response","385","589305","0.0-1.0-554.0-0.0","0","0","61754","","332","","","68","61","","","2","61","training","adjacent","CD","3","4","Q.jpg","M.jpg","1","1","1","",""
"","feedback","","html-keyboard-response","386","590308","0.0-1.0-555.0-0.0","0","0","61754","","null","","","null","61","","","","","","","","","","","","","","","",""
"","ITI","","html-keyboard-response","387","591310","0.0-1.0-558.0","0","0","61754","","null","","","null","61","","","","","","","","","","","","","","","NaN",""
"","S1","","html-keyboard-response","388","591462","0.0-1.0-560.0","0","0","61754","","null","","","null","62","","","","","","","","","","","","","","","",""
"","ISI","","html-keyboard-response","389","593464","0.0-1.0-561.0","0","0","61754","","null","","","null","62","NaN","","","","","","","","","","","","","","",""
"","S2","","html-keyboard-response","390","593616","0.0-1.0-562.0","0","0","61754","","null","","","null","62","","NaN","","","","","","","","","","","","","",""
"","response","","html-keyboard-response","391","594151","0.0-1.0-563.0-0.0","0","0","61754","","533","","","68","62","","","2","62","training","adjacent","EF","5","6","L.jpg","P.jpg","1","1","1","",""
"","feedback","","html-keyboard-response","392","595155","0.0-1.0-564.0-0.0","0","0","61754","","null","","","null","62","","","","","","","","","","","","","","","",""
"","ITI","","html-keyboard-response","393","596158","0.0-1.0-567.0","0","0","61754","","null","","","null","62","","","","","","","","","","","","","","","NaN",""
"","S1","","html-keyboard-response","394","596311","0.0-1.0-569.0","0","0","61754","","null","","","null","63","","","","","","","","","","","","","","","",""
"","ISI","","html-keyboard-response","395","598313","0.0-1.0-570.0","0","0","61754","","null","","","null","63","NaN","","","","","","","","","","","","","","",""
"","S2","","html-keyboard-response","396","598464","0.0-1.0-571.0","0","0","61754","","null","","","null","63","","NaN","","","","","","","","","","","","","",""
"","response","","html-keyboard-response","397","599013","0.0-1.0-572.0-0.0","0","0","61754","","547","","","68","63","","","2","63","training","adjacent","AB","1","2","R.jpg","O.jpg","1","1","1","",""
"","feedback","","html-keyboard-response","398","600015","0.0-1.0-573.0-0.0","0","0","61754","","null","","","null","63","","","","","","","","","","","","","","","",""
"","ITI","","html-keyboard-response","399","601017","0.0-1.0-576.0","0","0","61754","","null","","","null","63","","","","","","","","","","","","","","","NaN",""
"","S1","","html-keyboard-response","400","601170","0.0-1.0-578.0","0","0","61754","","null","","","null","64","","","","","","","","","","","","","","","",""
"","ISI","","html-keyboard-response","401","603172","0.0-1.0-579.0","0","0","61754","","null","","","null","64","NaN","","","","","","","","","","","","","","",""
"","S2","","html-keyboard-response","402","603324","0.0-1.0-580.0","0","0","61754","","null","","","null","64","","NaN","","","","","","","","","","","","","",""
"","response","","html-keyboard-response","403","603938","0.0-1.0-581.0-0.0","0","0","61754","","613","","","68","64","","","2","64","training","adjacent","AB","1","2","R.jpg","O.jpg","1","1","1","",""
"","feedback","","html-keyboard-response","404","604941","0.0-1.0-582.0-0.0","0","0","61754","","null","","","null","64","","","","","","","","","","","","","","","",""
"","ITI","","html-keyboard-response","405","605943","0.0-1.0-585.0","0","0","61754","","null","","","null","64","","","","","","","","","","","","","","","NaN",""
"","S1","","html-keyboard-response","406","606095","0.0-1.0-587.0","0","0","61754","","null","","","null","65","","","","","","","","","","","","","","","",""
"","ISI","","html-keyboard-response","407","608098","0.0-1.0-588.0","0","0","61754","","null","","","null","65","NaN","","","","","","","","","","","","","","",""
"","S2","","html-keyboard-response","408","608250","0.0-1.0-589.0","0","0","61754","","null","","","null","65","","NaN","","","","","","","","","","","","","",""
"","response","","html-keyboard-response","409","608758","0.0-1.0-590.0-0.0","0","0","61754","","506","","","75","65","","","2","65","training","adjacent","DC","4","3","M.jpg","Q.jpg","0","0","1","",""
"","feedback","","html-keyboard-response","410","609762","0.0-1.0-591.0-0.0","0","0","61754","","null","","","null","65","","","","","","","","","","","","","","","",""
"","ITI","","html-keyboard-response","411","610766","0.0-1.0-594.0","0","0","61754","","null","","","null","65","","","","","","","","","","","","","","","NaN",""
"","S1","","html-keyboard-response","412","610919","0.0-1.0-596.0","0","0","61754","","null","","","null","66","","","","","","","","","","","","","","","",""
"","ISI","","html-keyboard-response","413","612922","0.0-1.0-597.0","0","0","61754","","null","","","null","66","NaN","","","","","","","","","","","","","","",""
"","S2","","html-keyboard-response","414","613074","0.0-1.0-598.0","0","0","61754","","null","","","null","66","","NaN","","","","","","","","","","","","","",""
"","response","","html-keyboard-response","415","613355","0.0-1.0-599.0-0.0","0","0","61754","","279","","","75","66","","","2","66","training","adjacent","GF","7","6","N.jpg","P.jpg","0","0","1","",""
"","feedback","","html-keyboard-response","416","614357","0.0-1.0-600.0-0.0","0","0","61754","","null","","","null","66","","","","","","","","","","","","","","","",""
"","ITI","","html-keyboard-response","417","615359","0.0-1.0-603.0","0","0","61754","","null","","","null","66","","","","","","","","","","","","","","","NaN",""
"","S1","","html-keyboard-response","418","615511","0.0-1.0-605.0","0","0","61754","","null","","","null","67","","","","","","","","","","","","","","","",""
"","ISI","","html-keyboard-response","419","617513","0.0-1.0-606.0","0","0","61754","","null","","","null","67","NaN","","","","","","","","","","","","","","",""
"","S2","","html-keyboard-response","420","617667","0.0-1.0-607.0","0","0","61754","","null","","","null","67","","NaN","","","","","","","","","","","","","",""
"","response","","html-keyboard-response","421","617996","0.0-1.0-608.0-0.0","0","0","61754","","328","","","75","67","","","2","67","training","adjacent","GF","7","6","N.jpg","P.jpg","0","0","1","",""
"","feedback","","html-keyboard-response","422","618997","0.0-1.0-609.0-0.0","0","0","61754","","null","","","null","67","","","","","","","","","","","","","","","",""
"","ITI","","html-keyboard-response","423","620000","0.0-1.0-612.0","0","0","61754","","null","","","null","67","","","","","","","","","","","","","","","NaN",""
"","S1","","html-keyboard-response","424","620154","0.0-1.0-614.0","0","0","61754","","null","","","null","68","","","","","","","","","","","","","","","",""
"","ISI","","html-keyboard-response","425","622156","0.0-1.0-615.0","0","0","61754","","null","","","null","68","NaN","","","","","","","","","","","","","","",""
"","S2","","html-keyboard-response","426","622309","0.0-1.0-616.0","0","0","61754","","null","","","null","68","","NaN","","","","","","","","","","","","","",""
"","response","","html-keyboard-response","427","622645","0.0-1.0-617.0-0.0","0","0","61754","","335","","","75","68","","","2","68","training","adjacent","FE","6","5","P.jpg","L.jpg","0","0","1","",""
"","feedback","","html-keyboard-response","428","623647","0.0-1.0-618.0-0.0","0","0","61754","","null","","","null","68","","","","","","","","","","","","","","","",""
"","ITI","","html-keyboard-response","429","624648","0.0-1.0-621.0","0","0","61754","","null","","","null","68","","","","","","","","","","","","","","","NaN",""
"","S1","","html-keyboard-response","430","624801","0.0-1.0-623.0","0","0","61754","","null","","","null","69","","","","","","","","","","","","","","","",""
"","ISI","","html-keyboard-response","431","626803","0.0-1.0-624.0","0","0","61754","","null","","","null","69","NaN","","","","","","","","","","","","","","",""
"","S2","","html-keyboard-response","432","626956","0.0-1.0-625.0","0","0","61754","","null","","","null","69","","NaN","","","","","","","","","","","","","",""
"","response","","html-keyboard-response","433","627307","0.0-1.0-626.0-0.0","0","0","61754","","349","","","75","69","","","2","69","training","adjacent","FE","6","5","P.jpg","L.jpg","0","0","1","",""
"","feedback","","html-keyboard-response","434","628309","0.0-1.0-627.0-0.0","0","0","61754","","null","","","null","69","","","","","","","","","","","","","","","",""
"","ITI","","html-keyboard-response","435","629311","0.0-1.0-630.0","0","0","61754","","null","","","null","69","","","","","","","","","","","","","","","NaN",""
"","S1","","html-keyboard-response","436","629463","0.0-1.0-632.0","0","0","61754","","null","","","null","70","","","","","","","","","","","","","","","",""
"","ISI","","html-keyboard-response","437","631465","0.0-1.0-633.0","0","0","61754","","null","","","null","70","NaN","","","","","","","","","","","","","","",""
"","S2","","html-keyboard-response","438","631617","0.0-1.0-634.0","0","0","61754","","null","","","null","70","","NaN","","","","","","","","","","","","","",""
"","response","","html-keyboard-response","439","632088","0.0-1.0-635.0-0.0","0","0","61754","","470","","","68","70","","","2","70","training","adjacent","DE","4","5","M.jpg","L.jpg","1","1","1","",""
"","feedback","","html-keyboard-response","440","633092","0.0-1.0-636.0-0.0","0","0","61754","","null","","","null","70","","","","","","","","","","","","","","","",""
"","ITI","","html-keyboard-response","441","634095","0.0-1.0-639.0","0","0","61754","","null","","","null","70","","","","","","","","","","","","","","","NaN",""
"","S1","","html-keyboard-response","442","634251","0.0-1.0-641.0","0","0","61754","","null","","","null","71","","","","","","","","","","","","","","","",""
"","ISI","","html-keyboard-response","443","636254","0.0-1.0-642.0","0","0","61754","","null","","","null","71","NaN","","","","","","","","","","","","","","",""
"","S2","","html-keyboard-response","444","636407","0.0-1.0-643.0","0","0","61754","","null","","","null","71","","NaN","","","","","","","","","","","","","",""
"","response","","html-keyboard-response","445","636688","0.0-1.0-644.0-0.0","0","0","61754","","279","","","68","71","","","2","71","training","adjacent","CD","3","4","Q.jpg","M.jpg","1","1","1","",""
"","feedback","","html-keyboard-response","446","637690","0.0-1.0-645.0-0.0","0","0","61754","","null","","","null","71","","","","","","","","","","","","","","","",""
"","ITI","","html-keyboard-response","447","638692","0.0-1.0-648.0","0","0","61754","","null","","","null","71","","","","","","","","","","","","","","","NaN",""
"","S1","","html-keyboard-response","448","638845","0.0-1.0-650.0","0","0","61754","","null","","","null","72","","","","","","","","","","","","","","","",""
"","ISI","","html-keyboard-response","449","640847","0.0-1.0-651.0","0","0","61754","","null","","","null","72","NaN","","","","","","","","","","","","","","",""
"","S2","","html-keyboard-response","450","641000","0.0-1.0-652.0","0","0","61754","","null","","","null","72","","NaN","","","","","","","","","","","","","",""
"","response","","html-keyboard-response","451","641912","0.0-1.0-653.0-0.0","0","0","61754","","910","","","75","72","","","2","72","training","adjacent","ED","5","4","L.jpg","M.jpg","0","0","1","",""
"","feedback","","html-keyboard-response","452","642946","0.0-1.0-654.0-0.0","0","0","61754","","null","","","null","72","","","","","","","","","","","","","","","",""
"","ITI","","html-keyboard-response","453","643948","0.0-1.0-657.0","0","0","61754","","null","","","null","72","","","","","","","","","","","","","","","NaN",""
"","S1","","html-keyboard-response","454","644104","0.0-1.0-659.0","0","0","61754","","null","","","null","73","","","","","","","","","","","","","","","",""
"","ISI","","html-keyboard-response","455","646107","0.0-1.0-660.0","0","0","61754","","null","","","null","73","NaN","","","","","","","","","","","","","","",""
"","S2","","html-keyboard-response","456","646260","0.0-1.0-661.0","0","0","61754","","null","","","null","73","","NaN","","","","","","","","","","","","","",""
"","response","","html-keyboard-response","457","646628","0.0-1.0-662.0-0.0","0","0","61754","","368","","","75","73","","","2","73","training","adjacent","BA","2","1","O.jpg","R.jpg","0","0","1","",""
"","feedback","","html-keyboard-response","458","647630","0.0-1.0-663.0-0.0","0","0","61754","","null","","","null","73","","","","","","","","","","","","","","","",""
"","ITI","","html-keyboard-response","459","648640","0.0-1.0-666.0","0","0","61754","","null","","","null","73","","","","","","","","","","","","","","","NaN",""
"","S1","","html-keyboard-response","460","648792","0.0-1.0-668.0","0","0","61754","","null","","","null","74","","","","","","","","","","","","","","","",""
"","ISI","","html-keyboard-response","461","650795","0.0-1.0-669.0","0","0","61754","","null","","","null","74","NaN","","","","","","","","","","","","","","",""
"","S2","","html-keyboard-response","462","650947","0.0-1.0-670.0","0","0","61754","","null","","","null","74","","NaN","","","","","","","","","","","","","",""
"","response","","html-keyboard-response","463","651320","0.0-1.0-671.0-0.0","0","0","61754","","373","","","68","74","","","2","74","training","adjacent","DE","4","5","M.jpg","L.jpg","1","1","1","",""
"","feedback","","html-keyboard-response","464","652324","0.0-1.0-672.0-0.0","0","0","61754","","null","","","null","74","","","","","","","","","","","","","","","",""
"","ITI","","html-keyboard-response","465","653326","0.0-1.0-675.0","0","0","61754","","null","","","null","74","","","","","","","","","","","","","","","NaN",""
"","S1","","html-keyboard-response","466","653479","0.0-1.0-677.0","0","0","61754","","null","","","null","75","","","","","","","","","","","","","","","",""
"","ISI","","html-keyboard-response","467","655482","0.0-1.0-678.0","0","0","61754","","null","","","null","75","NaN","","","","","","","","","","","","","","",""
"","S2","","html-keyboard-response","468","655634","0.0-1.0-679.0","0","0","61754","","null","","","null","75","","NaN","","","","","","","","","","","","","",""
"","response","","html-keyboard-response","469","655956","0.0-1.0-680.0-0.0","0","0","61754","","320","","","68","75","","","2","75","training","adjacent","BC","2","3","O.jpg","Q.jpg","1","1","1","",""
"","feedback","","html-keyboard-response","470","656958","0.0-1.0-681.0-0.0","0","0","61754","","null","","","null","75","","","","","","","","","","","","","","","",""
"","ITI","","html-keyboard-response","471","657960","0.0-1.0-684.0","0","0","61754","","null","","","null","75","","","","","","","","","","","","","","","NaN",""
"","S1","","html-keyboard-response","472","658112","0.0-1.0-686.0","0","0","61754","","null","","","null","76","","","","","","","","","","","","","","","",""
"","ISI","","html-keyboard-response","473","660113","0.0-1.0-687.0","0","0","61754","","null","","","null","76","NaN","","","","","","","","","","","","","","",""
"","S2","","html-keyboard-response","474","660271","0.0-1.0-688.0","0","0","61754","","null","","","null","76","","NaN","","","","","","","","","","","","","",""
"","response","","html-keyboard-response","475","660649","0.0-1.0-689.0-0.0","0","0","61754","","376","","","75","76","","","2","76","training","adjacent","ED","5","4","L.jpg","M.jpg","0","0","1","",""
"","feedback","","html-keyboard-response","476","661652","0.0-1.0-690.0-0.0","0","0","61754","","null","","","null","76","","","","","","","","","","","","","","","",""
"","ITI","","html-keyboard-response","477","662655","0.0-1.0-693.0","0","0","61754","","null","","","null","76","","","","","","","","","","","","","","","NaN",""
"","S1","","html-keyboard-response","478","662807","0.0-1.0-695.0","0","0","61754","","null","","","null","77","","","","","","","","","","","","","","","",""
"","ISI","","html-keyboard-response","479","664809","0.0-1.0-696.0","0","0","61754","","null","","","null","77","NaN","","","","","","","","","","","","","","",""
"","S2","","html-keyboard-response","480","664963","0.0-1.0-697.0","0","0","61754","","null","","","null","77","","NaN","","","","","","","","","","","","","",""
"","response","","html-keyboard-response","481","665440","0.0-1.0-698.0-0.0","0","0","61754","","472","","","75","77","","","2","77","training","adjacent","FE","6","5","P.jpg","L.jpg","0","0","1","",""
"","feedback","","html-keyboard-response","482","666445","0.0-1.0-699.0-0.0","0","0","61754","","null","","","null","77","","","","","","","","","","","","","","","",""
"","ITI","","html-keyboard-response","483","667449","0.0-1.0-702.0","0","0","61754","","null","","","null","77","","","","","","","","","","","","","","","NaN",""
"","S1","","html-keyboard-response","484","667603","0.0-1.0-704.0","0","0","61754","","null","","","null","78","","","","","","","","","","","","","","","",""
"","ISI","","html-keyboard-response","485","669606","0.0-1.0-705.0","0","0","61754","","null","","","null","78","NaN","","","","","","","","","","","","","","",""
"","S2","","html-keyboard-response","486","669761","0.0-1.0-706.0","0","0","61754","","null","","","null","78","","NaN","","","","","","","","","","","","","",""
"","response","","html-keyboard-response","487","670337","0.0-1.0-707.0-0.0","0","0","61754","","574","","","75","78","","","2","78","training","adjacent","DC","4","3","M.jpg","Q.jpg","0","0","1","",""
"","feedback","","html-keyboard-response","488","671340","0.0-1.0-708.0-0.0","0","0","61754","","null","","","null","78","","","","","","","","","","","","","","","",""
"","ITI","","html-keyboard-response","489","672343","0.0-1.0-711.0","0","0","61754","","null","","","null","78","","","","","","","","","","","","","","","NaN",""
"","S1","","html-keyboard-response","490","672497","0.0-1.0-713.0","0","0","61754","","null","","","null","79","","","","","","","","","","","","","","","",""
"","ISI","","html-keyboard-response","491","674499","0.0-1.0-714.0","0","0","61754","","null","","","null","79","NaN","","","","","","","","","","","","","","",""
"","S2","","html-keyboard-response","492","674652","0.0-1.0-715.0","0","0","61754","","null","","","null","79","","NaN","","","","","","","","","","","","","",""
"","response","","html-keyboard-response","493","675098","0.0-1.0-716.0-0.0","0","0","61754","","446","","","75","79","","","2","79","training","adjacent","BC","2","3","O.jpg","Q.jpg","0","1","0","",""
"","feedback","","html-keyboard-response","494","676100","0.0-1.0-717.0-0.0","0","0","61754","","null","","","null","79","","","","","","","","","","","","","","","",""
"","time_out","","html-keyboard-response","495","678113","0.0-1.0-719.0-0.0","0","0","61754","","null","","","null","79","","","","","","","","","","","","","","","",""
"","ITI","","html-keyboard-response","496","679116","0.0-1.0-720.0","0","0","61754","","null","","","null","79","","","","","","","","","","","","","","","NaN",""
"","S1","","html-keyboard-response","497","679268","0.0-1.0-722.0","0","0","61754","","null","","","null","80","","","","","","","","","","","","","","","",""
"","ISI","","html-keyboard-response","498","681271","0.0-1.0-723.0","0","0","61754","","null","","","null","80","NaN","","","","","","","","","","","","","","",""
"","S2","","html-keyboard-response","499","681424","0.0-1.0-724.0","0","0","61754","","null","","","null","80","","NaN","","","","","","","","","","","","","",""
"","response","","html-keyboard-response","500","681588","0.0-1.0-725.0-0.0","0","0","61754","","162","","","75","80","","","2","80","training","adjacent","CB","3","2","Q.jpg","O.jpg","0","0","1","",""
"","feedback","","html-keyboard-response","501","682591","0.0-1.0-726.0-0.0","0","0","61754","","null","","","null","80","","","","","","","","","","","","","","","",""
"","ITI","","html-keyboard-response","502","683597","0.0-1.0-729.0","0","0","61754","","null","","","null","80","","","","","","","","","","","","","","","NaN",""
"","S1","","html-keyboard-response","503","683750","0.0-1.0-731.0","0","0","61754","","null","","","null","81","","","","","","","","","","","","","","","",""
"","ISI","","html-keyboard-response","504","685757","0.0-1.0-732.0","0","0","61754","","null","","","null","81","NaN","","","","","","","","","","","","","","",""
"","S2","","html-keyboard-response","505","685910","0.0-1.0-733.0","0","0","61754","","null","","","null","81","","NaN","","","","","","","","","","","","","",""
"","response","","html-keyboard-response","506","686256","0.0-1.0-734.0-0.0","0","0","61754","","345","","","68","81","","","2","81","training","adjacent","AB","1","2","R.jpg","O.jpg","1","1","1","",""
"","feedback","","html-keyboard-response","507","687259","0.0-1.0-735.0-0.0","0","0","61754","","null","","","null","81","","","","","","","","","","","","","","","",""
"","ITI","","html-keyboard-response","508","688262","0.0-1.0-738.0","0","0","61754","","null","","","null","81","","","","","","","","","","","","","","","NaN",""
"","S1","","html-keyboard-response","509","688415","0.0-1.0-740.0","0","0","61754","","null","","","null","82","","","","","","","","","","","","","","","",""
"","ISI","","html-keyboard-response","510","690416","0.0-1.0-741.0","0","0","61754","","null","","","null","82","NaN","","","","","","","","","","","","","","",""
"","S2","","html-keyboard-response","511","690570","0.0-1.0-742.0","0","0","61754","","null","","","null","82","","NaN","","","","","","","","","","","","","",""
"","response","","html-keyboard-response","512","691070","0.0-1.0-743.0-0.0","0","0","61754","","498","","","75","82","","","2","82","training","adjacent","ED","5","4","L.jpg","M.jpg","0","0","1","",""
"","feedback","","html-keyboard-response","513","692073","0.0-1.0-744.0-0.0","0","0","61754","","null","","","null","82","","","","","","","","","","","","","","","",""
"","ITI","","html-keyboard-response","514","693076","0.0-1.0-747.0","0","0","61754","","null","","","null","82","","","","","","","","","","","","","","","NaN",""
"","S1","","html-keyboard-response","515","693229","0.0-1.0-749.0","0","0","61754","","null","","","null","83","","","","","","","","","","","","","","","",""
"","ISI","","html-keyboard-response","516","695232","0.0-1.0-750.0","0","0","61754","","null","","","null","83","NaN","","","","","","","","","","","","","","",""
"","S2","","html-keyboard-response","517","695386","0.0-1.0-751.0","0","0","61754","","null","","","null","83","","NaN","","","","","","","","","","","","","",""
"","response","","html-keyboard-response","518","695701","0.0-1.0-752.0-0.0","0","0","61754","","313","","","75","83","","","2","83","training","adjacent","BA","2","1","O.jpg","R.jpg","0","0","1","",""
"","feedback","","html-keyboard-response","519","696705","0.0-1.0-753.0-0.0","0","0","61754","","null","","","null","83","","","","","","","","","","","","","","","",""
"","ITI","","html-keyboard-response","520","697708","0.0-1.0-756.0","0","0","61754","","null","","","null","83","","","","","","","","","","","","","","","NaN",""
"","S1","","html-keyboard-response","521","697870","0.0-1.0-758.0","0","0","61754","","null","","","null","84","","","","","","","","","","","","","","","",""
"","ISI","","html-keyboard-response","522","699873","0.0-1.0-759.0","0","0","61754","","null","","","null","84","NaN","","","","","","","","","","","","","","",""
"","S2","","html-keyboard-response","523","700026","0.0-1.0-760.0","0","0","61754","","null","","","null","84","","NaN","","","","","","","","","","","","","",""
"","response","","html-keyboard-response","524","700394","0.0-1.0-761.0-0.0","0","0","61754","","368","","","68","84","","","2","84","training","adjacent","CB","3","2","Q.jpg","O.jpg","1","0","0","",""
"","feedback","","html-keyboard-response","525","701396","0.0-1.0-762.0-0.0","0","0","61754","","null","","","null","84","","","","","","","","","","","","","","","",""
"","time_out","","html-keyboard-response","526","703398","0.0-1.0-764.0-0.0","0","0","61754","","null","","","null","84","","","","","","","","","","","","","","","",""
"","ITI","","html-keyboard-response","527","704400","0.0-1.0-765.0","0","0","61754","","null","","","null","84","","","","","","","","","","","","","","","NaN",""
"","S1","","html-keyboard-response","528","704553","0.0-1.0-767.0","0","0","61754","","null","","","null","85","","","","","","","","","","","","","","","",""
"","ISI","","html-keyboard-response","529","706556","0.0-1.0-768.0","0","0","61754","","null","","","null","85","NaN","","","","","","","","","","","","","","",""
"","S2","","html-keyboard-response","530","706708","0.0-1.0-769.0","0","0","61754","","null","","","null","85","","NaN","","","","","","","","","","","","","",""
"","response","","html-keyboard-response","531","707190","0.0-1.0-770.0-0.0","0","0","61754","","480","","","75","85","","","2","85","training","adjacent","GF","7","6","N.jpg","P.jpg","0","0","1","",""
"","feedback","","html-keyboard-response","532","708193","0.0-1.0-771.0-0.0","0","0","61754","","null","","","null","85","","","","","","","","","","","","","","","",""
"","ITI","","html-keyboard-response","533","709195","0.0-1.0-774.0","0","0","61754","","null","","","null","85","","","","","","","","","","","","","","","NaN",""
"","S1","","html-keyboard-response","534","709347","0.0-1.0-776.0","0","0","61754","","null","","","null","86","","","","","","","","","","","","","","","",""
"","ISI","","html-keyboard-response","535","711349","0.0-1.0-777.0","0","0","61754","","null","","","null","86","NaN","","","","","","","","","","","","","","",""
"","S2","","html-keyboard-response","536","711501","0.0-1.0-778.0","0","0","61754","","null","","","null","86","","NaN","","","","","","","","","","","","","",""
"","response","","html-keyboard-response","537","712037","0.0-1.0-779.0-0.0","0","0","61754","","533","","","75","86","","","2","86","training","adjacent","DC","4","3","M.jpg","Q.jpg","0","0","1","",""
"","feedback","","html-keyboard-response","538","713039","0.0-1.0-780.0-0.0","0","0","61754","","null","","","null","86","","","","","","","","","","","","","","","",""
"","ITI","","html-keyboard-response","539","714041","0.0-1.0-783.0","0","0","61754","","null","","","null","86","","","","","","","","","","","","","","","NaN",""
"","S1","","html-keyboard-response","540","714193","0.0-1.0-785.0","0","0","61754","","null","","","null","87","","","","","","","","","","","","","","","",""
"","ISI","","html-keyboard-response","541","716194","0.0-1.0-786.0","0","0","61754","","null","","","null","87","NaN","","","","","","","","","","","","","","",""
"","S2","","html-keyboard-response","542","716347","0.0-1.0-787.0","0","0","61754","","null","","","null","87","","NaN","","","","","","","","","","","","","",""
"","response","","html-keyboard-response","543","716708","0.0-1.0-788.0-0.0","0","0","61754","","359","","","68","87","","","2","87","training","adjacent","EF","5","6","L.jpg","P.jpg","1","1","1","",""
"","feedback","","html-keyboard-response","544","717710","0.0-1.0-789.0-0.0","0","0","61754","","null","","","null","87","","","","","","","","","","","","","","","",""
"","ITI","","html-keyboard-response","545","718712","0.0-1.0-792.0","0","0","61754","","null","","","null","87","","","","","","","","","","","","","","","NaN",""
"","S1","","html-keyboard-response","546","718866","0.0-1.0-794.0","0","0","61754","","null","","","null","88","","","","","","","","","","","","","","","",""
"","ISI","","html-keyboard-response","547","720868","0.0-1.0-795.0","0","0","61754","","null","","","null","88","NaN","","","","","","","","","","","","","","",""
"","S2","","html-keyboard-response","548","721024","0.0-1.0-796.0","0","0","61754","","null","","","null","88","","NaN","","","","","","","","","","","","","",""
"","response","","html-keyboard-response","549","721307","0.0-1.0-797.0-0.0","0","0","61754","","283","","","75","88","","","2","88","training","adjacent","BA","2","1","O.jpg","R.jpg","0","0","1","",""
"","feedback","","html-keyboard-response","550","722310","0.0-1.0-798.0-0.0","0","0","61754","","null","","","null","88","","","","","","","","","","","","","","","",""
"","ITI","","html-keyboard-response","551","723314","0.0-1.0-801.0","0","0","61754","","null","","","null","88","","","","","","","","","","","","","","","NaN",""
"","S1","","html-keyboard-response","552","723467","0.0-1.0-803.0","0","0","61754","","null","","","null","89","","","","","","","","","","","","","","","",""
"","ISI","","html-keyboard-response","553","725469","0.0-1.0-804.0","0","0","61754","","null","","","null","89","NaN","","","","","","","","","","","","","","",""
"","S2","","html-keyboard-response","554","725622","0.0-1.0-805.0","0","0","61754","","null","","","null","89","","NaN","","","","","","","","","","","","","",""
"","response","","html-keyboard-response","555","726081","0.0-1.0-806.0-0.0","0","0","61754","","458","","","75","89","","","2","89","training","adjacent","ED","5","4","L.jpg","M.jpg","0","0","1","",""
"","feedback","","html-keyboard-response","556","727083","0.0-1.0-807.0-0.0","0","0","61754","","null","","","null","89","","","","","","","","","","","","","","","",""
"","ITI","","html-keyboard-response","557","728086","0.0-1.0-810.0","0","0","61754","","null","","","null","89","","","","","","","","","","","","","","","NaN",""
"","S1","","html-keyboard-response","558","728238","0.0-1.0-812.0","0","0","61754","","null","","","null","90","","","","","","","","","","","","","","","",""
"","ISI","","html-keyboard-response","559","730240","0.0-1.0-813.0","0","0","61754","","null","","","null","90","NaN","","","","","","","","","","","","","","",""
"","S2","","html-keyboard-response","560","730393","0.0-1.0-814.0","0","0","61754","","null","","","null","90","","NaN","","","","","","","","","","","","","",""
"","response","","html-keyboard-response","561","730771","0.0-1.0-815.0-0.0","0","0","61754","","377","","","68","90","","","2","90","training","adjacent","FG","6","7","P.jpg","N.jpg","1","1","1","",""
"","feedback","","html-keyboard-response","562","731776","0.0-1.0-816.0-0.0","0","0","61754","","null","","","null","90","","","","","","","","","","","","","","","",""
"","ITI","","html-keyboard-response","563","732779","0.0-1.0-819.0","0","0","61754","","null","","","null","90","","","","","","","","","","","","","","","NaN",""
"","S1","","html-keyboard-response","564","732931","0.0-1.0-821.0","0","0","61754","","null","","","null","91","","","","","","","","","","","","","","","",""
"","ISI","","html-keyboard-response","565","734934","0.0-1.0-822.0","0","0","61754","","null","","","null","91","NaN","","","","","","","","","","","","","","",""
"","S2","","html-keyboard-response","566","735089","0.0-1.0-823.0","0","0","61754","","null","","","null","91","","NaN","","","","","","","","","","","","","",""
"","response","","html-keyboard-response","567","735290","0.0-1.0-824.0-0.0","0","0","61754","","198","","","75","91","","","2","91","training","adjacent","GF","7","6","N.jpg","P.jpg","0","0","1","",""
"","feedback","","html-keyboard-response","568","736292","0.0-1.0-825.0-0.0","0","0","61754","","null","","","null","91","","","","","","","","","","","","","","","",""
"","ITI","","html-keyboard-response","569","737295","0.0-1.0-828.0","0","0","61754","","null","","","null","91","","","","","","","","","","","","","","","NaN",""
"","S1","","html-keyboard-response","570","737447","0.0-1.0-830.0","0","0","61754","","null","","","null","92","","","","","","","","","","","","","","","",""
"","ISI","","html-keyboard-response","571","739448","0.0-1.0-831.0","0","0","61754","","null","","","null","92","NaN","","","","","","","","","","","","","","",""
"","S2","","html-keyboard-response","572","739613","0.0-1.0-832.0","0","0","61754","","null","","","null","92","","NaN","","","","","","","","","","","","","",""
"","response","","html-keyboard-response","573","739872","0.0-1.0-833.0-0.0","0","0","61754","","258","","","68","92","","","2","92","training","adjacent","BC","2","3","O.jpg","Q.jpg","1","1","1","",""
"","feedback","","html-keyboard-response","574","740876","0.0-1.0-834.0-0.0","0","0","61754","","null","","","null","92","","","","","","","","","","","","","","","",""
"","ITI","","html-keyboard-response","575","741878","0.0-1.0-837.0","0","0","61754","","null","","","null","92","","","","","","","","","","","","","","","NaN",""
"","S1","","html-keyboard-response","576","742031","0.0-1.0-839.0","0","0","61754","","null","","","null","93","","","","","","","","","","","","","","","",""
"","ISI","","html-keyboard-response","577","744032","0.0-1.0-840.0","0","0","61754","","null","","","null","93","NaN","","","","","","","","","","","","","","",""
"","S2","","html-keyboard-response","578","744185","0.0-1.0-841.0","0","0","61754","","null","","","null","93","","NaN","","","","","","","","","","","","","",""
"","response","","html-keyboard-response","579","744502","0.0-1.0-842.0-0.0","0","0","61754","","315","","","68","93","","","2","93","training","adjacent","DE","4","5","M.jpg","L.jpg","1","1","1","",""
"","feedback","","html-keyboard-response","580","745506","0.0-1.0-843.0-0.0","0","0","61754","","null","","","null","93","","","","","","","","","","","","","","","",""
"","ITI","","html-keyboard-response","581","746507","0.0-1.0-846.0","0","0","61754","","null","","","null","93","","","","","","","","","","","","","","","NaN",""
"","S1","","html-keyboard-response","582","746659","0.0-1.0-848.0","0","0","61754","","null","","","null","94","","","","","","","","","","","","","","","",""
