"success","ttype","start_time","trial_type","trial_index","time_elapsed","internal_node_id","warning","missed_checkup","PID","view_history","rt","responses","repeat_instructions","key_press","index","keypress_isi","keypress_S2","block","trial_num","phase","group_type","pair_type","S1_stim","S2_stim","S1_img","S2_img","S1_chosen","S1_higher","accuracy","keypress_iti","total_bonus_tally"
"true","full_screen","d04152023hr2343","fullscreen","0","11314","0.0-0.0","0","0","92665","","","","","","","","","","","","","","","","","","","","","",""
"","instructions","","instructions","1","42565","0.0-1.0-0.0-0.0","0","0","92665","[{""page_index"":0,""viewing_time"":4288},{""page_index"":1,""viewing_time"":14795},{""page_index"":2,""viewing_time"":10469},{""page_index"":3,""viewing_time"":1698}]","31250","","","","","","","","","","","","","","","","","","","",""
"","comprehension_check","","survey-multi-choice","2","60121","0.0-1.0-0.0-1.0","0","0","92665","","17551","{""Q0"":""True"",""Q1"":""D"",""Q2"":""Once the second image appears and while the screen 'MAKE A CHOICE' is shown"",""Q3"":""Green mark"",""Q4"":""either D or K""}","1","","","","","","","","","","","","","","","","","",""
"","missed_instruction_checkup","","html-keyboard-response","3","62400","0.0-1.0-0.0-2.0-0.0","0","1","92665","","2277","","","32","","","","","","","","","","","","","","","","",""
"","instructions","","instructions","4","77935","0.0-1.0-0.1-0.1","0","0","92665","[{""page_index"":0,""viewing_time"":2944},{""page_index"":1,""viewing_time"":10970},{""page_index"":2,""viewing_time"":830},{""page_index"":3,""viewing_time"":790}]","15534","","","","","","","","","","","","","","","","","","","",""
"","comprehension_check","","survey-multi-choice","5","88439","0.0-1.0-0.1-1.1","0","0","92665","","10503","{""Q0"":""True"",""Q1"":""K"",""Q2"":""Once the second image appears and while the screen 'MAKE A CHOICE' is shown"",""Q3"":""Green mark"",""Q4"":""either D or K""}","0","","","","","","","","","","","","","","","","","",""
"","start_exp","","html-keyboard-response","6","90592","0.0-1.0-1.0","0","0","92665","","2150","","","32","","","","","","","","","","","","","","","","",""
"","S1","","html-keyboard-response","7","90846","0.0-1.0-2.0","0","0","92665","","null","","","null","0","","","","","","","","","","","","","","","",""
"","ISI","","html-keyboard-response","8","91849","0.0-1.0-3.0","0","0","92665","","null","","","null","0","NaN","","","","","","","","","","","","","","",""
"","S2","","html-keyboard-response","9","92102","0.0-1.0-4.0","0","0","92665","","null","","","null","0","","NaN","","","","","","","","","","","","","",""
"","response","","html-keyboard-response","10","93008","0.0-1.0-5.0-0.0","0","0","92665","","904","","","75","0","","","1","0","training","adjacent","DE","4","5","O.jpg","L.jpg","1","1","1","",""
"","feedback","","html-keyboard-response","11","94011","0.0-1.0-6.0-0.0","0","0","92665","","null","","","null","0","","","","","","","","","","","","","","","",""
"","ITI","","html-keyboard-response","12","95013","0.0-1.0-9.0","0","0","92665","","null","","","null","0","","","","","","","","","","","","","","","NaN",""
"","S1","","html-keyboard-response","13","95266","0.0-1.0-11.0","0","0","92665","","null","","","null","1","","","","","","","","","","","","","","","",""
"","ISI","","html-keyboard-response","14","96270","0.0-1.0-12.0","0","0","92665","","null","","","null","1","NaN","","","","","","","","","","","","","","",""
"","S2","","html-keyboard-response","15","96522","0.0-1.0-13.0","0","0","92665","","null","","","null","1","","NaN","","","","","","","","","","","","","",""
"","response","","html-keyboard-response","16","97104","0.0-1.0-14.0-0.0","0","0","92665","","581","","","75","1","","","1","1","training","adjacent","BC","2","3","N.jpg","M.jpg","1","1","1","",""
"","feedback","","html-keyboard-response","17","98106","0.0-1.0-15.0-0.0","0","0","92665","","null","","","null","1","","","","","","","","","","","","","","","",""
"","ITI","","html-keyboard-response","18","99109","0.0-1.0-18.0","0","0","92665","","null","","","null","1","","","","","","","","","","","","","","","NaN",""
"","S1","","html-keyboard-response","19","99362","0.0-1.0-20.0","0","0","92665","","null","","","null","2","","","","","","","","","","","","","","","",""
"","ISI","","html-keyboard-response","20","100364","0.0-1.0-21.0","0","0","92665","","null","","","null","2","NaN","","","","","","","","","","","","","","",""
"","S2","","html-keyboard-response","21","100616","0.0-1.0-22.0","0","0","92665","","null","","","null","2","","NaN","","","","","","","","","","","","","",""
"","response","","html-keyboard-response","22","101168","0.0-1.0-23.0-0.0","0","0","92665","","550","","","75","2","","","1","2","training","adjacent","FE","6","5","Q.jpg","L.jpg","1","0","0","",""
"","feedback","","html-keyboard-response","23","102170","0.0-1.0-24.0-0.0","0","0","92665","","null","","","null","2","","","","","","","","","","","","","","","",""
"","time_out","","html-keyboard-response","24","104172","0.0-1.0-26.0-0.0","0","0","92665","","null","","","null","2","","","","","","","","","","","","","","","",""
"","ITI","","html-keyboard-response","25","105175","0.0-1.0-27.0","0","0","92665","","null","","","null","2","","","","","","","","","","","","","","","NaN",""
"","S1","","html-keyboard-response","26","105428","0.0-1.0-29.0","0","0","92665","","null","","","null","3","","","","","","","","","","","","","","","",""
"","ISI","","html-keyboard-response","27","106430","0.0-1.0-30.0","0","0","92665","","null","","","null","3","NaN","","","","","","","","","","","","","","",""
"","S2","","html-keyboard-response","28","106693","0.0-1.0-31.0","0","0","92665","","null","","","null","3","","NaN","","","","","","","","","","","","","",""
"","response","","html-keyboard-response","29","107296","0.0-1.0-32.0-0.0","0","0","92665","","601","","","75","3","","","1","3","training","adjacent","FG","6","7","Q.jpg","R.jpg","1","1","1","",""
"","feedback","","html-keyboard-response","30","108300","0.0-1.0-33.0-0.0","0","0","92665","","null","","","null","3","","","","","","","","","","","","","","","",""
"","ITI","","html-keyboard-response","31","109301","0.0-1.0-36.0","0","0","92665","","null","","","null","3","","","","","","","","","","","","","","","NaN",""
"","S1","","html-keyboard-response","32","109553","0.0-1.0-38.0","0","0","92665","","null","","","null","4","","","","","","","","","","","","","","","",""
"","ISI","","html-keyboard-response","33","110555","0.0-1.0-39.0","0","0","92665","","null","","","null","4","NaN","","","","","","","","","","","","","","",""
"","S2","","html-keyboard-response","34","110807","0.0-1.0-40.0","0","0","92665","","null","","","null","4","","NaN","","","","","","","","","","","","","",""
"","response","","html-keyboard-response","35","111423","0.0-1.0-41.0-0.0","0","0","92665","","614","","","68","4","","","1","4","training","adjacent","FG","6","7","Q.jpg","R.jpg","0","1","0","",""
"","feedback","","html-keyboard-response","36","112425","0.0-1.0-42.0-0.0","0","0","92665","","null","","","null","4","","","","","","","","","","","","","","","",""
"","time_out","","html-keyboard-response","37","114427","0.0-1.0-44.0-0.0","0","0","92665","","null","","","null","4","","","","","","","","","","","","","","","",""
"","ITI","","html-keyboard-response","38","115430","0.0-1.0-45.0","0","0","92665","","null","","","null","4","","","","","","","","","","","","","","","NaN",""
"","S1","","html-keyboard-response","39","115683","0.0-1.0-47.0","0","0","92665","","null","","","null","5","","","","","","","","","","","","","","","",""
"","ISI","","html-keyboard-response","40","116685","0.0-1.0-48.0","0","0","92665","","null","","","null","5","NaN","","","","","","","","","","","","","","",""
"","S2","","html-keyboard-response","41","116938","0.0-1.0-49.0","0","0","92665","","null","","","null","5","","NaN","","","","","","","","","","","","","",""
"","response","","html-keyboard-response","42","117895","0.0-1.0-50.0-0.0","0","0","92665","","956","","","68","5","","","1","5","training","adjacent","ED","5","4","L.jpg","O.jpg","0","0","1","",""
"","feedback","","html-keyboard-response","43","118897","0.0-1.0-51.0-0.0","0","0","92665","","null","","","null","5","","","","","","","","","","","","","","","",""
"","ITI","","html-keyboard-response","44","119900","0.0-1.0-54.0","0","0","92665","","null","","","null","5","","","","","","","","","","","","","","","NaN",""
"","S1","","html-keyboard-response","45","120152","0.0-1.0-56.0","0","0","92665","","null","","","null","6","","","","","","","","","","","","","","","",""
"","ISI","","html-keyboard-response","46","121154","0.0-1.0-57.0","0","0","92665","","null","","","null","6","NaN","","","","","","","","","","","","","","",""
"","S2","","html-keyboard-response","47","121407","0.0-1.0-58.0","0","0","92665","","null","","","null","6","","NaN","","","","","","","","","","","","","",""
"","response","","html-keyboard-response","48","122311","0.0-1.0-59.0-0.0","0","0","92665","","902","","","75","6","","","1","6","training","adjacent","BA","2","1","N.jpg","P.jpg","1","0","0","",""
"","feedback","","html-keyboard-response","49","123313","0.0-1.0-60.0-0.0","0","0","92665","","null","","","null","6","","","","","","","","","","","","","","","",""
"","time_out","","html-keyboard-response","50","125315","0.0-1.0-62.0-0.0","0","0","92665","","null","","","null","6","","","","","","","","","","","","","","","",""
"","ITI","","html-keyboard-response","51","126318","0.0-1.0-63.0","0","0","92665","","null","","","null","6","","","","","","","","","","","","","","","NaN",""
"","S1","","html-keyboard-response","52","126570","0.0-1.0-65.0","0","0","92665","","null","","","null","7","","","","","","","","","","","","","","","",""
"","ISI","","html-keyboard-response","53","127575","0.0-1.0-66.0","0","0","92665","","null","","","null","7","NaN","","","","","","","","","","","","","","",""
"","S2","","html-keyboard-response","54","127827","0.0-1.0-67.0","0","0","92665","","null","","","null","7","","NaN","","","","","","","","","","","","","",""
"","response","","html-keyboard-response","55","128376","0.0-1.0-68.0-0.0","0","0","92665","","547","","","75","7","","","1","7","training","adjacent","DC","4","3","O.jpg","M.jpg","1","0","0","",""
"","feedback","","html-keyboard-response","56","129378","0.0-1.0-69.0-0.0","0","0","92665","","null","","","null","7","","","","","","","","","","","","","","","",""
"","time_out","","html-keyboard-response","57","131381","0.0-1.0-71.0-0.0","0","0","92665","","null","","","null","7","","","","","","","","","","","","","","","",""
"","ITI","","html-keyboard-response","58","132383","0.0-1.0-72.0","0","0","92665","","null","","","null","7","","","","","","","","","","","","","","","NaN",""
"","S1","","html-keyboard-response","59","132636","0.0-1.0-74.0","0","0","92665","","null","","","null","8","","","","","","","","","","","","","","","",""
"","ISI","","html-keyboard-response","60","133638","0.0-1.0-75.0","0","0","92665","","null","","","null","8","NaN","","","","","","","","","","","","","","",""
"","S2","","html-keyboard-response","61","133891","0.0-1.0-76.0","0","0","92665","","null","","","null","8","","NaN","","","","","","","","","","","","","",""
"","response","","html-keyboard-response","62","134664","0.0-1.0-77.0-0.0","0","0","92665","","770","","","68","8","","","1","8","training","adjacent","AB","1","2","P.jpg","N.jpg","0","1","0","",""
"","feedback","","html-keyboard-response","63","135666","0.0-1.0-78.0-0.0","0","0","92665","","null","","","null","8","","","","","","","","","","","","","","","",""
"","time_out","","html-keyboard-response","64","137668","0.0-1.0-80.0-0.0","0","0","92665","","null","","","null","8","","","","","","","","","","","","","","","",""
"","ITI","","html-keyboard-response","65","138671","0.0-1.0-81.0","0","0","92665","","null","","","null","8","","","","","","","","","","","","","","","NaN",""
"","S1","","html-keyboard-response","66","138923","0.0-1.0-83.0","0","0","92665","","null","","","null","9","","","","","","","","","","","","","","","",""
"","ISI","","html-keyboard-response","67","139925","0.0-1.0-84.0","0","0","92665","","null","","","null","9","NaN","","","","","","","","","","","","","","",""
"","S2","","html-keyboard-response","68","140177","0.0-1.0-85.0","0","0","92665","","null","","","null","9","","NaN","","","","","","","","","","","","","",""
"","response","","html-keyboard-response","69","140663","0.0-1.0-86.0-0.0","0","0","92665","","484","","","75","9","","","1","9","training","adjacent","DE","4","5","O.jpg","L.jpg","1","1","1","",""
"","feedback","","html-keyboard-response","70","141666","0.0-1.0-87.0-0.0","0","0","92665","","null","","","null","9","","","","","","","","","","","","","","","",""
"","ITI","","html-keyboard-response","71","142669","0.0-1.0-90.0","0","0","92665","","null","","","null","9","","","","","","","","","","","","","","","NaN",""
"","S1","","html-keyboard-response","72","142921","0.0-1.0-92.0","0","0","92665","","null","","","null","10","","","","","","","","","","","","","","","",""
"","ISI","","html-keyboard-response","73","143925","0.0-1.0-93.0","0","0","92665","","null","","","null","10","NaN","","","","","","","","","","","","","","",""
"","S2","","html-keyboard-response","74","144178","0.0-1.0-94.0","0","0","92665","","null","","","null","10","","NaN","","","","","","","","","","","","","",""
"","response","","html-keyboard-response","75","145079","0.0-1.0-95.0-0.0","0","0","92665","","900","","","75","10","","","1","10","training","adjacent","GF","7","6","R.jpg","Q.jpg","1","0","0","",""
"","feedback","","html-keyboard-response","76","146081","0.0-1.0-96.0-0.0","0","0","92665","","null","","","null","10","","","","","","","","","","","","","","","",""
"","time_out","","html-keyboard-response","77","148083","0.0-1.0-98.0-0.0","0","0","92665","","null","","","null","10","","","","","","","","","","","","","","","",""
"","ITI","","html-keyboard-response","78","149085","0.0-1.0-99.0","0","0","92665","","null","","","null","10","","","","","","","","","","","","","","","NaN",""
"","S1","","html-keyboard-response","79","149338","0.0-1.0-101.0","0","0","92665","","null","","","null","11","","","","","","","","","","","","","","","",""
"","ISI","","html-keyboard-response","80","150340","0.0-1.0-102.0","0","0","92665","","null","","","null","11","NaN","","","","","","","","","","","","","","",""
"","S2","","html-keyboard-response","81","150593","0.0-1.0-103.0","0","0","92665","","null","","","null","11","","NaN","","","","","","","","","","","","","",""
"","response","","html-keyboard-response","82","151239","0.0-1.0-104.0-0.0","0","0","92665","","645","","","68","11","","","1","11","training","adjacent","EF","5","6","L.jpg","Q.jpg","0","1","0","",""
"","feedback","","html-keyboard-response","83","152242","0.0-1.0-105.0-0.0","0","0","92665","","null","","","null","11","","","","","","","","","","","","","","","",""
"","time_out","","html-keyboard-response","84","154245","0.0-1.0-107.0-0.0","0","0","92665","","null","","","null","11","","","","","","","","","","","","","","","",""
"","ITI","","html-keyboard-response","85","155246","0.0-1.0-108.0","0","0","92665","","null","","","null","11","","","","","","","","","","","","","","","NaN",""
"","S1","","html-keyboard-response","86","155508","0.0-1.0-110.0","0","0","92665","","null","","","null","12","","","","","","","","","","","","","","","",""
"","ISI","","html-keyboard-response","87","156511","0.0-1.0-111.0","0","0","92665","","null","","","null","12","NaN","","","","","","","","","","","","","","",""
"","S2","","html-keyboard-response","88","156764","0.0-1.0-112.0","0","0","92665","","null","","","null","12","","NaN","","","","","","","","","","","","","",""
"","response","","html-keyboard-response","89","157679","0.0-1.0-113.0-0.0","0","0","92665","","914","","","68","12","","","1","12","training","adjacent","CD","3","4","M.jpg","O.jpg","0","1","0","",""
"","feedback","","html-keyboard-response","90","158682","0.0-1.0-114.0-0.0","0","0","92665","","null","","","null","12","","","","","","","","","","","","","","","",""
"","time_out","","html-keyboard-response","91","160685","0.0-1.0-116.0-0.0","0","0","92665","","null","","","null","12","","","","","","","","","","","","","","","",""
"","ITI","","html-keyboard-response","92","161687","0.0-1.0-117.0","0","0","92665","","null","","","null","12","","","","","","","","","","","","","","","NaN",""
"","S1","","html-keyboard-response","93","161939","0.0-1.0-119.0","0","0","92665","","null","","","null","13","","","","","","","","","","","","","","","",""
"","ISI","","html-keyboard-response","94","162952","0.0-1.0-120.0","0","0","92665","","null","","","null","13","NaN","","","","","","","","","","","","","","",""
"","S2","","html-keyboard-response","95","163205","0.0-1.0-121.0","0","0","92665","","null","","","null","13","","NaN","","","","","","","","","","","","","",""
"","response","","html-keyboard-response","96","163808","0.0-1.0-122.0-0.0","0","0","92665","","602","","","75","13","","","1","13","training","adjacent","CB","3","2","M.jpg","N.jpg","1","0","0","",""
"","feedback","","html-keyboard-response","97","164810","0.0-1.0-123.0-0.0","0","0","92665","","null","","","null","13","","","","","","","","","","","","","","","",""
"","time_out","","html-keyboard-response","98","166812","0.0-1.0-125.0-0.0","0","0","92665","","null","","","null","13","","","","","","","","","","","","","","","",""
"","ITI","","html-keyboard-response","99","167815","0.0-1.0-126.0","0","0","92665","","null","","","null","13","","","","","","","","","","","","","","","NaN",""
"","S1","","html-keyboard-response","100","168067","0.0-1.0-128.0","0","0","92665","","null","","","null","14","","","","","","","","","","","","","","","",""
"","ISI","","html-keyboard-response","101","169069","0.0-1.0-129.0","0","0","92665","","null","","","null","14","NaN","","","","","","","","","","","","","","",""
"","S2","","html-keyboard-response","102","169322","0.0-1.0-130.0","0","0","92665","","null","","","null","14","","NaN","","","","","","","","","","","","","",""
"","response","","html-keyboard-response","103","169814","0.0-1.0-131.0-0.0","0","0","92665","","491","","","75","14","","","1","14","training","adjacent","BA","2","1","N.jpg","P.jpg","1","0","0","",""
"","feedback","","html-keyboard-response","104","170818","0.0-1.0-132.0-0.0","0","0","92665","","null","","","null","14","","","","","","","","","","","","","","","",""
"","time_out","","html-keyboard-response","105","172819","0.0-1.0-134.0-0.0","0","0","92665","","null","","","null","14","","","","","","","","","","","","","","","",""
"","ITI","","html-keyboard-response","106","173822","0.0-1.0-135.0","0","0","92665","","null","","","null","14","","","","","","","","","","","","","","","NaN",""
"","S1","","html-keyboard-response","107","174075","0.0-1.0-137.0","0","0","92665","","null","","","null","15","","","","","","","","","","","","","","","",""
"","ISI","","html-keyboard-response","108","175078","0.0-1.0-138.0","0","0","92665","","null","","","null","15","NaN","","","","","","","","","","","","","","",""
"","S2","","html-keyboard-response","109","175331","0.0-1.0-139.0","0","0","92665","","null","","","null","15","","NaN","","","","","","","","","","","","","",""
"","response","","html-keyboard-response","110","175879","0.0-1.0-140.0-0.0","0","0","92665","","547","","","68","15","","","1","15","training","adjacent","FE","6","5","Q.jpg","L.jpg","0","0","1","",""
"","feedback","","html-keyboard-response","111","176881","0.0-1.0-141.0-0.0","0","0","92665","","null","","","null","15","","","","","","","","","","","","","","","",""
"","ITI","","html-keyboard-response","112","177883","0.0-1.0-144.0","0","0","92665","","null","","","null","15","","","","","","","","","","","","","","","NaN",""
"","S1","","html-keyboard-response","113","178136","0.0-1.0-146.0","0","0","92665","","null","","","null","16","","","","","","","","","","","","","","","",""
"","ISI","","html-keyboard-response","114","179138","0.0-1.0-147.0","0","0","92665","","null","","","null","16","NaN","","","","","","","","","","","","","","",""
"","S2","","html-keyboard-response","115","179391","0.0-1.0-148.0","0","0","92665","","null","","","null","16","","NaN","","","","","","","","","","","","","",""
"","response","","html-keyboard-response","116","179975","0.0-1.0-149.0-0.0","0","0","92665","","583","","","68","16","","","1","16","training","adjacent","AB","1","2","P.jpg","N.jpg","0","1","0","",""
"","feedback","","html-keyboard-response","117","180977","0.0-1.0-150.0-0.0","0","0","92665","","null","","","null","16","","","","","","","","","","","","","","","",""
"","time_out","","html-keyboard-response","118","182979","0.0-1.0-152.0-0.0","0","0","92665","","null","","","null","16","","","","","","","","","","","","","","","",""
"","ITI","","html-keyboard-response","119","183982","0.0-1.0-153.0","0","0","92665","","null","","","null","16","","","","","","","","","","","","","","","NaN",""
"","S1","","html-keyboard-response","120","184234","0.0-1.0-155.0","0","0","92665","","null","","","null","17","","","","","","","","","","","","","","","",""
"","ISI","","html-keyboard-response","121","185236","0.0-1.0-156.0","0","0","92665","","null","","","null","17","NaN","","","","","","","","","","","","","","",""
"","S2","","html-keyboard-response","122","185489","0.0-1.0-157.0","0","0","92665","","null","","","null","17","","NaN","","","","","","","","","","","","","",""
"","response","","html-keyboard-response","123","185976","0.0-1.0-158.0-0.0","0","0","92665","","485","","","68","17","","","1","17","training","adjacent","GF","7","6","R.jpg","Q.jpg","0","0","1","",""
"","feedback","","html-keyboard-response","124","186979","0.0-1.0-159.0-0.0","0","0","92665","","null","","","null","17","","","","","","","","","","","","","","","",""
"","ITI","","html-keyboard-response","125","187982","0.0-1.0-162.0","0","0","92665","","null","","","null","17","","","","","","","","","","","","","","","NaN",""
"","S1","","html-keyboard-response","126","188235","0.0-1.0-164.0","0","0","92665","","null","","","null","18","","","","","","","","","","","","","","","",""
"","ISI","","html-keyboard-response","127","189238","0.0-1.0-165.0","0","0","92665","","null","","","null","18","NaN","","","","","","","","","","","","","","",""
"","S2","","html-keyboard-response","128","189499","0.0-1.0-166.0","0","0","92665","","null","","","null","18","","NaN","","","","","","","","","","","","","",""
"","response","","html-keyboard-response","129","190295","0.0-1.0-167.0-0.0","0","0","92665","","795","","","75","18","","","1","18","training","adjacent","CB","3","2","M.jpg","N.jpg","1","0","0","",""
"","feedback","","html-keyboard-response","130","191296","0.0-1.0-168.0-0.0","0","0","92665","","null","","","null","18","","","","","","","","","","","","","","","",""
"","time_out","","html-keyboard-response","131","193299","0.0-1.0-170.0-0.0","0","0","92665","","null","","","null","18","","","","","","","","","","","","","","","",""
"","ITI","","html-keyboard-response","132","194301","0.0-1.0-171.0","0","0","92665","","null","","","null","18","","","","","","","","","","","","","","","NaN",""
"","S1","","html-keyboard-response","133","194554","0.0-1.0-173.0","0","0","92665","","null","","","null","19","","","","","","","","","","","","","","","",""
"","ISI","","html-keyboard-response","134","195556","0.0-1.0-174.0","0","0","92665","","null","","","null","19","NaN","","","","","","","","","","","","","","",""
"","S2","","html-keyboard-response","135","195812","0.0-1.0-175.0","0","0","92665","","null","","","null","19","","NaN","","","","","","","","","","","","","",""
"","response","","html-keyboard-response","136","196167","0.0-1.0-176.0-0.0","0","0","92665","","354","","","75","19","","","1","19","training","adjacent","EF","5","6","L.jpg","Q.jpg","1","1","1","",""
"","feedback","","html-keyboard-response","137","197170","0.0-1.0-177.0-0.0","0","0","92665","","null","","","null","19","","","","","","","","","","","","","","","",""
"","ITI","","html-keyboard-response","138","198172","0.0-1.0-180.0","0","0","92665","","null","","","null","19","","","","","","","","","","","","","","","NaN",""
"","S1","","html-keyboard-response","139","198424","0.0-1.0-182.0","0","0","92665","","null","","","null","20","","","","","","","","","","","","","","","",""
"","ISI","","html-keyboard-response","140","199427","0.0-1.0-183.0","0","0","92665","","null","","","null","20","NaN","","","","","","","","","","","","","","",""
"","S2","","html-keyboard-response","141","199680","0.0-1.0-184.0","0","0","92665","","null","","","null","20","","NaN","","","","","","","","","","","","","",""
"","response","","html-keyboard-response","142","200671","0.0-1.0-185.0-0.0","0","0","92665","","989","","","75","20","","","1","20","training","adjacent","ED","5","4","L.jpg","O.jpg","1","0","0","",""
"","feedback","","html-keyboard-response","143","201673","0.0-1.0-186.0-0.0","0","0","92665","","null","","","null","20","","","","","","","","","","","","","","","",""
"","time_out","","html-keyboard-response","144","203676","0.0-1.0-188.0-0.0","0","0","92665","","null","","","null","20","","","","","","","","","","","","","","","",""
"","ITI","","html-keyboard-response","145","204678","0.0-1.0-189.0","0","0","92665","","null","","","null","20","","","","","","","","","","","","","","","NaN",""
"","S1","","html-keyboard-response","146","204932","0.0-1.0-191.0","0","0","92665","","null","","","null","21","","","","","","","","","","","","","","","",""
"","ISI","","html-keyboard-response","147","205935","0.0-1.0-192.0","0","0","92665","","null","","","null","21","NaN","","","","","","","","","","","","","","",""
"","S2","","html-keyboard-response","148","206187","0.0-1.0-193.0","0","0","92665","","null","","","null","21","","NaN","","","","","","","","","","","","","",""
"","response","","html-keyboard-response","149","206583","0.0-1.0-194.0-0.0","0","0","92665","","395","","","68","21","","","1","21","training","adjacent","CD","3","4","M.jpg","O.jpg","0","1","0","",""
"","feedback","","html-keyboard-response","150","207585","0.0-1.0-195.0-0.0","0","0","92665","","null","","","null","21","","","","","","","","","","","","","","","",""
"","time_out","","html-keyboard-response","151","209587","0.0-1.0-197.0-0.0","0","0","92665","","null","","","null","21","","","","","","","","","","","","","","","",""
"","ITI","","html-keyboard-response","152","210590","0.0-1.0-198.0","0","0","92665","","null","","","null","21","","","","","","","","","","","","","","","NaN",""
"","S1","","html-keyboard-response","153","210842","0.0-1.0-200.0","0","0","92665","","null","","","null","22","","","","","","","","","","","","","","","",""
"","ISI","","html-keyboard-response","154","211845","0.0-1.0-201.0","0","0","92665","","null","","","null","22","NaN","","","","","","","","","","","","","","",""
"","S2","","html-keyboard-response","155","212097","0.0-1.0-202.0","0","0","92665","","null","","","null","22","","NaN","","","","","","","","","","","","","",""
"","response","","html-keyboard-response","156","212583","0.0-1.0-203.0-0.0","0","0","92665","","485","","","68","22","","","1","22","training","adjacent","BC","2","3","N.jpg","M.jpg","0","1","0","",""
"","feedback","","html-keyboard-response","157","213585","0.0-1.0-204.0-0.0","0","0","92665","","null","","","null","22","","","","","","","","","","","","","","","",""
"","time_out","","html-keyboard-response","158","215587","0.0-1.0-206.0-0.0","0","0","92665","","null","","","null","22","","","","","","","","","","","","","","","",""
"","ITI","","html-keyboard-response","159","216591","0.0-1.0-207.0","0","0","92665","","null","","","null","22","","","","","","","","","","","","","","","NaN",""
"","S1","","html-keyboard-response","160","216842","0.0-1.0-209.0","0","0","92665","","null","","","null","23","","","","","","","","","","","","","","","",""
"","ISI","","html-keyboard-response","161","217844","0.0-1.0-210.0","0","0","92665","","null","","","null","23","NaN","","","","","","","","","","","","","","",""
"","S2","","html-keyboard-response","162","218097","0.0-1.0-211.0","0","0","92665","","null","","","null","23","","NaN","","","","","","","","","","","","","",""
"","response","","html-keyboard-response","163","218614","0.0-1.0-212.0-0.0","0","0","92665","","516","","","68","23","","","1","23","training","adjacent","DC","4","3","O.jpg","M.jpg","0","0","1","",""
"","feedback","","html-keyboard-response","164","219617","0.0-1.0-213.0-0.0","0","0","92665","","null","","","null","23","","","","","","","","","","","","","","","",""
"","ITI","","html-keyboard-response","165","220620","0.0-1.0-216.0","0","0","92665","","null","","","null","23","","","","","","","","","","","","","","","NaN",""
"","S1","","html-keyboard-response","166","220873","0.0-1.0-218.0","0","0","92665","","null","","","null","24","","","","","","","","","","","","","","","",""
"","ISI","","html-keyboard-response","167","221875","0.0-1.0-219.0","0","0","92665","","null","","","null","24","NaN","","","","","","","","","","","","","","",""
"","S2","","html-keyboard-response","168","222128","0.0-1.0-220.0","0","0","92665","","null","","","null","24","","NaN","","","","","","","","","","","","","",""
"","response","","html-keyboard-response","169","222935","0.0-1.0-221.0-0.0","0","0","92665","","806","","","68","24","","","1","24","training","adjacent","CB","3","2","M.jpg","N.jpg","0","0","1","",""
"","feedback","","html-keyboard-response","170","223938","0.0-1.0-222.0-0.0","0","0","92665","","null","","","null","24","","","","","","","","","","","","","","","",""
"","ITI","","html-keyboard-response","171","224940","0.0-1.0-225.0","0","0","92665","","null","","","null","24","","","","","","","","","","","","","","","NaN",""
"","S1","","html-keyboard-response","172","225192","0.0-1.0-227.0","0","0","92665","","null","","","null","25","","","","","","","","","","","","","","","",""
"","ISI","","html-keyboard-response","173","226195","0.0-1.0-228.0","0","0","92665","","null","","","null","25","NaN","","","","","","","","","","","","","","",""
"","S2","","html-keyboard-response","174","226447","0.0-1.0-229.0","0","0","92665","","null","","","null","25","","NaN","","","","","","","","","","","","","",""
"","response","","html-keyboard-response","175","227031","0.0-1.0-230.0-0.0","0","0","92665","","583","","","68","25","","","1","25","training","adjacent","ED","5","4","L.jpg","O.jpg","0","0","1","",""
"","feedback","","html-keyboard-response","176","228035","0.0-1.0-231.0-0.0","0","0","92665","","null","","","null","25","","","","","","","","","","","","","","","",""
"","ITI","","html-keyboard-response","177","229037","0.0-1.0-234.0","0","0","92665","","null","","","null","25","","","","","","","","","","","","","","","NaN",""
"","S1","","html-keyboard-response","178","229290","0.0-1.0-236.0","0","0","92665","","null","","","null","26","","","","","","","","","","","","","","","",""
"","ISI","","html-keyboard-response","179","230293","0.0-1.0-237.0","0","0","92665","","null","","","null","26","NaN","","","","","","","","","","","","","","",""
"","S2","","html-keyboard-response","180","230546","0.0-1.0-238.0","0","0","92665","","null","","","null","26","","NaN","","","","","","","","","","","","","",""
"","response","","html-keyboard-response","181","231383","0.0-1.0-239.0-0.0","0","0","92665","","836","","","68","26","","","1","26","training","adjacent","FG","6","7","Q.jpg","R.jpg","0","1","0","",""
"","feedback","","html-keyboard-response","182","232385","0.0-1.0-240.0-0.0","0","0","92665","","null","","","null","26","","","","","","","","","","","","","","","",""
"","time_out","","html-keyboard-response","183","234387","0.0-1.0-242.0-0.0","0","0","92665","","null","","","null","26","","","","","","","","","","","","","","","",""
"","ITI","","html-keyboard-response","184","235389","0.0-1.0-243.0","0","0","92665","","null","","","null","26","","","","","","","","","","","","","","","NaN",""
"","S1","","html-keyboard-response","185","235642","0.0-1.0-245.0","0","0","92665","","null","","","null","27","","","","","","","","","","","","","","","",""
"","ISI","","html-keyboard-response","186","236644","0.0-1.0-246.0","0","0","92665","","null","","","null","27","NaN","","","","","","","","","","","","","","",""
"","S2","","html-keyboard-response","187","236896","0.0-1.0-247.0","0","0","92665","","null","","","null","27","","NaN","","","","","","","","","","","","","",""
"","response","","html-keyboard-response","188","237544","0.0-1.0-248.0-0.0","0","0","92665","","646","","","75","27","","","1","27","training","adjacent","BC","2","3","N.jpg","M.jpg","1","1","1","",""
"","feedback","","html-keyboard-response","189","238547","0.0-1.0-249.0-0.0","0","0","92665","","null","","","null","27","","","","","","","","","","","","","","","",""
"","ITI","","html-keyboard-response","190","239548","0.0-1.0-252.0","0","0","92665","","null","","","null","27","","","","","","","","","","","","","","","NaN",""
"","S1","","html-keyboard-response","191","239801","0.0-1.0-254.0","0","0","92665","","null","","","null","28","","","","","","","","","","","","","","","",""
"","ISI","","html-keyboard-response","192","240817","0.0-1.0-255.0","0","0","92665","","null","","","null","28","NaN","","","","","","","","","","","","","","",""
"","S2","","html-keyboard-response","193","241079","0.0-1.0-256.0","0","0","92665","","null","","","null","28","","NaN","","","","","","","","","","","","","",""
"","response","","html-keyboard-response","194","242016","0.0-1.0-257.0-0.0","0","0","92665","","934","","","75","28","","","1","28","training","adjacent","DE","4","5","O.jpg","L.jpg","1","1","1","",""
"","feedback","","html-keyboard-response","195","243027","0.0-1.0-258.0-0.0","0","0","92665","","null","","","null","28","","","","","","","","","","","","","","","",""
"","ITI","","html-keyboard-response","196","244029","0.0-1.0-261.0","0","0","92665","","null","","","null","28","","","","","","","","","","","","","","","NaN",""
"","S1","","html-keyboard-response","197","244282","0.0-1.0-263.0","0","0","92665","","null","","","null","29","","","","","","","","","","","","","","","",""
"","ISI","","html-keyboard-response","198","245284","0.0-1.0-264.0","0","0","92665","","null","","","null","29","NaN","","","","","","","","","","","","","","",""
"","S2","","html-keyboard-response","199","245536","0.0-1.0-265.0","0","0","92665","","null","","","null","29","","NaN","","","","","","","","","","","","","",""
"","response","","html-keyboard-response","200","246303","0.0-1.0-266.0-0.0","0","0","92665","","766","","","75","29","","","1","29","training","adjacent","AB","1","2","P.jpg","N.jpg","1","1","1","",""
"","feedback","","html-keyboard-response","201","247305","0.0-1.0-267.0-0.0","0","0","92665","","null","","","null","29","","","","","","","","","","","","","","","",""
"","ITI","","html-keyboard-response","202","248307","0.0-1.0-270.0","0","0","92665","","null","","","null","29","","","","","","","","","","","","","","","NaN",""
"","S1","","html-keyboard-response","203","248573","0.0-1.0-272.0","0","0","92665","","null","","","null","30","","","","","","","","","","","","","","","",""
"","ISI","","html-keyboard-response","204","249576","0.0-1.0-273.0","0","0","92665","","null","","","null","30","NaN","","","","","","","","","","","","","","",""
"","S2","","html-keyboard-response","205","249836","0.0-1.0-274.0","0","0","92665","","null","","","null","30","","NaN","","","","","","","","","","","","","",""
"","response","","html-keyboard-response","206","250592","0.0-1.0-275.0-0.0","0","0","92665","","755","","","75","30","","","1","30","training","adjacent","FE","6","5","Q.jpg","L.jpg","1","0","0","",""
"","feedback","","html-keyboard-response","207","251594","0.0-1.0-276.0-0.0","0","0","92665","","null","","","null","30","","","","","","","","","","","","","","","",""
"","time_out","","html-keyboard-response","208","253605","0.0-1.0-278.0-0.0","0","0","92665","","null","","","null","30","","","","","","","","","","","","","","","",""
"","ITI","","html-keyboard-response","209","254608","0.0-1.0-279.0","0","0","92665","","null","","","null","30","","","","","","","","","","","","","","","NaN",""
"","S1","","html-keyboard-response","210","254861","0.0-1.0-281.0","0","0","92665","","null","","","null","31","","","","","","","","","","","","","","","",""
"","ISI","","html-keyboard-response","211","255864","0.0-1.0-282.0","0","0","92665","","null","","","null","31","NaN","","","","","","","","","","","","","","",""
"","S2","","html-keyboard-response","212","256116","0.0-1.0-283.0","0","0","92665","","null","","","null","31","","NaN","","","","","","","","","","","","","",""
"","response","","html-keyboard-response","213","256471","0.0-1.0-284.0-0.0","0","0","92665","","354","","","75","31","","","1","31","training","adjacent","ED","5","4","L.jpg","O.jpg","1","0","0","",""
"","feedback","","html-keyboard-response","214","257473","0.0-1.0-285.0-0.0","0","0","92665","","null","","","null","31","","","","","","","","","","","","","","","",""
"","time_out","","html-keyboard-response","215","259476","0.0-1.0-287.0-0.0","0","0","92665","","null","","","null","31","","","","","","","","","","","","","","","",""
"","ITI","","html-keyboard-response","216","260480","0.0-1.0-288.0","0","0","92665","","null","","","null","31","","","","","","","","","","","","","","","NaN",""
"","S1","","html-keyboard-response","217","260732","0.0-1.0-290.0","0","0","92665","","null","","","null","32","","","","","","","","","","","","","","","",""
"","ISI","","html-keyboard-response","218","261735","0.0-1.0-291.0","0","0","92665","","null","","","null","32","NaN","","","","","","","","","","","","","","",""
"","S2","","html-keyboard-response","219","261987","0.0-1.0-292.0","0","0","92665","","null","","","null","32","","NaN","","","","","","","","","","","","","",""
"","response","","html-keyboard-response","220","262375","0.0-1.0-293.0-0.0","0","0","92665","","386","","","75","32","","","1","32","training","adjacent","EF","5","6","L.jpg","Q.jpg","1","1","1","",""
"","feedback","","html-keyboard-response","221","263378","0.0-1.0-294.0-0.0","0","0","92665","","null","","","null","32","","","","","","","","","","","","","","","",""
"","ITI","","html-keyboard-response","222","264381","0.0-1.0-297.0","0","0","92665","","null","","","null","32","","","","","","","","","","","","","","","NaN",""
"","S1","","html-keyboard-response","223","264633","0.0-1.0-299.0","0","0","92665","","null","","","null","33","","","","","","","","","","","","","","","",""
"","ISI","","html-keyboard-response","224","265635","0.0-1.0-300.0","0","0","92665","","null","","","null","33","NaN","","","","","","","","","","","","","","",""
"","S2","","html-keyboard-response","225","265887","0.0-1.0-301.0","0","0","92665","","null","","","null","33","","NaN","","","","","","","","","","","","","",""
"","response","","html-keyboard-response","226","266567","0.0-1.0-302.0-0.0","0","0","92665","","680","","","75","33","","","1","33","training","adjacent","FG","6","7","Q.jpg","R.jpg","1","1","1","",""
"","feedback","","html-keyboard-response","227","267570","0.0-1.0-303.0-0.0","0","0","92665","","null","","","null","33","","","","","","","","","","","","","","","",""
"","ITI","","html-keyboard-response","228","268573","0.0-1.0-306.0","0","0","92665","","null","","","null","33","","","","","","","","","","","","","","","NaN",""
"","S1","","html-keyboard-response","229","268824","0.0-1.0-308.0","0","0","92665","","null","","","null","34","","","","","","","","","","","","","","","",""
"","ISI","","html-keyboard-response","230","269827","0.0-1.0-309.0","0","0","92665","","null","","","null","34","NaN","","","","","","","","","","","","","","",""
"","S2","","html-keyboard-response","231","270082","0.0-1.0-310.0","0","0","92665","","null","","","null","34","","NaN","","","","","","","","","","","","","",""
"","response","","html-keyboard-response","232","270535","0.0-1.0-311.0-0.0","0","0","92665","","452","","","75","34","","","1","34","training","adjacent","EF","5","6","L.jpg","Q.jpg","1","1","1","",""
"","feedback","","html-keyboard-response","233","271537","0.0-1.0-312.0-0.0","0","0","92665","","null","","","null","34","","","","","","","","","","","","","","","",""
"","ITI","","html-keyboard-response","234","272539","0.0-1.0-315.0","0","0","92665","","null","","","null","34","","","","","","","","","","","","","","","NaN",""
"","S1","","html-keyboard-response","235","272792","0.0-1.0-317.0","0","0","92665","","null","","","null","35","","","","","","","","","","","","","","","",""
"","ISI","","html-keyboard-response","236","273794","0.0-1.0-318.0","0","0","92665","","null","","","null","35","NaN","","","","","","","","","","","","","","",""
"","S2","","html-keyboard-response","237","274047","0.0-1.0-319.0","0","0","92665","","null","","","null","35","","NaN","","","","","","","","","","","","","",""
"","response","","html-keyboard-response","238","275080","0.0-1.0-320.0-0.0","0","0","92665","","1031","","","68","35","","","1","35","training","adjacent","CD","3","4","M.jpg","O.jpg","0","1","0","",""
"","feedback","","html-keyboard-response","239","276097","0.0-1.0-321.0-0.0","0","0","92665","","null","","","null","35","","","","","","","","","","","","","","","",""
"","time_out","","html-keyboard-response","240","278099","0.0-1.0-323.0-0.0","0","0","92665","","null","","","null","35","","","","","","","","","","","","","","","",""
"","ITI","","html-keyboard-response","241","279101","0.0-1.0-324.0","0","0","92665","","null","","","null","35","","","","","","","","","","","","","","","NaN",""
"","S1","","html-keyboard-response","242","279353","0.0-1.0-326.0","0","0","92665","","null","","","null","36","","","","","","","","","","","","","","","",""
"","ISI","","html-keyboard-response","243","280355","0.0-1.0-327.0","0","0","92665","","null","","","null","36","NaN","","","","","","","","","","","","","","",""
"","S2","","html-keyboard-response","244","280608","0.0-1.0-328.0","0","0","92665","","null","","","null","36","","NaN","","","","","","","","","","","","","",""
"","response","","html-keyboard-response","245","281145","0.0-1.0-329.0-0.0","0","0","92665","","535","","","75","36","","","1","36","training","adjacent","GF","7","6","R.jpg","Q.jpg","1","0","0","",""
"","feedback","","html-keyboard-response","246","282147","0.0-1.0-330.0-0.0","0","0","92665","","null","","","null","36","","","","","","","","","","","","","","","",""
"","time_out","","html-keyboard-response","247","284149","0.0-1.0-332.0-0.0","0","0","92665","","null","","","null","36","","","","","","","","","","","","","","","",""
"","ITI","","html-keyboard-response","248","285151","0.0-1.0-333.0","0","0","92665","","null","","","null","36","","","","","","","","","","","","","","","NaN",""
"","S1","","html-keyboard-response","249","285404","0.0-1.0-335.0","0","0","92665","","null","","","null","37","","","","","","","","","","","","","","","",""
"","ISI","","html-keyboard-response","250","286407","0.0-1.0-336.0","0","0","92665","","null","","","null","37","NaN","","","","","","","","","","","","","","",""
"","S2","","html-keyboard-response","251","286667","0.0-1.0-337.0","0","0","92665","","null","","","null","37","","NaN","","","","","","","","","","","","","",""
"","response","","html-keyboard-response","252","287119","0.0-1.0-338.0-0.0","0","0","92665","","451","","","75","37","","","1","37","training","adjacent","BA","2","1","N.jpg","P.jpg","1","0","0","",""
"","feedback","","html-keyboard-response","253","288122","0.0-1.0-339.0-0.0","0","0","92665","","null","","","null","37","","","","","","","","","","","","","","","",""
"","time_out","","html-keyboard-response","254","290125","0.0-1.0-341.0-0.0","0","0","92665","","null","","","null","37","","","","","","","","","","","","","","","",""
"","ITI","","html-keyboard-response","255","291127","0.0-1.0-342.0","0","0","92665","","null","","","null","37","","","","","","","","","","","","","","","NaN",""
"","S1","","html-keyboard-response","256","291380","0.0-1.0-344.0","0","0","92665","","null","","","null","38","","","","","","","","","","","","","","","",""
"","ISI","","html-keyboard-response","257","292383","0.0-1.0-345.0","0","0","92665","","null","","","null","38","NaN","","","","","","","","","","","","","","",""
"","S2","","html-keyboard-response","258","292635","0.0-1.0-346.0","0","0","92665","","null","","","null","38","","NaN","","","","","","","","","","","","","",""
"","response","","html-keyboard-response","259","293215","0.0-1.0-347.0-0.0","0","0","92665","","579","","","68","38","","","1","38","training","adjacent","GF","7","6","R.jpg","Q.jpg","0","0","1","",""
"","feedback","","html-keyboard-response","260","294217","0.0-1.0-348.0-0.0","0","0","92665","","null","","","null","38","","","","","","","","","","","","","","","",""
"","ITI","","html-keyboard-response","261","295219","0.0-1.0-351.0","0","0","92665","","null","","","null","38","","","","","","","","","","","","","","","NaN",""
"","S1","","html-keyboard-response","262","295471","0.0-1.0-353.0","0","0","92665","","null","","","null","39","","","","","","","","","","","","","","","",""
"","ISI","","html-keyboard-response","263","296473","0.0-1.0-354.0","0","0","92665","","null","","","null","39","NaN","","","","","","","","","","","","","","",""
"","S2","","html-keyboard-response","264","296726","0.0-1.0-355.0","0","0","92665","","null","","","null","39","","NaN","","","","","","","","","","","","","",""
"","response","","html-keyboard-response","265","297151","0.0-1.0-356.0-0.0","0","0","92665","","423","","","75","39","","","1","39","training","adjacent","DC","4","3","O.jpg","M.jpg","1","0","0","",""
"","feedback","","html-keyboard-response","266","298153","0.0-1.0-357.0-0.0","0","0","92665","","null","","","null","39","","","","","","","","","","","","","","","",""
"","time_out","","html-keyboard-response","267","300156","0.0-1.0-359.0-0.0","0","0","92665","","null","","","null","39","","","","","","","","","","","","","","","",""
"","ITI","","html-keyboard-response","268","301158","0.0-1.0-360.0","0","0","92665","","null","","","null","39","","","","","","","","","","","","","","","NaN",""
"","S1","","html-keyboard-response","269","301411","0.0-1.0-362.0","0","0","92665","","null","","","null","40","","","","","","","","","","","","","","","",""
"","ISI","","html-keyboard-response","270","302414","0.0-1.0-363.0","0","0","92665","","null","","","null","40","NaN","","","","","","","","","","","","","","",""
"","S2","","html-keyboard-response","271","302666","0.0-1.0-364.0","0","0","92665","","null","","","null","40","","NaN","","","","","","","","","","","","","",""
"","response","","html-keyboard-response","272","303031","0.0-1.0-365.0-0.0","0","0","92665","","363","","","75","40","","","1","40","training","adjacent","DC","4","3","O.jpg","M.jpg","1","0","0","",""
"","feedback","","html-keyboard-response","273","304033","0.0-1.0-366.0-0.0","0","0","92665","","null","","","null","40","","","","","","","","","","","","","","","",""
"","time_out","","html-keyboard-response","274","306036","0.0-1.0-368.0-0.0","0","0","92665","","null","","","null","40","","","","","","","","","","","","","","","",""
"","ITI","","html-keyboard-response","275","307038","0.0-1.0-369.0","0","0","92665","","null","","","null","40","","","","","","","","","","","","","","","NaN",""
"","S1","","html-keyboard-response","276","307291","0.0-1.0-371.0","0","0","92665","","null","","","null","41","","","","","","","","","","","","","","","",""
"","ISI","","html-keyboard-response","277","308294","0.0-1.0-372.0","0","0","92665","","null","","","null","41","NaN","","","","","","","","","","","","","","",""
"","S2","","html-keyboard-response","278","308547","0.0-1.0-373.0","0","0","92665","","null","","","null","41","","NaN","","","","","","","","","","","","","",""
"","response","","html-keyboard-response","279","309191","0.0-1.0-374.0-0.0","0","0","92665","","643","","","68","41","","","1","41","training","adjacent","CD","3","4","M.jpg","O.jpg","0","1","0","",""
"","feedback","","html-keyboard-response","280","310193","0.0-1.0-375.0-0.0","0","0","92665","","null","","","null","41","","","","","","","","","","","","","","","",""
"","time_out","","html-keyboard-response","281","312196","0.0-1.0-377.0-0.0","0","0","92665","","null","","","null","41","","","","","","","","","","","","","","","",""
"","ITI","","html-keyboard-response","282","313199","0.0-1.0-378.0","0","0","92665","","null","","","null","41","","","","","","","","","","","","","","","NaN",""
"","S1","","html-keyboard-response","283","313451","0.0-1.0-380.0","0","0","92665","","null","","","null","42","","","","","","","","","","","","","","","",""
"","ISI","","html-keyboard-response","284","314454","0.0-1.0-381.0","0","0","92665","","null","","","null","42","NaN","","","","","","","","","","","","","","",""
"","S2","","html-keyboard-response","285","314706","0.0-1.0-382.0","0","0","92665","","null","","","null","42","","NaN","","","","","","","","","","","","","",""
"","response","","html-keyboard-response","286","315599","0.0-1.0-383.0-0.0","0","0","92665","","892","","","68","42","","","1","42","training","adjacent","BA","2","1","N.jpg","P.jpg","0","0","1","",""
"","feedback","","html-keyboard-response","287","316601","0.0-1.0-384.0-0.0","0","0","92665","","null","","","null","42","","","","","","","","","","","","","","","",""
"","ITI","","html-keyboard-response","288","317604","0.0-1.0-387.0","0","0","92665","","null","","","null","42","","","","","","","","","","","","","","","NaN",""
"","S1","","html-keyboard-response","289","317856","0.0-1.0-389.0","0","0","92665","","null","","","null","43","","","","","","","","","","","","","","","",""
"","ISI","","html-keyboard-response","290","318859","0.0-1.0-390.0","0","0","92665","","null","","","null","43","NaN","","","","","","","","","","","","","","",""
"","S2","","html-keyboard-response","291","319112","0.0-1.0-391.0","0","0","92665","","null","","","null","43","","NaN","","","","","","","","","","","","","",""
"","response","","html-keyboard-response","292","319607","0.0-1.0-392.0-0.0","0","0","92665","","493","","","68","43","","","1","43","training","adjacent","BC","2","3","N.jpg","M.jpg","0","1","0","",""
"","feedback","","html-keyboard-response","293","320610","0.0-1.0-393.0-0.0","0","0","92665","","null","","","null","43","","","","","","","","","","","","","","","",""
"","time_out","","html-keyboard-response","294","322619","0.0-1.0-395.0-0.0","0","0","92665","","null","","","null","43","","","","","","","","","","","","","","","",""
"","ITI","","html-keyboard-response","295","323621","0.0-1.0-396.0","0","0","92665","","null","","","null","43","","","","","","","","","","","","","","","NaN",""
"","S1","","html-keyboard-response","296","323874","0.0-1.0-398.0","0","0","92665","","null","","","null","44","","","","","","","","","","","","","","","",""
"","ISI","","html-keyboard-response","297","324877","0.0-1.0-399.0","0","0","92665","","null","","","null","44","NaN","","","","","","","","","","","","","","",""
"","S2","","html-keyboard-response","298","325132","0.0-1.0-400.0","0","0","92665","","null","","","null","44","","NaN","","","","","","","","","","","","","",""
"","response","","html-keyboard-response","299","326528","0.0-1.0-401.0-0.0","0","0","92665","","1395","","","75","44","","","1","44","training","adjacent","FE","6","5","Q.jpg","L.jpg","1","0","0","",""
"","feedback","","html-keyboard-response","300","327532","0.0-1.0-402.0-0.0","0","0","92665","","null","","","null","44","","","","","","","","","","","","","","","",""
"","time_out","","html-keyboard-response","301","329535","0.0-1.0-404.0-0.0","0","0","92665","","null","","","null","44","","","","","","","","","","","","","","","",""
"","ITI","","html-keyboard-response","302","330536","0.0-1.0-405.0","0","0","92665","","null","","","null","44","","","","","","","","","","","","","","","NaN",""
"","S1","","html-keyboard-response","303","330788","0.0-1.0-407.0","0","0","92665","","null","","","null","45","","","","","","","","","","","","","","","",""
"","ISI","","html-keyboard-response","304","331800","0.0-1.0-408.0","0","0","92665","","null","","","null","45","NaN","","","","","","","","","","","","","","",""
"","S2","","html-keyboard-response","305","332052","0.0-1.0-409.0","0","0","92665","","null","","","null","45","","NaN","","","","","","","","","","","","","",""
"","response","","html-keyboard-response","306","332528","0.0-1.0-410.0-0.0","0","0","92665","","475","","","68","45","","","1","45","training","adjacent","AB","1","2","P.jpg","N.jpg","0","1","0","",""
"","feedback","","html-keyboard-response","307","333538","0.0-1.0-411.0-0.0","0","0","92665","","null","","","null","45","","","","","","","","","","","","","","","",""
"","time_out","","html-keyboard-response","308","335540","0.0-1.0-413.0-0.0","0","0","92665","","null","","","null","45","","","","","","","","","","","","","","","",""
"","ITI","","html-keyboard-response","309","336543","0.0-1.0-414.0","0","0","92665","","null","","","null","45","","","","","","","","","","","","","","","NaN",""
"","S1","","html-keyboard-response","310","336796","0.0-1.0-416.0","0","0","92665","","null","","","null","46","","","","","","","","","","","","","","","",""
"","ISI","","html-keyboard-response","311","337798","0.0-1.0-417.0","0","0","92665","","null","","","null","46","NaN","","","","","","","","","","","","","","",""
"","S2","","html-keyboard-response","312","338050","0.0-1.0-418.0","0","0","92665","","null","","","null","46","","NaN","","","","","","","","","","","","","",""
"","response","","html-keyboard-response","313","338561","0.0-1.0-419.0-0.0","0","0","92665","","509","","","75","46","","","1","46","training","adjacent","CB","3","2","M.jpg","N.jpg","1","0","0","",""
"","feedback","","html-keyboard-response","314","339563","0.0-1.0-420.0-0.0","0","0","92665","","null","","","null","46","","","","","","","","","","","","","","","",""
"","time_out","","html-keyboard-response","315","341566","0.0-1.0-422.0-0.0","0","0","92665","","null","","","null","46","","","","","","","","","","","","","","","",""
"","ITI","","html-keyboard-response","316","342569","0.0-1.0-423.0","0","0","92665","","null","","","null","46","","","","","","","","","","","","","","","NaN",""
"","S1","","html-keyboard-response","317","342821","0.0-1.0-425.0","0","0","92665","","null","","","null","47","","","","","","","","","","","","","","","",""
"","ISI","","html-keyboard-response","318","343823","0.0-1.0-426.0","0","0","92665","","null","","","null","47","NaN","","","","","","","","","","","","","","",""
"","S2","","html-keyboard-response","319","344075","0.0-1.0-427.0","0","0","92665","","null","","","null","47","","NaN","","","","","","","","","","","","","",""
"","response","","html-keyboard-response","320","344975","0.0-1.0-428.0-0.0","0","0","92665","","899","","","68","47","","","1","47","training","adjacent","DE","4","5","O.jpg","L.jpg","0","1","0","",""
"","feedback","","html-keyboard-response","321","345977","0.0-1.0-429.0-0.0","0","0","92665","","null","","","null","47","","","","","","","","","","","","","","","",""
"","time_out","","html-keyboard-response","322","347980","0.0-1.0-431.0-0.0","0","0","92665","","null","","","null","47","","","","","","","","","","","","","","","",""
"","ITI","","html-keyboard-response","323","348983","0.0-1.0-432.0","0","0","92665","","null","","","null","47","","","","","","","","","","","","","","","NaN",""
"","block_over","","html-keyboard-response","324","454159","0.0-1.0-433.0-0.0","0","0","92665","","105175","","","32","47","","","","","","","","","","","","","","","",""
"","S1","","html-keyboard-response","325","454412","0.0-1.0-434.0","0","0","92665","","null","","","null","48","","","","","","","","","","","","","","","",""
"","ISI","","html-keyboard-response","326","455415","0.0-1.0-435.0","0","0","92665","","null","","","null","48","NaN","","","","","","","","","","","","","","",""
"","S2","","html-keyboard-response","327","455667","0.0-1.0-436.0","0","0","92665","","null","","","null","48","","NaN","","","","","","","","","","","","","",""
"","response","","html-keyboard-response","328","456503","0.0-1.0-437.0-0.0","0","0","92665","","835","","","75","48","","","2","48","training","adjacent","EF","5","6","L.jpg","Q.jpg","1","1","1","",""
"","feedback","","html-keyboard-response","329","457506","0.0-1.0-438.0-0.0","0","0","92665","","null","","","null","48","","","","","","","","","","","","","","","",""
"","ITI","","html-keyboard-response","330","458508","0.0-1.0-441.0","0","0","92665","","null","","","null","48","","","","","","","","","","","","","","","NaN",""
"","S1","","html-keyboard-response","331","458762","0.0-1.0-443.0","0","0","92665","","null","","","null","49","","","","","","","","","","","","","","","",""
"","ISI","","html-keyboard-response","332","459774","0.0-1.0-444.0","0","0","92665","","null","","","null","49","NaN","","","","","","","","","","","","","","",""
"","S2","","html-keyboard-response","333","460027","0.0-1.0-445.0","0","0","92665","","null","","","null","49","","NaN","","","","","","","","","","","","","",""
"","response","","html-keyboard-response","334","461551","0.0-1.0-446.0-0.0","0","0","92665","","1522","","","68","49","","","2","49","training","adjacent","FE","6","5","Q.jpg","L.jpg","0","0","1","",""
"","feedback","","html-keyboard-response","335","462553","0.0-1.0-447.0-0.0","0","0","92665","","null","","","null","49","","","","","","","","","","","","","","","",""
"","ITI","","html-keyboard-response","336","463555","0.0-1.0-450.0","0","0","92665","","null","","","null","49","","","","","","","","","","","","","","","NaN",""
"","S1","","html-keyboard-response","337","463807","0.0-1.0-452.0","0","0","92665","","null","","","null","50","","","","","","","","","","","","","","","",""
"","ISI","","html-keyboard-response","338","464809","0.0-1.0-453.0","0","0","92665","","null","","","null","50","NaN","","","","","","","","","","","","","","",""
"","S2","","html-keyboard-response","339","465061","0.0-1.0-454.0","0","0","92665","","null","","","null","50","","NaN","","","","","","","","","","","","","",""
"","response","","html-keyboard-response","340","466031","0.0-1.0-455.0-0.0","0","0","92665","","968","","","68","50","","","2","50","training","adjacent","AB","1","2","P.jpg","N.jpg","0","1","0","",""
"","feedback","","html-keyboard-response","341","467034","0.0-1.0-456.0-0.0","0","0","92665","","null","","","null","50","","","","","","","","","","","","","","","",""
"","time_out","","html-keyboard-response","342","469036","0.0-1.0-458.0-0.0","0","0","92665","","null","","","null","50","","","","","","","","","","","","","","","",""
"","ITI","","html-keyboard-response","343","470037","0.0-1.0-459.0","0","0","92665","","null","","","null","50","","","","","","","","","","","","","","","NaN",""
"","S1","","html-keyboard-response","344","470290","0.0-1.0-461.0","0","0","92665","","null","","","null","51","","","","","","","","","","","","","","","",""
"","ISI","","html-keyboard-response","345","471294","0.0-1.0-462.0","0","0","92665","","null","","","null","51","NaN","","","","","","","","","","","","","","",""
"","S2","","html-keyboard-response","346","471546","0.0-1.0-463.0","0","0","92665","","null","","","null","51","","NaN","","","","","","","","","","","","","",""
"","response","","html-keyboard-response","347","472416","0.0-1.0-464.0-0.0","0","0","92665","","867","","","68","51","","","2","51","training","adjacent","ED","5","4","L.jpg","O.jpg","0","0","1","",""
"","feedback","","html-keyboard-response","348","473429","0.0-1.0-465.0-0.0","0","0","92665","","null","","","null","51","","","","","","","","","","","","","","","",""
"","ITI","","html-keyboard-response","349","474431","0.0-1.0-468.0","0","0","92665","","null","","","null","51","","","","","","","","","","","","","","","NaN",""
"","S1","","html-keyboard-response","350","474683","0.0-1.0-470.0","0","0","92665","","null","","","null","52","","","","","","","","","","","","","","","",""
"","ISI","","html-keyboard-response","351","475685","0.0-1.0-471.0","0","0","92665","","null","","","null","52","NaN","","","","","","","","","","","","","","",""
"","S2","","html-keyboard-response","352","475937","0.0-1.0-472.0","0","0","92665","","null","","","null","52","","NaN","","","","","","","","","","","","","",""
"","response","","html-keyboard-response","353","477087","0.0-1.0-473.0-0.0","0","0","92665","","1149","","","75","52","","","2","52","training","adjacent","CB","3","2","M.jpg","N.jpg","1","0","0","",""
"","feedback","","html-keyboard-response","354","478089","0.0-1.0-474.0-0.0","0","0","92665","","null","","","null","52","","","","","","","","","","","","","","","",""
"","time_out","","html-keyboard-response","355","480091","0.0-1.0-476.0-0.0","0","0","92665","","null","","","null","52","","","","","","","","","","","","","","","",""
"","ITI","","html-keyboard-response","356","481095","0.0-1.0-477.0","0","0","92665","","null","","","null","52","","","","","","","","","","","","","","","NaN",""
"","S1","","html-keyboard-response","357","481348","0.0-1.0-479.0","0","0","92665","","null","","","null","53","","","","","","","","","","","","","","","",""
"","ISI","","html-keyboard-response","358","482350","0.0-1.0-480.0","0","0","92665","","null","","","null","53","NaN","","","","","","","","","","","","","","",""
"","S2","","html-keyboard-response","359","482603","0.0-1.0-481.0","0","0","92665","","null","","","null","53","","NaN","","","","","","","","","","","","","",""
"","response","","html-keyboard-response","360","483848","0.0-1.0-482.0-0.0","0","0","92665","","1243","","","75","53","","","2","53","training","adjacent","CD","3","4","M.jpg","O.jpg","1","1","1","",""
"","feedback","","html-keyboard-response","361","484850","0.0-1.0-483.0-0.0","0","0","92665","","null","","","null","53","","","","","","","","","","","","","","","",""
"","ITI","","html-keyboard-response","362","485852","0.0-1.0-486.0","0","0","92665","","null","","","null","53","","","","","","","","","","","","","","","NaN",""
"","S1","","html-keyboard-response","363","486105","0.0-1.0-488.0","0","0","92665","","null","","","null","54","","","","","","","","","","","","","","","",""
"","ISI","","html-keyboard-response","364","487108","0.0-1.0-489.0","0","0","92665","","null","","","null","54","NaN","","","","","","","","","","","","","","",""
"","S2","","html-keyboard-response","365","487362","0.0-1.0-490.0","0","0","92665","","null","","","null","54","","NaN","","","","","","","","","","","","","",""
"","response","","html-keyboard-response","366","488551","0.0-1.0-491.0-0.0","0","0","92665","","1188","","","75","54","","","2","54","training","adjacent","FG","6","7","Q.jpg","R.jpg","1","1","1","",""
"","feedback","","html-keyboard-response","367","489554","0.0-1.0-492.0-0.0","0","0","92665","","null","","","null","54","","","","","","","","","","","","","","","",""
"","ITI","","html-keyboard-response","368","490571","0.0-1.0-495.0","0","0","92665","","null","","","null","54","","","","","","","","","","","","","","","NaN",""
"","S1","","html-keyboard-response","369","490823","0.0-1.0-497.0","0","0","92665","","null","","","null","55","","","","","","","","","","","","","","","",""
"","ISI","","html-keyboard-response","370","491825","0.0-1.0-498.0","0","0","92665","","null","","","null","55","NaN","","","","","","","","","","","","","","",""
"","S2","","html-keyboard-response","371","492079","0.0-1.0-499.0","0","0","92665","","null","","","null","55","","NaN","","","","","","","","","","","","","",""
"","response","","html-keyboard-response","372","492743","0.0-1.0-500.0-0.0","0","0","92665","","663","","","75","55","","","2","55","training","adjacent","BA","2","1","N.jpg","P.jpg","1","0","0","",""
"","feedback","","html-keyboard-response","373","493745","0.0-1.0-501.0-0.0","0","0","92665","","null","","","null","55","","","","","","","","","","","","","","","",""
"","time_out","","html-keyboard-response","374","495748","0.0-1.0-503.0-0.0","0","0","92665","","null","","","null","55","","","","","","","","","","","","","","","",""
"","ITI","","html-keyboard-response","375","496751","0.0-1.0-504.0","0","0","92665","","null","","","null","55","","","","","","","","","","","","","","","NaN",""
"","S1","","html-keyboard-response","376","497002","0.0-1.0-506.0","0","0","92665","","null","","","null","56","","","","","","","","","","","","","","","",""
"","ISI","","html-keyboard-response","377","498004","0.0-1.0-507.0","0","0","92665","","null","","","null","56","NaN","","","","","","","","","","","","","","",""
"","S2","","html-keyboard-response","378","498256","0.0-1.0-508.0","0","0","92665","","null","","","null","56","","NaN","","","","","","","","","","","","","",""
"","response","","html-keyboard-response","379","498807","0.0-1.0-509.0-0.0","0","0","92665","","550","","","75","56","","","2","56","training","adjacent","BA","2","1","N.jpg","P.jpg","1","0","0","",""
"","feedback","","html-keyboard-response","380","499809","0.0-1.0-510.0-0.0","0","0","92665","","null","","","null","56","","","","","","","","","","","","","","","",""
"","time_out","","html-keyboard-response","381","501811","0.0-1.0-512.0-0.0","0","0","92665","","null","","","null","56","","","","","","","","","","","","","","","",""
"","ITI","","html-keyboard-response","382","502814","0.0-1.0-513.0","0","0","92665","","null","","","null","56","","","","","","","","","","","","","","","NaN",""
"","S1","","html-keyboard-response","383","503067","0.0-1.0-515.0","0","0","92665","","null","","","null","57","","","","","","","","","","","","","","","",""
"","ISI","","html-keyboard-response","384","504070","0.0-1.0-516.0","0","0","92665","","null","","","null","57","NaN","","","","","","","","","","","","","","",""
"","S2","","html-keyboard-response","385","504322","0.0-1.0-517.0","0","0","92665","","null","","","null","57","","NaN","","","","","","","","","","","","","",""
"","response","","html-keyboard-response","386","505480","0.0-1.0-518.0-0.0","0","0","92665","","1156","","","75","57","","","2","57","training","adjacent","GF","7","6","R.jpg","Q.jpg","1","0","0","",""
"","feedback","","html-keyboard-response","387","506482","0.0-1.0-519.0-0.0","0","0","92665","","null","","","null","57","","","","","","","","","","","","","","","",""
"","time_out","","html-keyboard-response","388","508485","0.0-1.0-521.0-0.0","0","0","92665","","null","","","null","57","","","","","","","","","","","","","","","",""
"","ITI","","html-keyboard-response","389","509486","0.0-1.0-522.0","0","0","92665","","null","","","null","57","","","","","","","","","","","","","","","NaN",""
"","S1","","html-keyboard-response","390","509740","0.0-1.0-524.0","0","0","92665","","null","","","null","58","","","","","","","","","","","","","","","",""
"","ISI","","html-keyboard-response","391","510756","0.0-1.0-525.0","0","0","92665","","null","","","null","58","NaN","","","","","","","","","","","","","","",""
"","S2","","html-keyboard-response","392","511008","0.0-1.0-526.0","0","0","92665","","null","","","null","58","","NaN","","","","","","","","","","","","","",""
"","response","","html-keyboard-response","393","511704","0.0-1.0-527.0-0.0","0","0","92665","","695","","","68","58","","","2","58","training","adjacent","AB","1","2","P.jpg","N.jpg","0","1","0","",""
"","feedback","","html-keyboard-response","394","512708","0.0-1.0-528.0-0.0","0","0","92665","","null","","","null","58","","","","","","","","","","","","","","","",""
"","time_out","","html-keyboard-response","395","514710","0.0-1.0-530.0-0.0","0","0","92665","","null","","","null","58","","","","","","","","","","","","","","","",""
"","ITI","","html-keyboard-response","396","515712","0.0-1.0-531.0","0","0","92665","","null","","","null","58","","","","","","","","","","","","","","","NaN",""
"","S1","","html-keyboard-response","397","515965","0.0-1.0-533.0","0","0","92665","","null","","","null","59","","","","","","","","","","","","","","","",""
"","ISI","","html-keyboard-response","398","516968","0.0-1.0-534.0","0","0","92665","","null","","","null","59","NaN","","","","","","","","","","","","","","",""
"","S2","","html-keyboard-response","399","517221","0.0-1.0-535.0","0","0","92665","","null","","","null","59","","NaN","","","","","","","","","","","","","",""
"","response","","html-keyboard-response","400","517959","0.0-1.0-536.0-0.0","0","0","92665","","737","","","68","59","","","2","59","training","adjacent","ED","5","4","L.jpg","O.jpg","0","0","1","",""
"","feedback","","html-keyboard-response","401","518962","0.0-1.0-537.0-0.0","0","0","92665","","null","","","null","59","","","","","","","","","","","","","","","",""
"","ITI","","html-keyboard-response","402","519965","0.0-1.0-540.0","0","0","92665","","null","","","null","59","","","","","","","","","","","","","","","NaN",""
"","S1","","html-keyboard-response","403","520218","0.0-1.0-542.0","0","0","92665","","null","","","null","60","","","","","","","","","","","","","","","",""
"","ISI","","html-keyboard-response","404","521220","0.0-1.0-543.0","0","0","92665","","null","","","null","60","NaN","","","","","","","","","","","","","","",""
"","S2","","html-keyboard-response","405","521472","0.0-1.0-544.0","0","0","92665","","null","","","null","60","","NaN","","","","","","","","","","","","","",""
"","response","","html-keyboard-response","406","522528","0.0-1.0-545.0-0.0","0","0","92665","","1054","","","68","60","","","2","60","training","adjacent","FG","6","7","Q.jpg","R.jpg","0","1","0","",""
"","feedback","","html-keyboard-response","407","523531","0.0-1.0-546.0-0.0","0","0","92665","","null","","","null","60","","","","","","","","","","","","","","","",""
"","time_out","","html-keyboard-response","408","525534","0.0-1.0-548.0-0.0","0","0","92665","","null","","","null","60","","","","","","","","","","","","","","","",""
"","ITI","","html-keyboard-response","409","526536","0.0-1.0-549.0","0","0","92665","","null","","","null","60","","","","","","","","","","","","","","","NaN",""
"","S1","","html-keyboard-response","410","526788","0.0-1.0-551.0","0","0","92665","","null","","","null","61","","","","","","","","","","","","","","","",""
"","ISI","","html-keyboard-response","411","527800","0.0-1.0-552.0","0","0","92665","","null","","","null","61","NaN","","","","","","","","","","","","","","",""
"","S2","","html-keyboard-response","412","528052","0.0-1.0-553.0","0","0","92665","","null","","","null","61","","NaN","","","","","","","","","","","","","",""
"","response","","html-keyboard-response","413","528471","0.0-1.0-554.0-0.0","0","0","92665","","418","","","75","61","","","2","61","training","adjacent","CB","3","2","M.jpg","N.jpg","1","0","0","",""
"","feedback","","html-keyboard-response","414","529474","0.0-1.0-555.0-0.0","0","0","92665","","null","","","null","61","","","","","","","","","","","","","","","",""
"","time_out","","html-keyboard-response","415","531476","0.0-1.0-557.0-0.0","0","0","92665","","null","","","null","61","","","","","","","","","","","","","","","",""
"","ITI","","html-keyboard-response","416","532480","0.0-1.0-558.0","0","0","92665","","null","","","null","61","","","","","","","","","","","","","","","NaN",""
"","S1","","html-keyboard-response","417","532732","0.0-1.0-560.0","0","0","92665","","null","","","null","62","","","","","","","","","","","","","","","",""
"","ISI","","html-keyboard-response","418","533734","0.0-1.0-561.0","0","0","92665","","null","","","null","62","NaN","","","","","","","","","","","","","","",""
"","S2","","html-keyboard-response","419","533987","0.0-1.0-562.0","0","0","92665","","null","","","null","62","","NaN","","","","","","","","","","","","","",""
"","response","","html-keyboard-response","420","534600","0.0-1.0-563.0-0.0","0","0","92665","","611","","","68","62","","","2","62","training","adjacent","FE","6","5","Q.jpg","L.jpg","0","0","1","",""
"","feedback","","html-keyboard-response","421","535603","0.0-1.0-564.0-0.0","0","0","92665","","null","","","null","62","","","","","","","","","","","","","","","",""
"","ITI","","html-keyboard-response","422","536605","0.0-1.0-567.0","0","0","92665","","null","","","null","62","","","","","","","","","","","","","","","NaN",""
"","S1","","html-keyboard-response","423","536858","0.0-1.0-569.0","0","0","92665","","null","","","null","63","","","","","","","","","","","","","","","",""
"","ISI","","html-keyboard-response","424","537861","0.0-1.0-570.0","0","0","92665","","null","","","null","63","NaN","","","","","","","","","","","","","","",""
"","S2","","html-keyboard-response","425","538113","0.0-1.0-571.0","0","0","92665","","null","","","null","63","","NaN","","","","","","","","","","","","","",""
"","response","","html-keyboard-response","426","539271","0.0-1.0-572.0-0.0","0","0","92665","","1157","","","75","63","","","2","63","training","adjacent","EF","5","6","L.jpg","Q.jpg","1","1","1","",""
"","feedback","","html-keyboard-response","427","540274","0.0-1.0-573.0-0.0","0","0","92665","","null","","","null","63","","","","","","","","","","","","","","","",""
"","ITI","","html-keyboard-response","428","541276","0.0-1.0-576.0","0","0","92665","","null","","","null","63","","","","","","","","","","","","","","","NaN",""
"","S1","","html-keyboard-response","429","541529","0.0-1.0-578.0","0","0","92665","","null","","","null","64","","","","","","","","","","","","","","","",""
"","ISI","","html-keyboard-response","430","542531","0.0-1.0-579.0","0","0","92665","","null","","","null","64","NaN","","","","","","","","","","","","","","",""
"","S2","","html-keyboard-response","431","542784","0.0-1.0-580.0","0","0","92665","","null","","","null","64","","NaN","","","","","","","","","","","","","",""
"","response","","html-keyboard-response","432","543583","0.0-1.0-581.0-0.0","0","0","92665","","798","","","75","64","","","2","64","training","adjacent","BC","2","3","N.jpg","M.jpg","1","1","1","",""
"","feedback","","html-keyboard-response","433","544585","0.0-1.0-582.0-0.0","0","0","92665","","null","","","null","64","","","","","","","","","","","","","","","",""
"","ITI","","html-keyboard-response","434","545588","0.0-1.0-585.0","0","0","92665","","null","","","null","64","","","","","","","","","","","","","","","NaN",""
"","S1","","html-keyboard-response","435","545840","0.0-1.0-587.0","0","0","92665","","null","","","null","65","","","","","","","","","","","","","","","",""
"","ISI","","html-keyboard-response","436","546855","0.0-1.0-588.0","0","0","92665","","null","","","null","65","NaN","","","","","","","","","","","","","","",""
"","S2","","html-keyboard-response","437","547107","0.0-1.0-589.0","0","0","92665","","null","","","null","65","","NaN","","","","","","","","","","","","","",""
"","response","","html-keyboard-response","438","548064","0.0-1.0-590.0-0.0","0","0","92665","","955","","","75","65","","","2","65","training","adjacent","FG","6","7","Q.jpg","R.jpg","1","1","1","",""
"","feedback","","html-keyboard-response","439","549067","0.0-1.0-591.0-0.0","0","0","92665","","null","","","null","65","","","","","","","","","","","","","","","",""
"","ITI","","html-keyboard-response","440","550070","0.0-1.0-594.0","0","0","92665","","null","","","null","65","","","","","","","","","","","","","","","NaN",""
"","S1","","html-keyboard-response","441","550323","0.0-1.0-596.0","0","0","92665","","null","","","null","66","","","","","","","","","","","","","","","",""
"","ISI","","html-keyboard-response","442","551325","0.0-1.0-597.0","0","0","92665","","null","","","null","66","NaN","","","","","","","","","","","","","","",""
"","S2","","html-keyboard-response","443","551578","0.0-1.0-598.0","0","0","92665","","null","","","null","66","","NaN","","","","","","","","","","","","","",""
"","response","","html-keyboard-response","444","552735","0.0-1.0-599.0-0.0","0","0","92665","","1155","","","75","66","","","2","66","training","adjacent","DE","4","5","O.jpg","L.jpg","1","1","1","",""
"","feedback","","html-keyboard-response","445","553739","0.0-1.0-600.0-0.0","0","0","92665","","null","","","null","66","","","","","","","","","","","","","","","",""
"","ITI","","html-keyboard-response","446","554741","0.0-1.0-603.0","0","0","92665","","null","","","null","66","","","","","","","","","","","","","","","NaN",""
"","S1","","html-keyboard-response","447","554993","0.0-1.0-605.0","0","0","92665","","null","","","null","67","","","","","","","","","","","","","","","",""
"","ISI","","html-keyboard-response","448","555996","0.0-1.0-606.0","0","0","92665","","null","","","null","67","NaN","","","","","","","","","","","","","","",""
"","S2","","html-keyboard-response","449","556249","0.0-1.0-607.0","0","0","92665","","null","","","null","67","","NaN","","","","","","","","","","","","","",""
"","response","","html-keyboard-response","450","557055","0.0-1.0-608.0-0.0","0","0","92665","","805","","","75","67","","","2","67","training","adjacent","DC","4","3","O.jpg","M.jpg","1","0","0","",""
"","feedback","","html-keyboard-response","451","558057","0.0-1.0-609.0-0.0","0","0","92665","","null","","","null","67","","","","","","","","","","","","","","","",""
"","time_out","","html-keyboard-response","452","560060","0.0-1.0-611.0-0.0","0","0","92665","","null","","","null","67","","","","","","","","","","","","","","","",""
"","ITI","","html-keyboard-response","453","561063","0.0-1.0-612.0","0","0","92665","","null","","","null","67","","","","","","","","","","","","","","","NaN",""
"","S1","","html-keyboard-response","454","561315","0.0-1.0-614.0","0","0","92665","","null","","","null","68","","","","","","","","","","","","","","","",""
"","ISI","","html-keyboard-response","455","562318","0.0-1.0-615.0","0","0","92665","","null","","","null","68","NaN","","","","","","","","","","","","","","",""
"","S2","","html-keyboard-response","456","562570","0.0-1.0-616.0","0","0","92665","","null","","","null","68","","NaN","","","","","","","","","","","","","",""
"","response","","html-keyboard-response","457","563504","0.0-1.0-617.0-0.0","0","0","92665","","933","","","75","68","","","2","68","training","adjacent","BA","2","1","N.jpg","P.jpg","1","0","0","",""
"","feedback","","html-keyboard-response","458","564507","0.0-1.0-618.0-0.0","0","0","92665","","null","","","null","68","","","","","","","","","","","","","","","",""
"","time_out","","html-keyboard-response","459","566508","0.0-1.0-620.0-0.0","0","0","92665","","null","","","null","68","","","","","","","","","","","","","","","",""
"","ITI","","html-keyboard-response","460","567510","0.0-1.0-621.0","0","0","92665","","null","","","null","68","","","","","","","","","","","","","","","NaN",""
"","S1","","html-keyboard-response","461","567763","0.0-1.0-623.0","0","0","92665","","null","","","null","69","","","","","","","","","","","","","","","",""
"","ISI","","html-keyboard-response","462","568766","0.0-1.0-624.0","0","0","92665","","null","","","null","69","NaN","","","","","","","","","","","","","","",""
"","S2","","html-keyboard-response","463","569033","0.0-1.0-625.0","0","0","92665","","null","","","null","69","","NaN","","","","","","","","","","","","","",""
"","response","","html-keyboard-response","464","570039","0.0-1.0-626.0-0.0","0","0","92665","","1005","","","75","69","","","2","69","training","adjacent","CB","3","2","M.jpg","N.jpg","1","0","0","",""
"","feedback","","html-keyboard-response","465","571042","0.0-1.0-627.0-0.0","0","0","92665","","null","","","null","69","","","","","","","","","","","","","","","",""
"","time_out","","html-keyboard-response","466","573044","0.0-1.0-629.0-0.0","0","0","92665","","null","","","null","69","","","","","","","","","","","","","","","",""
"","ITI","","html-keyboard-response","467","574046","0.0-1.0-630.0","0","0","92665","","null","","","null","69","","","","","","","","","","","","","","","NaN",""
"","S1","","html-keyboard-response","468","574299","0.0-1.0-632.0","0","0","92665","","null","","","null","70","","","","","","","","","","","","","","","",""
"","ISI","","html-keyboard-response","469","575301","0.0-1.0-633.0","0","0","92665","","null","","","null","70","NaN","","","","","","","","","","","","","","",""
"","S2","","html-keyboard-response","470","575554","0.0-1.0-634.0","0","0","92665","","null","","","null","70","","NaN","","","","","","","","","","","","","",""
"","response","","html-keyboard-response","471","576016","0.0-1.0-635.0-0.0","0","0","92665","","460","","","75","70","","","2","70","training","adjacent","EF","5","6","L.jpg","Q.jpg","1","1","1","",""
"","feedback","","html-keyboard-response","472","577018","0.0-1.0-636.0-0.0","0","0","92665","","null","","","null","70","","","","","","","","","","","","","","","",""
"","ITI","","html-keyboard-response","473","578020","0.0-1.0-639.0","0","0","92665","","null","","","null","70","","","","","","","","","","","","","","","NaN",""
"","S1","","html-keyboard-response","474","578274","0.0-1.0-641.0","0","0","92665","","null","","","null","71","","","","","","","","","","","","","","","",""
"","ISI","","html-keyboard-response","475","579276","0.0-1.0-642.0","0","0","92665","","null","","","null","71","NaN","","","","","","","","","","","","","","",""
"","S2","","html-keyboard-response","476","579528","0.0-1.0-643.0","0","0","92665","","null","","","null","71","","NaN","","","","","","","","","","","","","",""
"","response","","html-keyboard-response","477","580560","0.0-1.0-644.0-0.0","0","0","92665","","1030","","","68","71","","","2","71","training","adjacent","ED","5","4","L.jpg","O.jpg","0","0","1","",""
"","feedback","","html-keyboard-response","478","581563","0.0-1.0-645.0-0.0","0","0","92665","","null","","","null","71","","","","","","","","","","","","","","","",""
"","ITI","","html-keyboard-response","479","582580","0.0-1.0-648.0","0","0","92665","","null","","","null","71","","","","","","","","","","","","","","","NaN",""
"","S1","","html-keyboard-response","480","582831","0.0-1.0-650.0","0","0","92665","","null","","","null","72","","","","","","","","","","","","","","","",""
"","ISI","","html-keyboard-response","481","583834","0.0-1.0-651.0","0","0","92665","","null","","","null","72","NaN","","","","","","","","","","","","","","",""
"","S2","","html-keyboard-response","482","584091","0.0-1.0-652.0","0","0","92665","","null","","","null","72","","NaN","","","","","","","","","","","","","",""
"","response","","html-keyboard-response","483","585159","0.0-1.0-653.0-0.0","0","0","92665","","1067","","","75","72","","","2","72","training","adjacent","DE","4","5","O.jpg","L.jpg","1","1","1","",""
"","feedback","","html-keyboard-response","484","586162","0.0-1.0-654.0-0.0","0","0","92665","","null","","","null","72","","","","","","","","","","","","","","","",""
"","ITI","","html-keyboard-response","485","587165","0.0-1.0-657.0","0","0","92665","","null","","","null","72","","","","","","","","","","","","","","","NaN",""
"","S1","","html-keyboard-response","486","587417","0.0-1.0-659.0","0","0","92665","","null","","","null","73","","","","","","","","","","","","","","","",""
"","ISI","","html-keyboard-response","487","588420","0.0-1.0-660.0","0","0","92665","","null","","","null","73","NaN","","","","","","","","","","","","","","",""
"","S2","","html-keyboard-response","488","588673","0.0-1.0-661.0","0","0","92665","","null","","","null","73","","NaN","","","","","","","","","","","","","",""
"","response","","html-keyboard-response","489","589319","0.0-1.0-662.0-0.0","0","0","92665","","645","","","75","73","","","2","73","training","adjacent","AB","1","2","P.jpg","N.jpg","1","1","1","",""
"","feedback","","html-keyboard-response","490","590321","0.0-1.0-663.0-0.0","0","0","92665","","null","","","null","73","","","","","","","","","","","","","","","",""
"","ITI","","html-keyboard-response","491","591323","0.0-1.0-666.0","0","0","92665","","null","","","null","73","","","","","","","","","","","","","","","NaN",""
"","S1","","html-keyboard-response","492","591575","0.0-1.0-668.0","0","0","92665","","null","","","null","74","","","","","","","","","","","","","","","",""
"","ISI","","html-keyboard-response","493","592578","0.0-1.0-669.0","0","0","92665","","null","","","null","74","NaN","","","","","","","","","","","","","","",""
"","S2","","html-keyboard-response","494","592834","0.0-1.0-670.0","0","0","92665","","null","","","null","74","","NaN","","","","","","","","","","","","","",""
"","response","","html-keyboard-response","495","593576","0.0-1.0-671.0-0.0","0","0","92665","","741","","","75","74","","","2","74","training","adjacent","CD","3","4","M.jpg","O.jpg","1","1","1","",""
"","feedback","","html-keyboard-response","496","594580","0.0-1.0-672.0-0.0","0","0","92665","","null","","","null","74","","","","","","","","","","","","","","","",""
"","ITI","","html-keyboard-response","497","595582","0.0-1.0-675.0","0","0","92665","","null","","","null","74","","","","","","","","","","","","","","","NaN",""
"","S1","","html-keyboard-response","498","595834","0.0-1.0-677.0","0","0","92665","","null","","","null","75","","","","","","","","","","","","","","","",""
"","ISI","","html-keyboard-response","499","596837","0.0-1.0-678.0","0","0","92665","","null","","","null","75","NaN","","","","","","","","","","","","","","",""
"","S2","","html-keyboard-response","500","597101","0.0-1.0-679.0","0","0","92665","","null","","","null","75","","NaN","","","","","","","","","","","","","",""
"","response","","html-keyboard-response","501","598280","0.0-1.0-680.0-0.0","0","0","92665","","1176","","","68","75","","","2","75","training","adjacent","DC","4","3","O.jpg","M.jpg","0","0","1","",""
"","feedback","","html-keyboard-response","502","599283","0.0-1.0-681.0-0.0","0","0","92665","","null","","","null","75","","","","","","","","","","","","","","","",""
"","ITI","","html-keyboard-response","503","600285","0.0-1.0-684.0","0","0","92665","","null","","","null","75","","","","","","","","","","","","","","","NaN",""
"","S1","","html-keyboard-response","504","600537","0.0-1.0-686.0","0","0","92665","","null","","","null","76","","","","","","","","","","","","","","","",""
"","ISI","","html-keyboard-response","505","601538","0.0-1.0-687.0","0","0","92665","","null","","","null","76","NaN","","","","","","","","","","","","","","",""
"","S2","","html-keyboard-response","506","601791","0.0-1.0-688.0","0","0","92665","","null","","","null","76","","NaN","","","","","","","","","","","","","",""
"","response","","html-keyboard-response","507","602665","0.0-1.0-689.0-0.0","0","0","92665","","872","","","75","76","","","2","76","training","adjacent","DE","4","5","O.jpg","L.jpg","1","1","1","",""
"","feedback","","html-keyboard-response","508","603667","0.0-1.0-690.0-0.0","0","0","92665","","null","","","null","76","","","","","","","","","","","","","","","",""
"","ITI","","html-keyboard-response","509","604670","0.0-1.0-693.0","0","0","92665","","null","","","null","76","","","","","","","","","","","","","","","NaN",""
"","S1","","html-keyboard-response","510","604923","0.0-1.0-695.0","0","0","92665","","null","","","null","77","","","","","","","","","","","","","","","",""
"","ISI","","html-keyboard-response","511","605925","0.0-1.0-696.0","0","0","92665","","null","","","null","77","NaN","","","","","","","","","","","","","","",""
"","S2","","html-keyboard-response","512","606179","0.0-1.0-697.0","0","0","92665","","null","","","null","77","","NaN","","","","","","","","","","","","","",""
"","response","","html-keyboard-response","513","606855","0.0-1.0-698.0-0.0","0","0","92665","","675","","","75","77","","","2","77","training","adjacent","BC","2","3","N.jpg","M.jpg","1","1","1","",""
"","feedback","","html-keyboard-response","514","607857","0.0-1.0-699.0-0.0","0","0","92665","","null","","","null","77","","","","","","","","","","","","","","","",""
"","ITI","","html-keyboard-response","515","608860","0.0-1.0-702.0","0","0","92665","","null","","","null","77","","","","","","","","","","","","","","","NaN",""
"","S1","","html-keyboard-response","516","609113","0.0-1.0-704.0","0","0","92665","","null","","","null","78","","","","","","","","","","","","","","","",""
"","ISI","","html-keyboard-response","517","610116","0.0-1.0-705.0","0","0","92665","","null","","","null","78","NaN","","","","","","","","","","","","","","",""
"","S2","","html-keyboard-response","518","610368","0.0-1.0-706.0","0","0","92665","","null","","","null","78","","NaN","","","","","","","","","","","","","",""
"","response","","html-keyboard-response","519","611432","0.0-1.0-707.0-0.0","0","0","92665","","1061","","","68","78","","","2","78","training","adjacent","CD","3","4","M.jpg","O.jpg","0","1","0","",""
"","feedback","","html-keyboard-response","520","612434","0.0-1.0-708.0-0.0","0","0","92665","","null","","","null","78","","","","","","","","","","","","","","","",""
"","time_out","","html-keyboard-response","521","614436","0.0-1.0-710.0-0.0","0","0","92665","","null","","","null","78","","","","","","","","","","","","","","","",""
"","ITI","","html-keyboard-response","522","615438","0.0-1.0-711.0","0","0","92665","","null","","","null","78","","","","","","","","","","","","","","","NaN",""
"","S1","","html-keyboard-response","523","615692","0.0-1.0-713.0","0","0","92665","","null","","","null","79","","","","","","","","","","","","","","","",""
"","ISI","","html-keyboard-response","524","616694","0.0-1.0-714.0","0","0","92665","","null","","","null","79","NaN","","","","","","","","","","","","","","",""
"","S2","","html-keyboard-response","525","616947","0.0-1.0-715.0","0","0","92665","","null","","","null","79","","NaN","","","","","","","","","","","","","",""
"","response","","html-keyboard-response","526","617935","0.0-1.0-716.0-0.0","0","0","92665","","987","","","75","79","","","2","79","training","adjacent","CB","3","2","M.jpg","N.jpg","1","0","0","",""
"","feedback","","html-keyboard-response","527","618939","0.0-1.0-717.0-0.0","0","0","92665","","null","","","null","79","","","","","","","","","","","","","","","",""
"","time_out","","html-keyboard-response","528","620941","0.0-1.0-719.0-0.0","0","0","92665","","null","","","null","79","","","","","","","","","","","","","","","",""
"","ITI","","html-keyboard-response","529","621944","0.0-1.0-720.0","0","0","92665","","null","","","null","79","","","","","","","","","","","","","","","NaN",""
"","S1","","html-keyboard-response","530","622197","0.0-1.0-722.0","0","0","92665","","null","","","null","80","","","","","","","","","","","","","","","",""
"","ISI","","html-keyboard-response","531","623200","0.0-1.0-723.0","0","0","92665","","null","","","null","80","NaN","","","","","","","","","","","","","","",""
"","S2","","html-keyboard-response","532","623453","0.0-1.0-724.0","0","0","92665","","null","","","null","80","","NaN","","","","","","","","","","","","","",""
"","response","","html-keyboard-response","533","624287","0.0-1.0-725.0-0.0","0","0","92665","","833","","","75","80","","","2","80","training","adjacent","GF","7","6","R.jpg","Q.jpg","1","0","0","",""
"","feedback","","html-keyboard-response","534","625290","0.0-1.0-726.0-0.0","0","0","92665","","null","","","null","80","","","","","","","","","","","","","","","",""
"","time_out","","html-keyboard-response","535","627292","0.0-1.0-728.0-0.0","0","0","92665","","null","","","null","80","","","","","","","","","","","","","","","",""
"","ITI","","html-keyboard-response","536","628293","0.0-1.0-729.0","0","0","92665","","null","","","null","80","","","","","","","","","","","","","","","NaN",""
"","S1","","html-keyboard-response","537","628546","0.0-1.0-731.0","0","0","92665","","null","","","null","81","","","","","","","","","","","","","","","",""
"","ISI","","html-keyboard-response","538","629549","0.0-1.0-732.0","0","0","92665","","null","","","null","81","NaN","","","","","","","","","","","","","","",""
"","S2","","html-keyboard-response","539","629801","0.0-1.0-733.0","0","0","92665","","null","","","null","81","","NaN","","","","","","","","","","","","","",""
"","response","","html-keyboard-response","540","630391","0.0-1.0-734.0-0.0","0","0","92665","","588","","","68","81","","","2","81","training","adjacent","FE","6","5","Q.jpg","L.jpg","0","0","1","",""
"","feedback","","html-keyboard-response","541","631394","0.0-1.0-735.0-0.0","0","0","92665","","null","","","null","81","","","","","","","","","","","","","","","",""
"","ITI","","html-keyboard-response","542","632397","0.0-1.0-738.0","0","0","92665","","null","","","null","81","","","","","","","","","","","","","","","NaN",""
"","S1","","html-keyboard-response","543","632664","0.0-1.0-740.0","0","0","92665","","null","","","null","82","","","","","","","","","","","","","","","",""
"","ISI","","html-keyboard-response","544","633666","0.0-1.0-741.0","0","0","92665","","null","","","null","82","NaN","","","","","","","","","","","","","","",""
"","S2","","html-keyboard-response","545","633923","0.0-1.0-742.0","0","0","92665","","null","","","null","82","","NaN","","","","","","","","","","","","","",""
"","response","","html-keyboard-response","546","634991","0.0-1.0-743.0-0.0","0","0","92665","","1067","","","68","82","","","2","82","training","adjacent","CD","3","4","M.jpg","O.jpg","0","1","0","",""
"","feedback","","html-keyboard-response","547","635994","0.0-1.0-744.0-0.0","0","0","92665","","null","","","null","82","","","","","","","","","","","","","","","",""
"","time_out","","html-keyboard-response","548","637996","0.0-1.0-746.0-0.0","0","0","92665","","null","","","null","82","","","","","","","","","","","","","","","",""
"","ITI","","html-keyboard-response","549","639000","0.0-1.0-747.0","0","0","92665","","null","","","null","82","","","","","","","","","","","","","","","NaN",""
"","S1","","html-keyboard-response","550","639252","0.0-1.0-749.0","0","0","92665","","null","","","null","83","","","","","","","","","","","","","","","",""
"","ISI","","html-keyboard-response","551","640254","0.0-1.0-750.0","0","0","92665","","null","","","null","83","NaN","","","","","","","","","","","","","","",""
"","S2","","html-keyboard-response","552","640506","0.0-1.0-751.0","0","0","92665","","null","","","null","83","","NaN","","","","","","","","","","","","","",""
"","response","","html-keyboard-response","553","641439","0.0-1.0-752.0-0.0","0","0","92665","","932","","","75","83","","","2","83","training","adjacent","DC","4","3","O.jpg","M.jpg","1","0","0","",""
"","feedback","","html-keyboard-response","554","642442","0.0-1.0-753.0-0.0","0","0","92665","","null","","","null","83","","","","","","","","","","","","","","","",""
"","time_out","","html-keyboard-response","555","644444","0.0-1.0-755.0-0.0","0","0","92665","","null","","","null","83","","","","","","","","","","","","","","","",""
"","ITI","","html-keyboard-response","556","645447","0.0-1.0-756.0","0","0","92665","","null","","","null","83","","","","","","","","","","","","","","","NaN",""
"","S1","","html-keyboard-response","557","645701","0.0-1.0-758.0","0","0","92665","","null","","","null","84","","","","","","","","","","","","","","","",""
"","ISI","","html-keyboard-response","558","646703","0.0-1.0-759.0","0","0","92665","","null","","","null","84","NaN","","","","","","","","","","","","","","",""
"","S2","","html-keyboard-response","559","646956","0.0-1.0-760.0","0","0","92665","","null","","","null","84","","NaN","","","","","","","","","","","","","",""
"","response","","html-keyboard-response","560","647664","0.0-1.0-761.0-0.0","0","0","92665","","706","","","75","84","","","2","84","training","adjacent","BC","2","3","N.jpg","M.jpg","1","1","1","",""
"","feedback","","html-keyboard-response","561","648667","0.0-1.0-762.0-0.0","0","0","92665","","null","","","null","84","","","","","","","","","","","","","","","",""
"","ITI","","html-keyboard-response","562","649669","0.0-1.0-765.0","0","0","92665","","null","","","null","84","","","","","","","","","","","","","","","NaN",""
"","S1","","html-keyboard-response","563","649922","0.0-1.0-767.0","0","0","92665","","null","","","null","85","","","","","","","","","","","","","","","",""
"","ISI","","html-keyboard-response","564","650923","0.0-1.0-768.0","0","0","92665","","null","","","null","85","NaN","","","","","","","","","","","","","","",""
"","S2","","html-keyboard-response","565","651175","0.0-1.0-769.0","0","0","92665","","null","","","null","85","","NaN","","","","","","","","","","","","","",""
"","response","","html-keyboard-response","566","652081","0.0-1.0-770.0-0.0","0","0","92665","","903","","","75","85","","","2","85","training","adjacent","DC","4","3","O.jpg","M.jpg","1","0","0","",""
"","feedback","","html-keyboard-response","567","653084","0.0-1.0-771.0-0.0","0","0","92665","","null","","","null","85","","","","","","","","","","","","","","","",""
"","time_out","","html-keyboard-response","568","655088","0.0-1.0-773.0-0.0","0","0","92665","","null","","","null","85","","","","","","","","","","","","","","","",""
"","ITI","","html-keyboard-response","569","656089","0.0-1.0-774.0","0","0","92665","","null","","","null","85","","","","","","","","","","","","","","","NaN",""
"","S1","","html-keyboard-response","570","656351","0.0-1.0-776.0","0","0","92665","","null","","","null","86","","","","","","","","","","","","","","","",""
"","ISI","","html-keyboard-response","571","657354","0.0-1.0-777.0","0","0","92665","","null","","","null","86","NaN","","","","","","","","","","","","","","",""
"","S2","","html-keyboard-response","572","657606","0.0-1.0-778.0","0","0","92665","","null","","","null","86","","NaN","","","","","","","","","","","","","",""
"","response","","html-keyboard-response","573","658464","0.0-1.0-779.0-0.0","0","0","92665","","857","","","68","86","","","2","86","training","adjacent","AB","1","2","P.jpg","N.jpg","0","1","0","",""
"","feedback","","html-keyboard-response","574","659467","0.0-1.0-780.0-0.0","0","0","92665","","null","","","null","86","","","","","","","","","","","","","","","",""
"","time_out","","html-keyboard-response","575","661469","0.0-1.0-782.0-0.0","0","0","92665","","null","","","null","86","","","","","","","","","","","","","","","",""
"","ITI","","html-keyboard-response","576","662471","0.0-1.0-783.0","0","0","92665","","null","","","null","86","","","","","","","","","","","","","","","NaN",""
"","S1","","html-keyboard-response","577","662724","0.0-1.0-785.0","0","0","92665","","null","","","null","87","","","","","","","","","","","","","","","",""
"","ISI","","html-keyboard-response","578","663726","0.0-1.0-786.0","0","0","92665","","null","","","null","87","NaN","","","","","","","","","","","","","","",""
"","S2","","html-keyboard-response","579","663979","0.0-1.0-787.0","0","0","92665","","null","","","null","87","","NaN","","","","","","","","","","","","","",""
"","response","","html-keyboard-response","580","665136","0.0-1.0-788.0-0.0","0","0","92665","","1155","","","75","87","","","2","87","training","adjacent","GF","7","6","R.jpg","Q.jpg","1","0","0","",""
