"success","ttype","start_time","trial_type","trial_index","time_elapsed","internal_node_id","warning","missed_checkup","PID","view_history","rt","responses","repeat_instructions","key_press","index","keypress_isi","keypress_S2","block","trial_num","phase","group_type","pair_type","S1_stim","S2_stim","S1_img","S2_img","S1_chosen","S1_higher","accuracy","keypress_iti","total_bonus_tally"
"true","full_screen","d04152023hr1135","fullscreen","0","8038","0.0-0.0","0","0","67534","","","","","","","","","","","","","","","","","","","","","",""
"","instructions","","instructions","1","30418","0.0-1.0-0.0-0.0","0","0","67534","[{""page_index"":0,""viewing_time"":3215},{""page_index"":1,""viewing_time"":10162},{""page_index"":2,""viewing_time"":6704},{""page_index"":3,""viewing_time"":2297}]","22378","","","","","","","","","","","","","","","","","","","",""
"","comprehension_check","","survey-multi-choice","2","49374","0.0-1.0-0.0-1.0","0","0","67534","","18954","{""Q0"":""True"",""Q1"":""D"",""Q2"":""Once the second image appears and while the screen 'MAKE A CHOICE' is shown"",""Q3"":""Green mark"",""Q4"":""either D or K""}","0","","","","","","","","","","","","","","","","","",""
"","start_exp","","html-keyboard-response","3","59124","0.0-1.0-1.0","0","0","67534","","9748","","","32","","","","","","","","","","","","","","","","",""
"","S1","","html-keyboard-response","4","59376","0.0-1.0-2.0","0","0","67534","","null","","","null","0","","","","","","","","","","","","","","","",""
"","ISI","","html-keyboard-response","5","60378","0.0-1.0-3.0","0","0","67534","","null","","","null","0","NaN","","","","","","","","","","","","","","",""
"","S2","","html-keyboard-response","6","60629","0.0-1.0-4.0","0","0","67534","","null","","","null","0","","NaN","","","","","","","","","","","","","",""
"","response","","html-keyboard-response","7","61739","0.0-1.0-5.0-0.0","0","0","67534","","1108","","","68","0","","","1","0","training","adjacent","DC","4","3","P.jpg","L.jpg","1","0","0","",""
"","feedback","","html-keyboard-response","8","62740","0.0-1.0-6.0-0.0","0","0","67534","","null","","","null","0","","","","","","","","","","","","","","","",""
"","time_out","","html-keyboard-response","9","64742","0.0-1.0-8.0-0.0","0","0","67534","","null","","","null","0","","","","","","","","","","","","","","","",""
"","ITI","","html-keyboard-response","10","65744","0.0-1.0-9.0","0","0","67534","","null","","","null","0","","","","","","","","","","","","","","","NaN",""
"","S1","","html-keyboard-response","11","65996","0.0-1.0-11.0","0","0","67534","","null","","","null","1","","","","","","","","","","","","","","","",""
"","ISI","","html-keyboard-response","12","66998","0.0-1.0-12.0","0","0","67534","","null","","","null","1","NaN","","","","","","","","","","","","","","",""
"","S2","","html-keyboard-response","13","67251","0.0-1.0-13.0","0","0","67534","","null","","","null","1","","NaN","","","","","","","","","","","","","",""
"","response","","html-keyboard-response","14","68851","0.0-1.0-14.0-0.0","0","0","67534","","1600","","","75","1","","","1","1","training","adjacent","FE","6","5","O.jpg","Q.jpg","0","0","1","",""
"","feedback","","html-keyboard-response","15","69854","0.0-1.0-15.0-0.0","0","0","67534","","null","","","null","1","","","","","","","","","","","","","","","",""
"","ITI","","html-keyboard-response","16","70857","0.0-1.0-18.0","0","0","67534","","null","","","null","1","","","","","","","","","","","","","","","NaN",""
"","S1","","html-keyboard-response","17","71109","0.0-1.0-20.0","0","0","67534","","null","","","null","2","","","","","","","","","","","","","","","",""
"","ISI","","html-keyboard-response","18","72111","0.0-1.0-21.0","0","0","67534","","null","","","null","2","NaN","","","","","","","","","","","","","","",""
"","S2","","html-keyboard-response","19","72363","0.0-1.0-22.0","0","0","67534","","null","","","null","2","","NaN","","","","","","","","","","","","","",""
"","response","","html-keyboard-response","20","73035","0.0-1.0-23.0-0.0","0","0","67534","","672","","","75","2","","","1","2","training","adjacent","FG","6","7","O.jpg","R.jpg","0","1","0","",""
"","feedback","","html-keyboard-response","21","74037","0.0-1.0-24.0-0.0","0","0","67534","","null","","","null","2","","","","","","","","","","","","","","","",""
"","time_out","","html-keyboard-response","22","76038","0.0-1.0-26.0-0.0","0","0","67534","","null","","","null","2","","","","","","","","","","","","","","","",""
"","ITI","","html-keyboard-response","23","77040","0.0-1.0-27.0","0","0","67534","","null","","","null","2","","","","","","","","","","","","","","","NaN",""
"","S1","","html-keyboard-response","24","77291","0.0-1.0-29.0","0","0","67534","","null","","","null","3","","","","","","","","","","","","","","","",""
"","ISI","","html-keyboard-response","25","78293","0.0-1.0-30.0","0","0","67534","","null","","","null","3","NaN","","","","","","","","","","","","","","",""
"","S2","","html-keyboard-response","26","78559","0.0-1.0-31.0","0","0","67534","","null","","","null","3","","NaN","","","","","","","","","","","","","",""
"","response","","html-keyboard-response","27","79979","0.0-1.0-32.0-0.0","0","0","67534","","1419","","","75","3","","","1","3","training","adjacent","BA","2","1","M.jpg","N.jpg","0","0","1","",""
"","feedback","","html-keyboard-response","28","80981","0.0-1.0-33.0-0.0","0","0","67534","","null","","","null","3","","","","","","","","","","","","","","","",""
"","ITI","","html-keyboard-response","29","81982","0.0-1.0-36.0","0","0","67534","","null","","","null","3","","","","","","","","","","","","","","","NaN",""
"","S1","","html-keyboard-response","30","82234","0.0-1.0-38.0","0","0","67534","","null","","","null","4","","","","","","","","","","","","","","","",""
"","ISI","","html-keyboard-response","31","83236","0.0-1.0-39.0","0","0","67534","","null","","","null","4","NaN","","","","","","","","","","","","","","",""
"","S2","","html-keyboard-response","32","83489","0.0-1.0-40.0","0","0","67534","","null","","","null","4","","NaN","","","","","","","","","","","","","",""
"","response","","html-keyboard-response","33","84419","0.0-1.0-41.0-0.0","0","0","67534","","930","","","68","4","","","1","4","training","adjacent","CD","3","4","L.jpg","P.jpg","1","1","1","",""
"","feedback","","html-keyboard-response","34","85420","0.0-1.0-42.0-0.0","0","0","67534","","null","","","null","4","","","","","","","","","","","","","","","",""
"","ITI","","html-keyboard-response","35","86423","0.0-1.0-45.0","0","0","67534","","null","","","null","4","","","","","","","","","","","","","","","NaN",""
"","S1","","html-keyboard-response","36","86674","0.0-1.0-47.0","0","0","67534","","null","","","null","5","","","","","","","","","","","","","","","",""
"","ISI","","html-keyboard-response","37","87676","0.0-1.0-48.0","0","0","67534","","null","","","null","5","NaN","","","","","","","","","","","","","","",""
"","S2","","html-keyboard-response","38","87927","0.0-1.0-49.0","0","0","67534","","null","","","null","5","","NaN","","","","","","","","","","","","","",""
"","response","","html-keyboard-response","39","89148","0.0-1.0-50.0-0.0","0","0","67534","","1220","","","68","5","","","1","5","training","adjacent","BA","2","1","M.jpg","N.jpg","1","0","0","",""
"","feedback","","html-keyboard-response","40","90150","0.0-1.0-51.0-0.0","0","0","67534","","null","","","null","5","","","","","","","","","","","","","","","",""
"","time_out","","html-keyboard-response","41","92152","0.0-1.0-53.0-0.0","0","0","67534","","null","","","null","5","","","","","","","","","","","","","","","",""
"","ITI","","html-keyboard-response","42","93154","0.0-1.0-54.0","0","0","67534","","null","","","null","5","","","","","","","","","","","","","","","NaN",""
"","S1","","html-keyboard-response","43","93406","0.0-1.0-56.0","0","0","67534","","null","","","null","6","","","","","","","","","","","","","","","",""
"","ISI","","html-keyboard-response","44","94408","0.0-1.0-57.0","0","0","67534","","null","","","null","6","NaN","","","","","","","","","","","","","","",""
"","S2","","html-keyboard-response","45","94660","0.0-1.0-58.0","0","0","67534","","null","","","null","6","","NaN","","","","","","","","","","","","","",""
"","response","","html-keyboard-response","46","95004","0.0-1.0-59.0-0.0","0","0","67534","","343","","","75","6","","","1","6","training","adjacent","ED","5","4","Q.jpg","P.jpg","0","0","1","",""
"","feedback","","html-keyboard-response","47","96006","0.0-1.0-60.0-0.0","0","0","67534","","null","","","null","6","","","","","","","","","","","","","","","",""
"","ITI","","html-keyboard-response","48","97008","0.0-1.0-63.0","0","0","67534","","null","","","null","6","","","","","","","","","","","","","","","NaN",""
"","S1","","html-keyboard-response","49","97260","0.0-1.0-65.0","0","0","67534","","null","","","null","7","","","","","","","","","","","","","","","",""
"","ISI","","html-keyboard-response","50","98261","0.0-1.0-66.0","0","0","67534","","null","","","null","7","NaN","","","","","","","","","","","","","","",""
"","S2","","html-keyboard-response","51","98513","0.0-1.0-67.0","0","0","67534","","null","","","null","7","","NaN","","","","","","","","","","","","","",""
"","response","","html-keyboard-response","52","99027","0.0-1.0-68.0-0.0","0","0","67534","","513","","","75","7","","","1","7","training","adjacent","CD","3","4","L.jpg","P.jpg","0","1","0","",""
"","feedback","","html-keyboard-response","53","100029","0.0-1.0-69.0-0.0","0","0","67534","","null","","","null","7","","","","","","","","","","","","","","","",""
"","time_out","","html-keyboard-response","54","102030","0.0-1.0-71.0-0.0","0","0","67534","","null","","","null","7","","","","","","","","","","","","","","","",""
"","ITI","","html-keyboard-response","55","103033","0.0-1.0-72.0","0","0","67534","","null","","","null","7","","","","","","","","","","","","","","","NaN",""
"","S1","","html-keyboard-response","56","103284","0.0-1.0-74.0","0","0","67534","","null","","","null","8","","","","","","","","","","","","","","","",""
"","ISI","","html-keyboard-response","57","104286","0.0-1.0-75.0","0","0","67534","","null","","","null","8","NaN","","","","","","","","","","","","","","",""
"","S2","","html-keyboard-response","58","104537","0.0-1.0-76.0","0","0","67534","","null","","","null","8","","NaN","","","","","","","","","","","","","",""
"","response","","html-keyboard-response","59","104883","0.0-1.0-77.0-0.0","0","0","67534","","345","","","75","8","","","1","8","training","adjacent","BA","2","1","M.jpg","N.jpg","0","0","1","",""
"","feedback","","html-keyboard-response","60","105885","0.0-1.0-78.0-0.0","0","0","67534","","null","","","null","8","","","","","","","","","","","","","","","",""
"","ITI","","html-keyboard-response","61","106887","0.0-1.0-81.0","0","0","67534","","null","","","null","8","","","","","","","","","","","","","","","NaN",""
"","S1","","html-keyboard-response","62","107140","0.0-1.0-83.0","0","0","67534","","null","","","null","9","","","","","","","","","","","","","","","",""
"","ISI","","html-keyboard-response","63","108142","0.0-1.0-84.0","0","0","67534","","null","","","null","9","NaN","","","","","","","","","","","","","","",""
"","S2","","html-keyboard-response","64","108393","0.0-1.0-85.0","0","0","67534","","null","","","null","9","","NaN","","","","","","","","","","","","","",""
"","response","","html-keyboard-response","65","108636","0.0-1.0-86.0-0.0","0","0","67534","","241","","","75","9","","","1","9","training","adjacent","CB","3","2","L.jpg","M.jpg","0","0","1","",""
"","feedback","","html-keyboard-response","66","109638","0.0-1.0-87.0-0.0","0","0","67534","","null","","","null","9","","","","","","","","","","","","","","","",""
"","ITI","","html-keyboard-response","67","110640","0.0-1.0-90.0","0","0","67534","","null","","","null","9","","","","","","","","","","","","","","","NaN",""
"","S1","","html-keyboard-response","68","110892","0.0-1.0-92.0","0","0","67534","","null","","","null","10","","","","","","","","","","","","","","","",""
"","ISI","","html-keyboard-response","69","111894","0.0-1.0-93.0","0","0","67534","","null","","","null","10","NaN","","","","","","","","","","","","","","",""
"","S2","","html-keyboard-response","70","112147","0.0-1.0-94.0","0","0","67534","","null","","","null","10","","NaN","","","","","","","","","","","","","",""
"","response","","html-keyboard-response","71","112444","0.0-1.0-95.0-0.0","0","0","67534","","296","","","68","10","","","1","10","training","adjacent","AB","1","2","N.jpg","M.jpg","1","1","1","",""
"","feedback","","html-keyboard-response","72","113446","0.0-1.0-96.0-0.0","0","0","67534","","null","","","null","10","","","","","","","","","","","","","","","",""
"","ITI","","html-keyboard-response","73","114449","0.0-1.0-99.0","0","0","67534","","null","","","null","10","","","","","","","","","","","","","","","NaN",""
"","S1","","html-keyboard-response","74","114702","0.0-1.0-101.0","0","0","67534","","null","","","null","11","","","","","","","","","","","","","","","",""
"","ISI","","html-keyboard-response","75","115704","0.0-1.0-102.0","0","0","67534","","null","","","null","11","NaN","","","","","","","","","","","","","","",""
"","S2","","html-keyboard-response","76","115956","0.0-1.0-103.0","0","0","67534","","null","","","null","11","","NaN","","","","","","","","","","","","","",""
"","response","","html-keyboard-response","77","116276","0.0-1.0-104.0-0.0","0","0","67534","","319","","","68","11","","","1","11","training","adjacent","DE","4","5","P.jpg","Q.jpg","1","1","1","",""
"","feedback","","html-keyboard-response","78","117278","0.0-1.0-105.0-0.0","0","0","67534","","null","","","null","11","","","","","","","","","","","","","","","",""
"","ITI","","html-keyboard-response","79","118280","0.0-1.0-108.0","0","0","67534","","null","","","null","11","","","","","","","","","","","","","","","NaN",""
"","S1","","html-keyboard-response","80","118532","0.0-1.0-110.0","0","0","67534","","null","","","null","12","","","","","","","","","","","","","","","",""
"","ISI","","html-keyboard-response","81","119534","0.0-1.0-111.0","0","0","67534","","null","","","null","12","NaN","","","","","","","","","","","","","","",""
"","S2","","html-keyboard-response","82","119785","0.0-1.0-112.0","0","0","67534","","null","","","null","12","","NaN","","","","","","","","","","","","","",""
"","response","","html-keyboard-response","83","120660","0.0-1.0-113.0-0.0","0","0","67534","","874","","","68","12","","","1","12","training","adjacent","EF","5","6","Q.jpg","O.jpg","1","1","1","",""
"","feedback","","html-keyboard-response","84","121662","0.0-1.0-114.0-0.0","0","0","67534","","null","","","null","12","","","","","","","","","","","","","","","",""
"","ITI","","html-keyboard-response","85","122663","0.0-1.0-117.0","0","0","67534","","null","","","null","12","","","","","","","","","","","","","","","NaN",""
"","S1","","html-keyboard-response","86","122916","0.0-1.0-119.0","0","0","67534","","null","","","null","13","","","","","","","","","","","","","","","",""
"","ISI","","html-keyboard-response","87","123918","0.0-1.0-120.0","0","0","67534","","null","","","null","13","NaN","","","","","","","","","","","","","","",""
"","S2","","html-keyboard-response","88","124169","0.0-1.0-121.0","0","0","67534","","null","","","null","13","","NaN","","","","","","","","","","","","","",""
"","response","","html-keyboard-response","89","124581","0.0-1.0-122.0-0.0","0","0","67534","","411","","","75","13","","","1","13","training","adjacent","EF","5","6","Q.jpg","O.jpg","0","1","0","",""
"","feedback","","html-keyboard-response","90","125583","0.0-1.0-123.0-0.0","0","0","67534","","null","","","null","13","","","","","","","","","","","","","","","",""
"","time_out","","html-keyboard-response","91","127584","0.0-1.0-125.0-0.0","0","0","67534","","null","","","null","13","","","","","","","","","","","","","","","",""
"","ITI","","html-keyboard-response","92","128586","0.0-1.0-126.0","0","0","67534","","null","","","null","13","","","","","","","","","","","","","","","NaN",""
"","S1","","html-keyboard-response","93","128838","0.0-1.0-128.0","0","0","67534","","null","","","null","14","","","","","","","","","","","","","","","",""
"","ISI","","html-keyboard-response","94","129840","0.0-1.0-129.0","0","0","67534","","null","","","null","14","NaN","","","","","","","","","","","","","","",""
"","S2","","html-keyboard-response","95","130092","0.0-1.0-130.0","0","0","67534","","null","","","null","14","","NaN","","","","","","","","","","","","","",""
"","response","","html-keyboard-response","96","130581","0.0-1.0-131.0-0.0","0","0","67534","","487","","","68","14","","","1","14","training","adjacent","DC","4","3","P.jpg","L.jpg","1","0","0","",""
"","feedback","","html-keyboard-response","97","131583","0.0-1.0-132.0-0.0","0","0","67534","","null","","","null","14","","","","","","","","","","","","","","","",""
"","time_out","","html-keyboard-response","98","133585","0.0-1.0-134.0-0.0","0","0","67534","","null","","","null","14","","","","","","","","","","","","","","","",""
"","ITI","","html-keyboard-response","99","134587","0.0-1.0-135.0","0","0","67534","","null","","","null","14","","","","","","","","","","","","","","","NaN",""
"","S1","","html-keyboard-response","100","134839","0.0-1.0-137.0","0","0","67534","","null","","","null","15","","","","","","","","","","","","","","","",""
"","ISI","","html-keyboard-response","101","135840","0.0-1.0-138.0","0","0","67534","","null","","","null","15","NaN","","","","","","","","","","","","","","",""
"","S2","","html-keyboard-response","102","136092","0.0-1.0-139.0","0","0","67534","","null","","","null","15","","NaN","","","","","","","","","","","","","",""
"","response","","html-keyboard-response","103","136341","0.0-1.0-140.0-0.0","0","0","67534","","248","","","68","15","","","1","15","training","adjacent","AB","1","2","N.jpg","M.jpg","1","1","1","",""
"","feedback","","html-keyboard-response","104","137343","0.0-1.0-141.0-0.0","0","0","67534","","null","","","null","15","","","","","","","","","","","","","","","",""
"","ITI","","html-keyboard-response","105","138349","0.0-1.0-144.0","0","0","67534","","null","","","null","15","","","","","","","","","","","","","","","NaN",""
"","S1","","html-keyboard-response","106","138601","0.0-1.0-146.0","0","0","67534","","null","","","null","16","","","","","","","","","","","","","","","",""
"","ISI","","html-keyboard-response","107","139602","0.0-1.0-147.0","0","0","67534","","null","","","null","16","NaN","","","","","","","","","","","","","","",""
"","S2","","html-keyboard-response","108","139854","0.0-1.0-148.0","0","0","67534","","null","","","null","16","","NaN","","","","","","","","","","","","","",""
"","response","","html-keyboard-response","109","140284","0.0-1.0-149.0-0.0","0","0","67534","","430","","","68","16","","","1","16","training","adjacent","CD","3","4","L.jpg","P.jpg","1","1","1","",""
"","feedback","","html-keyboard-response","110","141287","0.0-1.0-150.0-0.0","0","0","67534","","null","","","null","16","","","","","","","","","","","","","","","",""
"","ITI","","html-keyboard-response","111","142289","0.0-1.0-153.0","0","0","67534","","null","","","null","16","","","","","","","","","","","","","","","NaN",""
"","S1","","html-keyboard-response","112","142541","0.0-1.0-155.0","0","0","67534","","null","","","null","17","","","","","","","","","","","","","","","",""
"","ISI","","html-keyboard-response","113","143543","0.0-1.0-156.0","0","0","67534","","null","","","null","17","NaN","","","","","","","","","","","","","","",""
"","S2","","html-keyboard-response","114","143794","0.0-1.0-157.0","0","0","67534","","null","","","null","17","","NaN","","","","","","","","","","","","","",""
"","response","","html-keyboard-response","115","144220","0.0-1.0-158.0-0.0","0","0","67534","","426","","","75","17","","","1","17","training","adjacent","BA","2","1","M.jpg","N.jpg","0","0","1","",""
"","feedback","","html-keyboard-response","116","145222","0.0-1.0-159.0-0.0","0","0","67534","","null","","","null","17","","","","","","","","","","","","","","","",""
"","ITI","","html-keyboard-response","117","146224","0.0-1.0-162.0","0","0","67534","","null","","","null","17","","","","","","","","","","","","","","","NaN",""
"","S1","","html-keyboard-response","118","146477","0.0-1.0-164.0","0","0","67534","","null","","","null","18","","","","","","","","","","","","","","","",""
"","ISI","","html-keyboard-response","119","147479","0.0-1.0-165.0","0","0","67534","","null","","","null","18","NaN","","","","","","","","","","","","","","",""
"","S2","","html-keyboard-response","120","147731","0.0-1.0-166.0","0","0","67534","","null","","","null","18","","NaN","","","","","","","","","","","","","",""
"","response","","html-keyboard-response","121","148412","0.0-1.0-167.0-0.0","0","0","67534","","681","","","68","18","","","1","18","training","adjacent","EF","5","6","Q.jpg","O.jpg","1","1","1","",""
"","feedback","","html-keyboard-response","122","149413","0.0-1.0-168.0-0.0","0","0","67534","","null","","","null","18","","","","","","","","","","","","","","","",""
"","ITI","","html-keyboard-response","123","150416","0.0-1.0-171.0","0","0","67534","","null","","","null","18","","","","","","","","","","","","","","","NaN",""
"","S1","","html-keyboard-response","124","150669","0.0-1.0-173.0","0","0","67534","","null","","","null","19","","","","","","","","","","","","","","","",""
"","ISI","","html-keyboard-response","125","151670","0.0-1.0-174.0","0","0","67534","","null","","","null","19","NaN","","","","","","","","","","","","","","",""
"","S2","","html-keyboard-response","126","151921","0.0-1.0-175.0","0","0","67534","","null","","","null","19","","NaN","","","","","","","","","","","","","",""
"","response","","html-keyboard-response","127","152517","0.0-1.0-176.0-0.0","0","0","67534","","595","","","68","19","","","1","19","training","adjacent","DE","4","5","P.jpg","Q.jpg","1","1","1","",""
"","feedback","","html-keyboard-response","128","153519","0.0-1.0-177.0-0.0","0","0","67534","","null","","","null","19","","","","","","","","","","","","","","","",""
"","ITI","","html-keyboard-response","129","154522","0.0-1.0-180.0","0","0","67534","","null","","","null","19","","","","","","","","","","","","","","","NaN",""
"","S1","","html-keyboard-response","130","154774","0.0-1.0-182.0","0","0","67534","","null","","","null","20","","","","","","","","","","","","","","","",""
"","ISI","","html-keyboard-response","131","155775","0.0-1.0-183.0","0","0","67534","","null","","","null","20","NaN","","","","","","","","","","","","","","",""
"","S2","","html-keyboard-response","132","156027","0.0-1.0-184.0","0","0","67534","","null","","","null","20","","NaN","","","","","","","","","","","","","",""
"","response","","html-keyboard-response","133","156781","0.0-1.0-185.0-0.0","0","0","67534","","752","","","68","20","","","1","20","training","adjacent","DE","4","5","P.jpg","Q.jpg","1","1","1","",""
"","feedback","","html-keyboard-response","134","157783","0.0-1.0-186.0-0.0","0","0","67534","","null","","","null","20","","","","","","","","","","","","","","","",""
"","ITI","","html-keyboard-response","135","158786","0.0-1.0-189.0","0","0","67534","","null","","","null","20","","","","","","","","","","","","","","","NaN",""
"","S1","","html-keyboard-response","136","159037","0.0-1.0-191.0","0","0","67534","","null","","","null","21","","","","","","","","","","","","","","","",""
"","ISI","","html-keyboard-response","137","160040","0.0-1.0-192.0","0","0","67534","","null","","","null","21","NaN","","","","","","","","","","","","","","",""
"","S2","","html-keyboard-response","138","160292","0.0-1.0-193.0","0","0","67534","","null","","","null","21","","NaN","","","","","","","","","","","","","",""
"","response","","html-keyboard-response","139","160933","0.0-1.0-194.0-0.0","0","0","67534","","640","","","75","21","","","1","21","training","adjacent","ED","5","4","Q.jpg","P.jpg","0","0","1","",""
"","feedback","","html-keyboard-response","140","161935","0.0-1.0-195.0-0.0","0","0","67534","","null","","","null","21","","","","","","","","","","","","","","","",""
"","ITI","","html-keyboard-response","141","162937","0.0-1.0-198.0","0","0","67534","","null","","","null","21","","","","","","","","","","","","","","","NaN",""
"","S1","","html-keyboard-response","142","163188","0.0-1.0-200.0","0","0","67534","","null","","","null","22","","","","","","","","","","","","","","","",""
"","ISI","","html-keyboard-response","143","164190","0.0-1.0-201.0","0","0","67534","","null","","","null","22","NaN","","","","","","","","","","","","","","",""
"","S2","","html-keyboard-response","144","164455","0.0-1.0-202.0","0","0","67534","","null","","","null","22","","NaN","","","","","","","","","","","","","",""
"","response","","html-keyboard-response","145","165173","0.0-1.0-203.0-0.0","0","0","67534","","718","","","68","22","","","1","22","training","adjacent","FG","6","7","O.jpg","R.jpg","1","1","1","",""
"","feedback","","html-keyboard-response","146","166175","0.0-1.0-204.0-0.0","0","0","67534","","null","","","null","22","","","","","","","","","","","","","","","",""
"","ITI","","html-keyboard-response","147","167177","0.0-1.0-207.0","0","0","67534","","null","","","null","22","","","","","","","","","","","","","","","NaN",""
"","S1","","html-keyboard-response","148","167430","0.0-1.0-209.0","0","0","67534","","null","","","null","23","","","","","","","","","","","","","","","",""
"","ISI","","html-keyboard-response","149","168432","0.0-1.0-210.0","0","0","67534","","null","","","null","23","NaN","","","","","","","","","","","","","","",""
"","S2","","html-keyboard-response","150","168684","0.0-1.0-211.0","0","0","67534","","null","","","null","23","","NaN","","","","","","","","","","","","","",""
"","response","","html-keyboard-response","151","169405","0.0-1.0-212.0-0.0","0","0","67534","","720","","","75","23","","","1","23","training","adjacent","FE","6","5","O.jpg","Q.jpg","0","0","1","",""
"","feedback","","html-keyboard-response","152","170407","0.0-1.0-213.0-0.0","0","0","67534","","null","","","null","23","","","","","","","","","","","","","","","",""
"","ITI","","html-keyboard-response","153","171409","0.0-1.0-216.0","0","0","67534","","null","","","null","23","","","","","","","","","","","","","","","NaN",""
"","S1","","html-keyboard-response","154","171661","0.0-1.0-218.0","0","0","67534","","null","","","null","24","","","","","","","","","","","","","","","",""
"","ISI","","html-keyboard-response","155","172663","0.0-1.0-219.0","0","0","67534","","null","","","null","24","NaN","","","","","","","","","","","","","","",""
"","S2","","html-keyboard-response","156","172915","0.0-1.0-220.0","0","0","67534","","null","","","null","24","","NaN","","","","","","","","","","","","","",""
"","response","","html-keyboard-response","157","173533","0.0-1.0-221.0-0.0","0","0","67534","","617","","","68","24","","","1","24","training","adjacent","CB","3","2","L.jpg","M.jpg","1","0","0","",""
"","feedback","","html-keyboard-response","158","174535","0.0-1.0-222.0-0.0","0","0","67534","","null","","","null","24","","","","","","","","","","","","","","","",""
"","time_out","","html-keyboard-response","159","176536","0.0-1.0-224.0-0.0","0","0","67534","","null","","","null","24","","","","","","","","","","","","","","","",""
"","ITI","","html-keyboard-response","160","177539","0.0-1.0-225.0","0","0","67534","","null","","","null","24","","","","","","","","","","","","","","","NaN",""
"","S1","","html-keyboard-response","161","177790","0.0-1.0-227.0","0","0","67534","","null","","","null","25","","","","","","","","","","","","","","","",""
"","ISI","","html-keyboard-response","162","178793","0.0-1.0-228.0","0","0","67534","","null","","","null","25","NaN","","","","","","","","","","","","","","",""
"","S2","","html-keyboard-response","163","179045","0.0-1.0-229.0","0","0","67534","","null","","","null","25","","NaN","","","","","","","","","","","","","",""
"","response","","html-keyboard-response","164","179614","0.0-1.0-230.0-0.0","0","0","67534","","568","","","75","25","","","1","25","training","adjacent","DC","4","3","P.jpg","L.jpg","0","0","1","",""
"","feedback","","html-keyboard-response","165","180616","0.0-1.0-231.0-0.0","0","0","67534","","null","","","null","25","","","","","","","","","","","","","","","",""
"","ITI","","html-keyboard-response","166","181618","0.0-1.0-234.0","0","0","67534","","null","","","null","25","","","","","","","","","","","","","","","NaN",""
"","S1","","html-keyboard-response","167","181871","0.0-1.0-236.0","0","0","67534","","null","","","null","26","","","","","","","","","","","","","","","",""
"","ISI","","html-keyboard-response","168","182873","0.0-1.0-237.0","0","0","67534","","null","","","null","26","NaN","","","","","","","","","","","","","","",""
"","S2","","html-keyboard-response","169","183125","0.0-1.0-238.0","0","0","67534","","null","","","null","26","","NaN","","","","","","","","","","","","","",""
"","response","","html-keyboard-response","170","183782","0.0-1.0-239.0-0.0","0","0","67534","","656","","","68","26","","","1","26","training","adjacent","FG","6","7","O.jpg","R.jpg","1","1","1","",""
"","feedback","","html-keyboard-response","171","184785","0.0-1.0-240.0-0.0","0","0","67534","","null","","","null","26","","","","","","","","","","","","","","","",""
"","ITI","","html-keyboard-response","172","185787","0.0-1.0-243.0","0","0","67534","","null","","","null","26","","","","","","","","","","","","","","","NaN",""
"","S1","","html-keyboard-response","173","186039","0.0-1.0-245.0","0","0","67534","","null","","","null","27","","","","","","","","","","","","","","","",""
"","ISI","","html-keyboard-response","174","187041","0.0-1.0-246.0","0","0","67534","","null","","","null","27","NaN","","","","","","","","","","","","","","",""
"","S2","","html-keyboard-response","175","187292","0.0-1.0-247.0","0","0","67534","","null","","","null","27","","NaN","","","","","","","","","","","","","",""
"","response","","html-keyboard-response","176","187702","0.0-1.0-248.0-0.0","0","0","67534","","409","","","68","27","","","1","27","training","adjacent","CB","3","2","L.jpg","M.jpg","1","0","0","",""
"","feedback","","html-keyboard-response","177","188703","0.0-1.0-249.0-0.0","0","0","67534","","null","","","null","27","","","","","","","","","","","","","","","",""
"","time_out","","html-keyboard-response","178","190706","0.0-1.0-251.0-0.0","0","0","67534","","null","","","null","27","","","","","","","","","","","","","","","",""
"","ITI","","html-keyboard-response","179","191708","0.0-1.0-252.0","0","0","67534","","null","","","null","27","","","","","","","","","","","","","","","NaN",""
"","S1","","html-keyboard-response","180","191959","0.0-1.0-254.0","0","0","67534","","null","","","null","28","","","","","","","","","","","","","","","",""
"","ISI","","html-keyboard-response","181","192961","0.0-1.0-255.0","0","0","67534","","null","","","null","28","NaN","","","","","","","","","","","","","","",""
"","S2","","html-keyboard-response","182","193212","0.0-1.0-256.0","0","0","67534","","null","","","null","28","","NaN","","","","","","","","","","","","","",""
"","response","","html-keyboard-response","183","193622","0.0-1.0-257.0-0.0","0","0","67534","","409","","","75","28","","","1","28","training","adjacent","GF","7","6","R.jpg","O.jpg","0","0","1","",""
"","feedback","","html-keyboard-response","184","194624","0.0-1.0-258.0-0.0","0","0","67534","","null","","","null","28","","","","","","","","","","","","","","","",""
"","ITI","","html-keyboard-response","185","195625","0.0-1.0-261.0","0","0","67534","","null","","","null","28","","","","","","","","","","","","","","","NaN",""
"","S1","","html-keyboard-response","186","195878","0.0-1.0-263.0","0","0","67534","","null","","","null","29","","","","","","","","","","","","","","","",""
"","ISI","","html-keyboard-response","187","196880","0.0-1.0-264.0","0","0","67534","","null","","","null","29","NaN","","","","","","","","","","","","","","",""
"","S2","","html-keyboard-response","188","197133","0.0-1.0-265.0","0","0","67534","","null","","","null","29","","NaN","","","","","","","","","","","","","",""
"","response","","html-keyboard-response","189","197374","0.0-1.0-266.0-0.0","0","0","67534","","241","","","75","29","","","1","29","training","adjacent","GF","7","6","R.jpg","O.jpg","0","0","1","",""
"","feedback","","html-keyboard-response","190","198376","0.0-1.0-267.0-0.0","0","0","67534","","null","","","null","29","","","","","","","","","","","","","","","",""
"","ITI","","html-keyboard-response","191","199379","0.0-1.0-270.0","0","0","67534","","null","","","null","29","","","","","","","","","","","","","","","NaN",""
"","S1","","html-keyboard-response","192","199631","0.0-1.0-272.0","0","0","67534","","null","","","null","30","","","","","","","","","","","","","","","",""
"","ISI","","html-keyboard-response","193","200633","0.0-1.0-273.0","0","0","67534","","null","","","null","30","NaN","","","","","","","","","","","","","","",""
"","S2","","html-keyboard-response","194","200885","0.0-1.0-274.0","0","0","67534","","null","","","null","30","","NaN","","","","","","","","","","","","","",""
"","response","","html-keyboard-response","195","201590","0.0-1.0-275.0-0.0","0","0","67534","","703","","","75","30","","","1","30","training","adjacent","DE","4","5","P.jpg","Q.jpg","0","1","0","",""
"","feedback","","html-keyboard-response","196","202592","0.0-1.0-276.0-0.0","0","0","67534","","null","","","null","30","","","","","","","","","","","","","","","",""
"","time_out","","html-keyboard-response","197","204594","0.0-1.0-278.0-0.0","0","0","67534","","null","","","null","30","","","","","","","","","","","","","","","",""
"","ITI","","html-keyboard-response","198","205596","0.0-1.0-279.0","0","0","67534","","null","","","null","30","","","","","","","","","","","","","","","NaN",""
"","S1","","html-keyboard-response","199","205848","0.0-1.0-281.0","0","0","67534","","null","","","null","31","","","","","","","","","","","","","","","",""
"","ISI","","html-keyboard-response","200","206851","0.0-1.0-282.0","0","0","67534","","null","","","null","31","NaN","","","","","","","","","","","","","","",""
"","S2","","html-keyboard-response","201","207103","0.0-1.0-283.0","0","0","67534","","null","","","null","31","","NaN","","","","","","","","","","","","","",""
"","response","","html-keyboard-response","202","207615","0.0-1.0-284.0-0.0","0","0","67534","","510","","","68","31","","","1","31","training","adjacent","EF","5","6","Q.jpg","O.jpg","1","1","1","",""
"","feedback","","html-keyboard-response","203","208617","0.0-1.0-285.0-0.0","0","0","67534","","null","","","null","31","","","","","","","","","","","","","","","",""
"","ITI","","html-keyboard-response","204","209618","0.0-1.0-288.0","0","0","67534","","null","","","null","31","","","","","","","","","","","","","","","NaN",""
"","S1","","html-keyboard-response","205","209870","0.0-1.0-290.0","0","0","67534","","null","","","null","32","","","","","","","","","","","","","","","",""
"","ISI","","html-keyboard-response","206","210872","0.0-1.0-291.0","0","0","67534","","null","","","null","32","NaN","","","","","","","","","","","","","","",""
"","S2","","html-keyboard-response","207","211124","0.0-1.0-292.0","0","0","67534","","null","","","null","32","","NaN","","","","","","","","","","","","","",""
"","response","","html-keyboard-response","208","211846","0.0-1.0-293.0-0.0","0","0","67534","","722","","","75","32","","","1","32","training","adjacent","FE","6","5","O.jpg","Q.jpg","0","0","1","",""
"","feedback","","html-keyboard-response","209","212848","0.0-1.0-294.0-0.0","0","0","67534","","null","","","null","32","","","","","","","","","","","","","","","",""
"","ITI","","html-keyboard-response","210","213850","0.0-1.0-297.0","0","0","67534","","null","","","null","32","","","","","","","","","","","","","","","NaN",""
"","S1","","html-keyboard-response","211","214102","0.0-1.0-299.0","0","0","67534","","null","","","null","33","","","","","","","","","","","","","","","",""
"","ISI","","html-keyboard-response","212","215117","0.0-1.0-300.0","0","0","67534","","null","","","null","33","NaN","","","","","","","","","","","","","","",""
"","S2","","html-keyboard-response","213","215369","0.0-1.0-301.0","0","0","67534","","null","","","null","33","","NaN","","","","","","","","","","","","","",""
"","response","","html-keyboard-response","214","215926","0.0-1.0-302.0-0.0","0","0","67534","","556","","","68","33","","","1","33","training","adjacent","CB","3","2","L.jpg","M.jpg","1","0","0","",""
"","feedback","","html-keyboard-response","215","216927","0.0-1.0-303.0-0.0","0","0","67534","","null","","","null","33","","","","","","","","","","","","","","","",""
"","time_out","","html-keyboard-response","216","218929","0.0-1.0-305.0-0.0","0","0","67534","","null","","","null","33","","","","","","","","","","","","","","","",""
"","ITI","","html-keyboard-response","217","219931","0.0-1.0-306.0","0","0","67534","","null","","","null","33","","","","","","","","","","","","","","","NaN",""
"","S1","","html-keyboard-response","218","220182","0.0-1.0-308.0","0","0","67534","","null","","","null","34","","","","","","","","","","","","","","","",""
"","ISI","","html-keyboard-response","219","221184","0.0-1.0-309.0","0","0","67534","","null","","","null","34","NaN","","","","","","","","","","","","","","",""
"","S2","","html-keyboard-response","220","221436","0.0-1.0-310.0","0","0","67534","","null","","","null","34","","NaN","","","","","","","","","","","","","",""
"","response","","html-keyboard-response","221","221974","0.0-1.0-311.0-0.0","0","0","67534","","538","","","68","34","","","1","34","training","adjacent","AB","1","2","N.jpg","M.jpg","1","1","1","",""
"","feedback","","html-keyboard-response","222","222977","0.0-1.0-312.0-0.0","0","0","67534","","null","","","null","34","","","","","","","","","","","","","","","",""
"","ITI","","html-keyboard-response","223","223979","0.0-1.0-315.0","0","0","67534","","null","","","null","34","","","","","","","","","","","","","","","NaN",""
"","S1","","html-keyboard-response","224","224231","0.0-1.0-317.0","0","0","67534","","null","","","null","35","","","","","","","","","","","","","","","",""
"","ISI","","html-keyboard-response","225","225233","0.0-1.0-318.0","0","0","67534","","null","","","null","35","NaN","","","","","","","","","","","","","","",""
"","S2","","html-keyboard-response","226","225485","0.0-1.0-319.0","0","0","67534","","null","","","null","35","","NaN","","","","","","","","","","","","","",""
"","response","","html-keyboard-response","227","226150","0.0-1.0-320.0-0.0","0","0","67534","","665","","","68","35","","","1","35","training","adjacent","BC","2","3","M.jpg","L.jpg","1","1","1","",""
"","feedback","","html-keyboard-response","228","227152","0.0-1.0-321.0-0.0","0","0","67534","","null","","","null","35","","","","","","","","","","","","","","","",""
"","ITI","","html-keyboard-response","229","228155","0.0-1.0-324.0","0","0","67534","","null","","","null","35","","","","","","","","","","","","","","","NaN",""
"","S1","","html-keyboard-response","230","228406","0.0-1.0-326.0","0","0","67534","","null","","","null","36","","","","","","","","","","","","","","","",""
"","ISI","","html-keyboard-response","231","229408","0.0-1.0-327.0","0","0","67534","","null","","","null","36","NaN","","","","","","","","","","","","","","",""
"","S2","","html-keyboard-response","232","229660","0.0-1.0-328.0","0","0","67534","","null","","","null","36","","NaN","","","","","","","","","","","","","",""
"","response","","html-keyboard-response","233","230054","0.0-1.0-329.0-0.0","0","0","67534","","393","","","68","36","","","1","36","training","adjacent","BC","2","3","M.jpg","L.jpg","1","1","1","",""
"","feedback","","html-keyboard-response","234","231057","0.0-1.0-330.0-0.0","0","0","67534","","null","","","null","36","","","","","","","","","","","","","","","",""
"","ITI","","html-keyboard-response","235","232059","0.0-1.0-333.0","0","0","67534","","null","","","null","36","","","","","","","","","","","","","","","NaN",""
"","S1","","html-keyboard-response","236","232311","0.0-1.0-335.0","0","0","67534","","null","","","null","37","","","","","","","","","","","","","","","",""
"","ISI","","html-keyboard-response","237","233313","0.0-1.0-336.0","0","0","67534","","null","","","null","37","NaN","","","","","","","","","","","","","","",""
"","S2","","html-keyboard-response","238","233564","0.0-1.0-337.0","0","0","67534","","null","","","null","37","","NaN","","","","","","","","","","","","","",""
"","response","","html-keyboard-response","239","234070","0.0-1.0-338.0-0.0","0","0","67534","","506","","","75","37","","","1","37","training","adjacent","FE","6","5","O.jpg","Q.jpg","0","0","1","",""
"","feedback","","html-keyboard-response","240","235072","0.0-1.0-339.0-0.0","0","0","67534","","null","","","null","37","","","","","","","","","","","","","","","",""
"","ITI","","html-keyboard-response","241","236074","0.0-1.0-342.0","0","0","67534","","null","","","null","37","","","","","","","","","","","","","","","NaN",""
"","S1","","html-keyboard-response","242","236326","0.0-1.0-344.0","0","0","67534","","null","","","null","38","","","","","","","","","","","","","","","",""
"","ISI","","html-keyboard-response","243","237329","0.0-1.0-345.0","0","0","67534","","null","","","null","38","NaN","","","","","","","","","","","","","","",""
"","S2","","html-keyboard-response","244","237580","0.0-1.0-346.0","0","0","67534","","null","","","null","38","","NaN","","","","","","","","","","","","","",""
"","response","","html-keyboard-response","245","238087","0.0-1.0-347.0-0.0","0","0","67534","","506","","","75","38","","","1","38","training","adjacent","GF","7","6","R.jpg","O.jpg","0","0","1","",""
"","feedback","","html-keyboard-response","246","239089","0.0-1.0-348.0-0.0","0","0","67534","","null","","","null","38","","","","","","","","","","","","","","","",""
"","ITI","","html-keyboard-response","247","240091","0.0-1.0-351.0","0","0","67534","","null","","","null","38","","","","","","","","","","","","","","","NaN",""
"","S1","","html-keyboard-response","248","240343","0.0-1.0-353.0","0","0","67534","","null","","","null","39","","","","","","","","","","","","","","","",""
"","ISI","","html-keyboard-response","249","241344","0.0-1.0-354.0","0","0","67534","","null","","","null","39","NaN","","","","","","","","","","","","","","",""
"","S2","","html-keyboard-response","250","241596","0.0-1.0-355.0","0","0","67534","","null","","","null","39","","NaN","","","","","","","","","","","","","",""
"","response","","html-keyboard-response","251","242102","0.0-1.0-356.0-0.0","0","0","67534","","506","","","68","39","","","1","39","training","adjacent","ED","5","4","Q.jpg","P.jpg","1","0","0","",""
"","feedback","","html-keyboard-response","252","243105","0.0-1.0-357.0-0.0","0","0","67534","","null","","","null","39","","","","","","","","","","","","","","","",""
"","time_out","","html-keyboard-response","253","245106","0.0-1.0-359.0-0.0","0","0","67534","","null","","","null","39","","","","","","","","","","","","","","","",""
"","ITI","","html-keyboard-response","254","246109","0.0-1.0-360.0","0","0","67534","","null","","","null","39","","","","","","","","","","","","","","","NaN",""
"","S1","","html-keyboard-response","255","246361","0.0-1.0-362.0","0","0","67534","","null","","","null","40","","","","","","","","","","","","","","","",""
"","ISI","","html-keyboard-response","256","247363","0.0-1.0-363.0","0","0","67534","","null","","","null","40","NaN","","","","","","","","","","","","","","",""
"","S2","","html-keyboard-response","257","247615","0.0-1.0-364.0","0","0","67534","","null","","","null","40","","NaN","","","","","","","","","","","","","",""
"","response","","html-keyboard-response","258","248559","0.0-1.0-365.0-0.0","0","0","67534","","944","","","75","40","","","1","40","training","adjacent","FG","6","7","O.jpg","R.jpg","0","1","0","",""
"","feedback","","html-keyboard-response","259","249561","0.0-1.0-366.0-0.0","0","0","67534","","null","","","null","40","","","","","","","","","","","","","","","",""
"","time_out","","html-keyboard-response","260","251563","0.0-1.0-368.0-0.0","0","0","67534","","null","","","null","40","","","","","","","","","","","","","","","",""
"","ITI","","html-keyboard-response","261","252565","0.0-1.0-369.0","0","0","67534","","null","","","null","40","","","","","","","","","","","","","","","NaN",""
"","S1","","html-keyboard-response","262","252817","0.0-1.0-371.0","0","0","67534","","null","","","null","41","","","","","","","","","","","","","","","",""
"","ISI","","html-keyboard-response","263","253818","0.0-1.0-372.0","0","0","67534","","null","","","null","41","NaN","","","","","","","","","","","","","","",""
"","S2","","html-keyboard-response","264","254071","0.0-1.0-373.0","0","0","67534","","null","","","null","41","","NaN","","","","","","","","","","","","","",""
"","response","","html-keyboard-response","265","254624","0.0-1.0-374.0-0.0","0","0","67534","","552","","","68","41","","","1","41","training","adjacent","BC","2","3","M.jpg","L.jpg","1","1","1","",""
"","feedback","","html-keyboard-response","266","255626","0.0-1.0-375.0-0.0","0","0","67534","","null","","","null","41","","","","","","","","","","","","","","","",""
"","ITI","","html-keyboard-response","267","256627","0.0-1.0-378.0","0","0","67534","","null","","","null","41","","","","","","","","","","","","","","","NaN",""
"","S1","","html-keyboard-response","268","256880","0.0-1.0-380.0","0","0","67534","","null","","","null","42","","","","","","","","","","","","","","","",""
"","ISI","","html-keyboard-response","269","257882","0.0-1.0-381.0","0","0","67534","","null","","","null","42","NaN","","","","","","","","","","","","","","",""
"","S2","","html-keyboard-response","270","258135","0.0-1.0-382.0","0","0","67534","","null","","","null","42","","NaN","","","","","","","","","","","","","",""
"","response","","html-keyboard-response","271","258487","0.0-1.0-383.0-0.0","0","0","67534","","352","","","68","42","","","1","42","training","adjacent","ED","5","4","Q.jpg","P.jpg","1","0","0","",""
"","feedback","","html-keyboard-response","272","259490","0.0-1.0-384.0-0.0","0","0","67534","","null","","","null","42","","","","","","","","","","","","","","","",""
"","time_out","","html-keyboard-response","273","261491","0.0-1.0-386.0-0.0","0","0","67534","","null","","","null","42","","","","","","","","","","","","","","","",""
"","ITI","","html-keyboard-response","274","262493","0.0-1.0-387.0","0","0","67534","","null","","","null","42","","","","","","","","","","","","","","","NaN",""
"","S1","","html-keyboard-response","275","262744","0.0-1.0-389.0","0","0","67534","","null","","","null","43","","","","","","","","","","","","","","","",""
"","ISI","","html-keyboard-response","276","263746","0.0-1.0-390.0","0","0","67534","","null","","","null","43","NaN","","","","","","","","","","","","","","",""
"","S2","","html-keyboard-response","277","263998","0.0-1.0-391.0","0","0","67534","","null","","","null","43","","NaN","","","","","","","","","","","","","",""
"","response","","html-keyboard-response","278","264311","0.0-1.0-392.0-0.0","0","0","67534","","312","","","75","43","","","1","43","training","adjacent","BC","2","3","M.jpg","L.jpg","0","1","0","",""
"","feedback","","html-keyboard-response","279","265313","0.0-1.0-393.0-0.0","0","0","67534","","null","","","null","43","","","","","","","","","","","","","","","",""
"","time_out","","html-keyboard-response","280","267314","0.0-1.0-395.0-0.0","0","0","67534","","null","","","null","43","","","","","","","","","","","","","","","",""
"","ITI","","html-keyboard-response","281","268316","0.0-1.0-396.0","0","0","67534","","null","","","null","43","","","","","","","","","","","","","","","NaN",""
"","S1","","html-keyboard-response","282","268567","0.0-1.0-398.0","0","0","67534","","null","","","null","44","","","","","","","","","","","","","","","",""
"","ISI","","html-keyboard-response","283","269569","0.0-1.0-399.0","0","0","67534","","null","","","null","44","NaN","","","","","","","","","","","","","","",""
"","S2","","html-keyboard-response","284","269820","0.0-1.0-400.0","0","0","67534","","null","","","null","44","","NaN","","","","","","","","","","","","","",""
"","response","","html-keyboard-response","285","270735","0.0-1.0-401.0-0.0","0","0","67534","","914","","","68","44","","","1","44","training","adjacent","CD","3","4","L.jpg","P.jpg","1","1","1","",""
"","feedback","","html-keyboard-response","286","271737","0.0-1.0-402.0-0.0","0","0","67534","","null","","","null","44","","","","","","","","","","","","","","","",""
"","ITI","","html-keyboard-response","287","272739","0.0-1.0-405.0","0","0","67534","","null","","","null","44","","","","","","","","","","","","","","","NaN",""
"","S1","","html-keyboard-response","288","272991","0.0-1.0-407.0","0","0","67534","","null","","","null","45","","","","","","","","","","","","","","","",""
"","ISI","","html-keyboard-response","289","273993","0.0-1.0-408.0","0","0","67534","","null","","","null","45","NaN","","","","","","","","","","","","","","",""
"","S2","","html-keyboard-response","290","274246","0.0-1.0-409.0","0","0","67534","","null","","","null","45","","NaN","","","","","","","","","","","","","",""
"","response","","html-keyboard-response","291","274832","0.0-1.0-410.0-0.0","0","0","67534","","585","","","68","45","","","1","45","training","adjacent","GF","7","6","R.jpg","O.jpg","1","0","0","",""
"","feedback","","html-keyboard-response","292","275833","0.0-1.0-411.0-0.0","0","0","67534","","null","","","null","45","","","","","","","","","","","","","","","",""
"","time_out","","html-keyboard-response","293","277835","0.0-1.0-413.0-0.0","0","0","67534","","null","","","null","45","","","","","","","","","","","","","","","",""
"","ITI","","html-keyboard-response","294","278836","0.0-1.0-414.0","0","0","67534","","null","","","null","45","","","","","","","","","","","","","","","NaN",""
"","S1","","html-keyboard-response","295","279089","0.0-1.0-416.0","0","0","67534","","null","","","null","46","","","","","","","","","","","","","","","",""
"","ISI","","html-keyboard-response","296","280091","0.0-1.0-417.0","0","0","67534","","null","","","null","46","NaN","","","","","","","","","","","","","","",""
"","S2","","html-keyboard-response","297","280343","0.0-1.0-418.0","0","0","67534","","null","","","null","46","","NaN","","","","","","","","","","","","","",""
"","response","","html-keyboard-response","298","281288","0.0-1.0-419.0-0.0","0","0","67534","","944","","","68","46","","","1","46","training","adjacent","DC","4","3","P.jpg","L.jpg","1","0","0","",""
"","feedback","","html-keyboard-response","299","282289","0.0-1.0-420.0-0.0","0","0","67534","","null","","","null","46","","","","","","","","","","","","","","","",""
"","time_out","","html-keyboard-response","300","284292","0.0-1.0-422.0-0.0","0","0","67534","","null","","","null","46","","","","","","","","","","","","","","","",""
"","ITI","","html-keyboard-response","301","285295","0.0-1.0-423.0","0","0","67534","","null","","","null","46","","","","","","","","","","","","","","","NaN",""
"","S1","","html-keyboard-response","302","285547","0.0-1.0-425.0","0","0","67534","","null","","","null","47","","","","","","","","","","","","","","","",""
"","ISI","","html-keyboard-response","303","286549","0.0-1.0-426.0","0","0","67534","","null","","","null","47","NaN","","","","","","","","","","","","","","",""
"","S2","","html-keyboard-response","304","286800","0.0-1.0-427.0","0","0","67534","","null","","","null","47","","NaN","","","","","","","","","","","","","",""
"","response","","html-keyboard-response","305","286904","0.0-1.0-428.0-0.0","0","0","67534","","103","","","68","47","","","1","47","training","adjacent","AB","1","2","N.jpg","M.jpg","1","1","1","",""
"","feedback","","html-keyboard-response","306","287906","0.0-1.0-429.0-0.0","0","0","67534","","null","","","null","47","","","","","","","","","","","","","","","",""
"","ITI","","html-keyboard-response","307","288907","0.0-1.0-432.0","0","0","67534","","null","","","null","47","","","","","","","","","","","","","","","NaN",""
"","block_over","","html-keyboard-response","308","314290","0.0-1.0-433.0-0.0","0","0","67534","","25381","","","32","47","","","","","","","","","","","","","","","",""
"","S1","","html-keyboard-response","309","314541","0.0-1.0-434.0","0","0","67534","","null","","","null","48","","","","","","","","","","","","","","","",""
"","ISI","","html-keyboard-response","310","315543","0.0-1.0-435.0","0","0","67534","","null","","","null","48","NaN","","","","","","","","","","","","","","",""
"","S2","","html-keyboard-response","311","315805","0.0-1.0-436.0","0","0","67534","","null","","","null","48","","NaN","","","","","","","","","","","","","",""
"","response","","html-keyboard-response","312","316537","0.0-1.0-437.0-0.0","0","0","67534","","731","","","75","48","","","2","48","training","adjacent","DE","4","5","P.jpg","Q.jpg","0","1","0","",""
"","feedback","","html-keyboard-response","313","317539","0.0-1.0-438.0-0.0","0","0","67534","","null","","","null","48","","","","","","","","","","","","","","","",""
"","time_out","","html-keyboard-response","314","319541","0.0-1.0-440.0-0.0","0","0","67534","","null","","","null","48","","","","","","","","","","","","","","","",""
"","ITI","","html-keyboard-response","315","320542","0.0-1.0-441.0","0","0","67534","","null","","","null","48","","","","","","","","","","","","","","","NaN",""
"","S1","","html-keyboard-response","316","320794","0.0-1.0-443.0","0","0","67534","","null","","","null","49","","","","","","","","","","","","","","","",""
"","ISI","","html-keyboard-response","317","321796","0.0-1.0-444.0","0","0","67534","","null","","","null","49","NaN","","","","","","","","","","","","","","",""
"","S2","","html-keyboard-response","318","322047","0.0-1.0-445.0","0","0","67534","","null","","","null","49","","NaN","","","","","","","","","","","","","",""
"","response","","html-keyboard-response","319","322442","0.0-1.0-446.0-0.0","0","0","67534","","393","","","68","49","","","2","49","training","adjacent","EF","5","6","Q.jpg","O.jpg","1","1","1","",""
"","feedback","","html-keyboard-response","320","323444","0.0-1.0-447.0-0.0","0","0","67534","","null","","","null","49","","","","","","","","","","","","","","","",""
"","ITI","","html-keyboard-response","321","324446","0.0-1.0-450.0","0","0","67534","","null","","","null","49","","","","","","","","","","","","","","","NaN",""
"","S1","","html-keyboard-response","322","324699","0.0-1.0-452.0","0","0","67534","","null","","","null","50","","","","","","","","","","","","","","","",""
"","ISI","","html-keyboard-response","323","325701","0.0-1.0-453.0","0","0","67534","","null","","","null","50","NaN","","","","","","","","","","","","","","",""
"","S2","","html-keyboard-response","324","325953","0.0-1.0-454.0","0","0","67534","","null","","","null","50","","NaN","","","","","","","","","","","","","",""
"","response","","html-keyboard-response","325","326705","0.0-1.0-455.0-0.0","0","0","67534","","752","","","68","50","","","2","50","training","adjacent","BC","2","3","M.jpg","L.jpg","1","1","1","",""
"","feedback","","html-keyboard-response","326","327707","0.0-1.0-456.0-0.0","0","0","67534","","null","","","null","50","","","","","","","","","","","","","","","",""
"","ITI","","html-keyboard-response","327","328708","0.0-1.0-459.0","0","0","67534","","null","","","null","50","","","","","","","","","","","","","","","NaN",""
"","S1","","html-keyboard-response","328","328960","0.0-1.0-461.0","0","0","67534","","null","","","null","51","","","","","","","","","","","","","","","",""
"","ISI","","html-keyboard-response","329","329962","0.0-1.0-462.0","0","0","67534","","null","","","null","51","NaN","","","","","","","","","","","","","","",""
"","S2","","html-keyboard-response","330","330215","0.0-1.0-463.0","0","0","67534","","null","","","null","51","","NaN","","","","","","","","","","","","","",""
"","response","","html-keyboard-response","331","330745","0.0-1.0-464.0-0.0","0","0","67534","","528","","","68","51","","","2","51","training","adjacent","CD","3","4","L.jpg","P.jpg","1","1","1","",""
"","feedback","","html-keyboard-response","332","331747","0.0-1.0-465.0-0.0","0","0","67534","","null","","","null","51","","","","","","","","","","","","","","","",""
"","ITI","","html-keyboard-response","333","332748","0.0-1.0-468.0","0","0","67534","","null","","","null","51","","","","","","","","","","","","","","","NaN",""
"","S1","","html-keyboard-response","334","333000","0.0-1.0-470.0","0","0","67534","","null","","","null","52","","","","","","","","","","","","","","","",""
"","ISI","","html-keyboard-response","335","334002","0.0-1.0-471.0","0","0","67534","","null","","","null","52","NaN","","","","","","","","","","","","","","",""
"","S2","","html-keyboard-response","336","334254","0.0-1.0-472.0","0","0","67534","","null","","","null","52","","NaN","","","","","","","","","","","","","",""
"","response","","html-keyboard-response","337","334730","0.0-1.0-473.0-0.0","0","0","67534","","475","","","68","52","","","2","52","training","adjacent","CD","3","4","L.jpg","P.jpg","1","1","1","",""
"","feedback","","html-keyboard-response","338","335732","0.0-1.0-474.0-0.0","0","0","67534","","null","","","null","52","","","","","","","","","","","","","","","",""
"","ITI","","html-keyboard-response","339","336734","0.0-1.0-477.0","0","0","67534","","null","","","null","52","","","","","","","","","","","","","","","NaN",""
"","S1","","html-keyboard-response","340","336986","0.0-1.0-479.0","0","0","67534","","null","","","null","53","","","","","","","","","","","","","","","",""
"","ISI","","html-keyboard-response","341","337987","0.0-1.0-480.0","0","0","67534","","null","","","null","53","NaN","","","","","","","","","","","","","","",""
"","S2","","html-keyboard-response","342","338239","0.0-1.0-481.0","0","0","67534","","null","","","null","53","","NaN","","","","","","","","","","","","","",""
"","response","","html-keyboard-response","343","338642","0.0-1.0-482.0-0.0","0","0","67534","","402","","","75","53","","","2","53","training","adjacent","FG","6","7","O.jpg","R.jpg","0","1","0","",""
"","feedback","","html-keyboard-response","344","339644","0.0-1.0-483.0-0.0","0","0","67534","","null","","","null","53","","","","","","","","","","","","","","","",""
"","time_out","","html-keyboard-response","345","341646","0.0-1.0-485.0-0.0","0","0","67534","","null","","","null","53","","","","","","","","","","","","","","","",""
"","ITI","","html-keyboard-response","346","342656","0.0-1.0-486.0","0","0","67534","","null","","","null","53","","","","","","","","","","","","","","","NaN",""
"","S1","","html-keyboard-response","347","342908","0.0-1.0-488.0","0","0","67534","","null","","","null","54","","","","","","","","","","","","","","","",""
"","ISI","","html-keyboard-response","348","343909","0.0-1.0-489.0","0","0","67534","","null","","","null","54","NaN","","","","","","","","","","","","","","",""
"","S2","","html-keyboard-response","349","344161","0.0-1.0-490.0","0","0","67534","","null","","","null","54","","NaN","","","","","","","","","","","","","",""
"","response","","html-keyboard-response","350","344786","0.0-1.0-491.0-0.0","0","0","67534","","624","","","68","54","","","2","54","training","adjacent","ED","5","4","Q.jpg","P.jpg","1","0","0","",""
"","feedback","","html-keyboard-response","351","345788","0.0-1.0-492.0-0.0","0","0","67534","","null","","","null","54","","","","","","","","","","","","","","","",""
"","time_out","","html-keyboard-response","352","347791","0.0-1.0-494.0-0.0","0","0","67534","","null","","","null","54","","","","","","","","","","","","","","","",""
"","ITI","","html-keyboard-response","353","348792","0.0-1.0-495.0","0","0","67534","","null","","","null","54","","","","","","","","","","","","","","","NaN",""
"","S1","","html-keyboard-response","354","349044","0.0-1.0-497.0","0","0","67534","","null","","","null","55","","","","","","","","","","","","","","","",""
"","ISI","","html-keyboard-response","355","350046","0.0-1.0-498.0","0","0","67534","","null","","","null","55","NaN","","","","","","","","","","","","","","",""
"","S2","","html-keyboard-response","356","350297","0.0-1.0-499.0","0","0","67534","","null","","","null","55","","NaN","","","","","","","","","","","","","",""
"","response","","html-keyboard-response","357","350826","0.0-1.0-500.0-0.0","0","0","67534","","527","","","75","55","","","2","55","training","adjacent","DC","4","3","P.jpg","L.jpg","0","0","1","",""
"","feedback","","html-keyboard-response","358","351828","0.0-1.0-501.0-0.0","0","0","67534","","null","","","null","55","","","","","","","","","","","","","","","",""
"","ITI","","html-keyboard-response","359","352829","0.0-1.0-504.0","0","0","67534","","null","","","null","55","","","","","","","","","","","","","","","NaN",""
"","S1","","html-keyboard-response","360","353081","0.0-1.0-506.0","0","0","67534","","null","","","null","56","","","","","","","","","","","","","","","",""
"","ISI","","html-keyboard-response","361","354083","0.0-1.0-507.0","0","0","67534","","null","","","null","56","NaN","","","","","","","","","","","","","","",""
"","S2","","html-keyboard-response","362","354335","0.0-1.0-508.0","0","0","67534","","null","","","null","56","","NaN","","","","","","","","","","","","","",""
"","response","","html-keyboard-response","363","354778","0.0-1.0-509.0-0.0","0","0","67534","","441","","","75","56","","","2","56","training","adjacent","FE","6","5","O.jpg","Q.jpg","0","0","1","",""
"","feedback","","html-keyboard-response","364","355779","0.0-1.0-510.0-0.0","0","0","67534","","null","","","null","56","","","","","","","","","","","","","","","",""
"","ITI","","html-keyboard-response","365","356782","0.0-1.0-513.0","0","0","67534","","null","","","null","56","","","","","","","","","","","","","","","NaN",""
"","S1","","html-keyboard-response","366","357034","0.0-1.0-515.0","0","0","67534","","null","","","null","57","","","","","","","","","","","","","","","",""
"","ISI","","html-keyboard-response","367","358036","0.0-1.0-516.0","0","0","67534","","null","","","null","57","NaN","","","","","","","","","","","","","","",""
"","S2","","html-keyboard-response","368","358288","0.0-1.0-517.0","0","0","67534","","null","","","null","57","","NaN","","","","","","","","","","","","","",""
"","response","","html-keyboard-response","369","358834","0.0-1.0-518.0-0.0","0","0","67534","","545","","","75","57","","","2","57","training","adjacent","FG","6","7","O.jpg","R.jpg","0","1","0","",""
"","feedback","","html-keyboard-response","370","359836","0.0-1.0-519.0-0.0","0","0","67534","","null","","","null","57","","","","","","","","","","","","","","","",""
"","time_out","","html-keyboard-response","371","361838","0.0-1.0-521.0-0.0","0","0","67534","","null","","","null","57","","","","","","","","","","","","","","","",""
"","ITI","","html-keyboard-response","372","362839","0.0-1.0-522.0","0","0","67534","","null","","","null","57","","","","","","","","","","","","","","","NaN",""
"","S1","","html-keyboard-response","373","363090","0.0-1.0-524.0","0","0","67534","","null","","","null","58","","","","","","","","","","","","","","","",""
"","ISI","","html-keyboard-response","374","364092","0.0-1.0-525.0","0","0","67534","","null","","","null","58","NaN","","","","","","","","","","","","","","",""
"","S2","","html-keyboard-response","375","364343","0.0-1.0-526.0","0","0","67534","","null","","","null","58","","NaN","","","","","","","","","","","","","",""
"","response","","html-keyboard-response","376","364763","0.0-1.0-527.0-0.0","0","0","67534","","418","","","75","58","","","2","58","training","adjacent","BC","2","3","M.jpg","L.jpg","0","1","0","",""
"","feedback","","html-keyboard-response","377","365764","0.0-1.0-528.0-0.0","0","0","67534","","null","","","null","58","","","","","","","","","","","","","","","",""
"","time_out","","html-keyboard-response","378","367766","0.0-1.0-530.0-0.0","0","0","67534","","null","","","null","58","","","","","","","","","","","","","","","",""
"","ITI","","html-keyboard-response","379","368768","0.0-1.0-531.0","0","0","67534","","null","","","null","58","","","","","","","","","","","","","","","NaN",""
"","S1","","html-keyboard-response","380","369019","0.0-1.0-533.0","0","0","67534","","null","","","null","59","","","","","","","","","","","","","","","",""
"","ISI","","html-keyboard-response","381","370020","0.0-1.0-534.0","0","0","67534","","null","","","null","59","NaN","","","","","","","","","","","","","","",""
"","S2","","html-keyboard-response","382","370273","0.0-1.0-535.0","0","0","67534","","null","","","null","59","","NaN","","","","","","","","","","","","","",""
"","response","","html-keyboard-response","383","370691","0.0-1.0-536.0-0.0","0","0","67534","","418","","","68","59","","","2","59","training","adjacent","GF","7","6","R.jpg","O.jpg","1","0","0","",""
"","feedback","","html-keyboard-response","384","371693","0.0-1.0-537.0-0.0","0","0","67534","","null","","","null","59","","","","","","","","","","","","","","","",""
"","time_out","","html-keyboard-response","385","373695","0.0-1.0-539.0-0.0","0","0","67534","","null","","","null","59","","","","","","","","","","","","","","","",""
"","ITI","","html-keyboard-response","386","374697","0.0-1.0-540.0","0","0","67534","","null","","","null","59","","","","","","","","","","","","","","","NaN",""
"","S1","","html-keyboard-response","387","374949","0.0-1.0-542.0","0","0","67534","","null","","","null","60","","","","","","","","","","","","","","","",""
"","ISI","","html-keyboard-response","388","375950","0.0-1.0-543.0","0","0","67534","","null","","","null","60","NaN","","","","","","","","","","","","","","",""
"","S2","","html-keyboard-response","389","376203","0.0-1.0-544.0","0","0","67534","","null","","","null","60","","NaN","","","","","","","","","","","","","",""
"","response","","html-keyboard-response","390","376595","0.0-1.0-545.0-0.0","0","0","67534","","392","","","68","60","","","2","60","training","adjacent","EF","5","6","Q.jpg","O.jpg","1","1","1","",""
"","feedback","","html-keyboard-response","391","377598","0.0-1.0-546.0-0.0","0","0","67534","","null","","","null","60","","","","","","","","","","","","","","","",""
"","ITI","","html-keyboard-response","392","378600","0.0-1.0-549.0","0","0","67534","","null","","","null","60","","","","","","","","","","","","","","","NaN",""
"","S1","","html-keyboard-response","393","378853","0.0-1.0-551.0","0","0","67534","","null","","","null","61","","","","","","","","","","","","","","","",""
"","ISI","","html-keyboard-response","394","379855","0.0-1.0-552.0","0","0","67534","","null","","","null","61","NaN","","","","","","","","","","","","","","",""
"","S2","","html-keyboard-response","395","380107","0.0-1.0-553.0","0","0","67534","","null","","","null","61","","NaN","","","","","","","","","","","","","",""
"","response","","html-keyboard-response","396","380475","0.0-1.0-554.0-0.0","0","0","67534","","367","","","75","61","","","2","61","training","adjacent","CB","3","2","L.jpg","M.jpg","0","0","1","",""
"","feedback","","html-keyboard-response","397","381476","0.0-1.0-555.0-0.0","0","0","67534","","null","","","null","61","","","","","","","","","","","","","","","",""
"","ITI","","html-keyboard-response","398","382477","0.0-1.0-558.0","0","0","67534","","null","","","null","61","","","","","","","","","","","","","","","NaN",""
"","S1","","html-keyboard-response","399","382730","0.0-1.0-560.0","0","0","67534","","null","","","null","62","","","","","","","","","","","","","","","",""
"","ISI","","html-keyboard-response","400","383732","0.0-1.0-561.0","0","0","67534","","null","","","null","62","NaN","","","","","","","","","","","","","","",""
"","S2","","html-keyboard-response","401","383987","0.0-1.0-562.0","0","0","67534","","null","","","null","62","","NaN","","","","","","","","","","","","","",""
"","response","","html-keyboard-response","402","385459","0.0-1.0-563.0-0.0","0","0","67534","","1470","","","75","62","","","2","62","training","adjacent","CD","3","4","L.jpg","P.jpg","0","1","0","",""
"","feedback","","html-keyboard-response","403","386461","0.0-1.0-564.0-0.0","0","0","67534","","null","","","null","62","","","","","","","","","","","","","","","",""
"","time_out","","html-keyboard-response","404","388463","0.0-1.0-566.0-0.0","0","0","67534","","null","","","null","62","","","","","","","","","","","","","","","",""
"","ITI","","html-keyboard-response","405","389465","0.0-1.0-567.0","0","0","67534","","null","","","null","62","","","","","","","","","","","","","","","NaN",""
"","S1","","html-keyboard-response","406","389716","0.0-1.0-569.0","0","0","67534","","null","","","null","63","","","","","","","","","","","","","","","",""
"","ISI","","html-keyboard-response","407","390718","0.0-1.0-570.0","0","0","67534","","null","","","null","63","NaN","","","","","","","","","","","","","","",""
"","S2","","html-keyboard-response","408","390970","0.0-1.0-571.0","0","0","67534","","null","","","null","63","","NaN","","","","","","","","","","","","","",""
"","response","","html-keyboard-response","409","391659","0.0-1.0-572.0-0.0","0","0","67534","","689","","","68","63","","","2","63","training","adjacent","BC","2","3","M.jpg","L.jpg","1","1","1","",""
"","feedback","","html-keyboard-response","410","392661","0.0-1.0-573.0-0.0","0","0","67534","","null","","","null","63","","","","","","","","","","","","","","","",""
"","ITI","","html-keyboard-response","411","393663","0.0-1.0-576.0","0","0","67534","","null","","","null","63","","","","","","","","","","","","","","","NaN",""
"","S1","","html-keyboard-response","412","393914","0.0-1.0-578.0","0","0","67534","","null","","","null","64","","","","","","","","","","","","","","","",""
"","ISI","","html-keyboard-response","413","394917","0.0-1.0-579.0","0","0","67534","","null","","","null","64","NaN","","","","","","","","","","","","","","",""
"","S2","","html-keyboard-response","414","395169","0.0-1.0-580.0","0","0","67534","","null","","","null","64","","NaN","","","","","","","","","","","","","",""
"","response","","html-keyboard-response","415","396331","0.0-1.0-581.0-0.0","0","0","67534","","1160","","","75","64","","","2","64","training","adjacent","FG","6","7","O.jpg","R.jpg","0","1","0","",""
"","feedback","","html-keyboard-response","416","397333","0.0-1.0-582.0-0.0","0","0","67534","","null","","","null","64","","","","","","","","","","","","","","","",""
"","time_out","","html-keyboard-response","417","399335","0.0-1.0-584.0-0.0","0","0","67534","","null","","","null","64","","","","","","","","","","","","","","","",""
"","ITI","","html-keyboard-response","418","400337","0.0-1.0-585.0","0","0","67534","","null","","","null","64","","","","","","","","","","","","","","","NaN",""
"","S1","","html-keyboard-response","419","400589","0.0-1.0-587.0","0","0","67534","","null","","","null","65","","","","","","","","","","","","","","","",""
"","ISI","","html-keyboard-response","420","401591","0.0-1.0-588.0","0","0","67534","","null","","","null","65","NaN","","","","","","","","","","","","","","",""
"","S2","","html-keyboard-response","421","401842","0.0-1.0-589.0","0","0","67534","","null","","","null","65","","NaN","","","","","","","","","","","","","",""
"","response","","html-keyboard-response","422","402172","0.0-1.0-590.0-0.0","0","0","67534","","329","","","68","65","","","2","65","training","adjacent","EF","5","6","Q.jpg","O.jpg","1","1","1","",""
"","feedback","","html-keyboard-response","423","403174","0.0-1.0-591.0-0.0","0","0","67534","","null","","","null","65","","","","","","","","","","","","","","","",""
"","ITI","","html-keyboard-response","424","404176","0.0-1.0-594.0","0","0","67534","","null","","","null","65","","","","","","","","","","","","","","","NaN",""
"","S1","","html-keyboard-response","425","404428","0.0-1.0-596.0","0","0","67534","","null","","","null","66","","","","","","","","","","","","","","","",""
"","ISI","","html-keyboard-response","426","405429","0.0-1.0-597.0","0","0","67534","","null","","","null","66","NaN","","","","","","","","","","","","","","",""
"","S2","","html-keyboard-response","427","405682","0.0-1.0-598.0","0","0","67534","","null","","","null","66","","NaN","","","","","","","","","","","","","",""
"","response","","html-keyboard-response","428","406213","0.0-1.0-599.0-0.0","0","0","67534","","530","","","75","66","","","2","66","training","adjacent","DE","4","5","P.jpg","Q.jpg","0","1","0","",""
"","feedback","","html-keyboard-response","429","407215","0.0-1.0-600.0-0.0","0","0","67534","","null","","","null","66","","","","","","","","","","","","","","","",""
"","time_out","","html-keyboard-response","430","409217","0.0-1.0-602.0-0.0","0","0","67534","","null","","","null","66","","","","","","","","","","","","","","","",""
"","ITI","","html-keyboard-response","431","410219","0.0-1.0-603.0","0","0","67534","","null","","","null","66","","","","","","","","","","","","","","","NaN",""
"","S1","","html-keyboard-response","432","410472","0.0-1.0-605.0","0","0","67534","","null","","","null","67","","","","","","","","","","","","","","","",""
"","ISI","","html-keyboard-response","433","411475","0.0-1.0-606.0","0","0","67534","","null","","","null","67","NaN","","","","","","","","","","","","","","",""
"","S2","","html-keyboard-response","434","411728","0.0-1.0-607.0","0","0","67534","","null","","","null","67","","NaN","","","","","","","","","","","","","",""
"","response","","html-keyboard-response","435","412133","0.0-1.0-608.0-0.0","0","0","67534","","404","","","68","67","","","2","67","training","adjacent","AB","1","2","N.jpg","M.jpg","1","1","1","",""
"","feedback","","html-keyboard-response","436","413135","0.0-1.0-609.0-0.0","0","0","67534","","null","","","null","67","","","","","","","","","","","","","","","",""
"","ITI","","html-keyboard-response","437","414136","0.0-1.0-612.0","0","0","67534","","null","","","null","67","","","","","","","","","","","","","","","NaN",""
"","S1","","html-keyboard-response","438","414388","0.0-1.0-614.0","0","0","67534","","null","","","null","68","","","","","","","","","","","","","","","",""
"","ISI","","html-keyboard-response","439","415390","0.0-1.0-615.0","0","0","67534","","null","","","null","68","NaN","","","","","","","","","","","","","","",""
"","S2","","html-keyboard-response","440","415641","0.0-1.0-616.0","0","0","67534","","null","","","null","68","","NaN","","","","","","","","","","","","","",""
"","response","","html-keyboard-response","441","416645","0.0-1.0-617.0-0.0","0","0","67534","","1002","","","68","68","","","2","68","training","adjacent","FE","6","5","O.jpg","Q.jpg","1","0","0","",""
"","feedback","","html-keyboard-response","442","417646","0.0-1.0-618.0-0.0","0","0","67534","","null","","","null","68","","","","","","","","","","","","","","","",""
"","time_out","","html-keyboard-response","443","419647","0.0-1.0-620.0-0.0","0","0","67534","","null","","","null","68","","","","","","","","","","","","","","","",""
"","ITI","","html-keyboard-response","444","420650","0.0-1.0-621.0","0","0","67534","","null","","","null","68","","","","","","","","","","","","","","","NaN",""
"","S1","","html-keyboard-response","445","420902","0.0-1.0-623.0","0","0","67534","","null","","","null","69","","","","","","","","","","","","","","","",""
"","ISI","","html-keyboard-response","446","421904","0.0-1.0-624.0","0","0","67534","","null","","","null","69","NaN","","","","","","","","","","","","","","",""
"","S2","","html-keyboard-response","447","422168","0.0-1.0-625.0","0","0","67534","","null","","","null","69","","NaN","","","","","","","","","","","","","",""
"","response","","html-keyboard-response","448","422685","0.0-1.0-626.0-0.0","0","0","67534","","516","","","75","69","","","2","69","training","adjacent","BA","2","1","M.jpg","N.jpg","0","0","1","",""
"","feedback","","html-keyboard-response","449","423687","0.0-1.0-627.0-0.0","0","0","67534","","null","","","null","69","","","","","","","","","","","","","","","",""
"","ITI","","html-keyboard-response","450","424689","0.0-1.0-630.0","0","0","67534","","null","","","null","69","","","","","","","","","","","","","","","NaN",""
"","S1","","html-keyboard-response","451","424941","0.0-1.0-632.0","0","0","67534","","null","","","null","70","","","","","","","","","","","","","","","",""
"","ISI","","html-keyboard-response","452","425942","0.0-1.0-633.0","0","0","67534","","null","","","null","70","NaN","","","","","","","","","","","","","","",""
"","S2","","html-keyboard-response","453","426194","0.0-1.0-634.0","0","0","67534","","null","","","null","70","","NaN","","","","","","","","","","","","","",""
"","response","","html-keyboard-response","454","426949","0.0-1.0-635.0-0.0","0","0","67534","","755","","","68","70","","","2","70","training","adjacent","ED","5","4","Q.jpg","P.jpg","1","0","0","",""
"","feedback","","html-keyboard-response","455","427962","0.0-1.0-636.0-0.0","0","0","67534","","null","","","null","70","","","","","","","","","","","","","","","",""
"","time_out","","html-keyboard-response","456","429965","0.0-1.0-638.0-0.0","0","0","67534","","null","","","null","70","","","","","","","","","","","","","","","",""
"","ITI","","html-keyboard-response","457","430967","0.0-1.0-639.0","0","0","67534","","null","","","null","70","","","","","","","","","","","","","","","NaN",""
"","S1","","html-keyboard-response","458","431219","0.0-1.0-641.0","0","0","67534","","null","","","null","71","","","","","","","","","","","","","","","",""
"","ISI","","html-keyboard-response","459","432221","0.0-1.0-642.0","0","0","67534","","null","","","null","71","NaN","","","","","","","","","","","","","","",""
"","S2","","html-keyboard-response","460","432473","0.0-1.0-643.0","0","0","67534","","null","","","null","71","","NaN","","","","","","","","","","","","","",""
"","response","","html-keyboard-response","461","432949","0.0-1.0-644.0-0.0","0","0","67534","","474","","","75","71","","","2","71","training","adjacent","CB","3","2","L.jpg","M.jpg","0","0","1","",""
"","feedback","","html-keyboard-response","462","433951","0.0-1.0-645.0-0.0","0","0","67534","","null","","","null","71","","","","","","","","","","","","","","","",""
"","ITI","","html-keyboard-response","463","434953","0.0-1.0-648.0","0","0","67534","","null","","","null","71","","","","","","","","","","","","","","","NaN",""
"","S1","","html-keyboard-response","464","435205","0.0-1.0-650.0","0","0","67534","","null","","","null","72","","","","","","","","","","","","","","","",""
"","ISI","","html-keyboard-response","465","436207","0.0-1.0-651.0","0","0","67534","","null","","","null","72","NaN","","","","","","","","","","","","","","",""
"","S2","","html-keyboard-response","466","436459","0.0-1.0-652.0","0","0","67534","","null","","","null","72","","NaN","","","","","","","","","","","","","",""
"","response","","html-keyboard-response","467","437094","0.0-1.0-653.0-0.0","0","0","67534","","634","","","75","72","","","2","72","training","adjacent","BA","2","1","M.jpg","N.jpg","0","0","1","",""
"","feedback","","html-keyboard-response","468","438095","0.0-1.0-654.0-0.0","0","0","67534","","null","","","null","72","","","","","","","","","","","","","","","",""
"","ITI","","html-keyboard-response","469","439098","0.0-1.0-657.0","0","0","67534","","null","","","null","72","","","","","","","","","","","","","","","NaN",""
"","S1","","html-keyboard-response","470","439349","0.0-1.0-659.0","0","0","67534","","null","","","null","73","","","","","","","","","","","","","","","",""
"","ISI","","html-keyboard-response","471","440350","0.0-1.0-660.0","0","0","67534","","null","","","null","73","NaN","","","","","","","","","","","","","","",""
"","S2","","html-keyboard-response","472","440603","0.0-1.0-661.0","0","0","67534","","null","","","null","73","","NaN","","","","","","","","","","","","","",""
"","response","","html-keyboard-response","473","441213","0.0-1.0-662.0-0.0","0","0","67534","","610","","","68","73","","","2","73","training","adjacent","EF","5","6","Q.jpg","O.jpg","1","1","1","",""
"","feedback","","html-keyboard-response","474","442215","0.0-1.0-663.0-0.0","0","0","67534","","null","","","null","73","","","","","","","","","","","","","","","",""
"","ITI","","html-keyboard-response","475","443217","0.0-1.0-666.0","0","0","67534","","null","","","null","73","","","","","","","","","","","","","","","NaN",""
"","S1","","html-keyboard-response","476","443468","0.0-1.0-668.0","0","0","67534","","null","","","null","74","","","","","","","","","","","","","","","",""
"","ISI","","html-keyboard-response","477","444469","0.0-1.0-669.0","0","0","67534","","null","","","null","74","NaN","","","","","","","","","","","","","","",""
"","S2","","html-keyboard-response","478","444722","0.0-1.0-670.0","0","0","67534","","null","","","null","74","","NaN","","","","","","","","","","","","","",""
"","response","","html-keyboard-response","479","445277","0.0-1.0-671.0-0.0","0","0","67534","","554","","","75","74","","","2","74","training","adjacent","BA","2","1","M.jpg","N.jpg","0","0","1","",""
"","feedback","","html-keyboard-response","480","446279","0.0-1.0-672.0-0.0","0","0","67534","","null","","","null","74","","","","","","","","","","","","","","","",""
"","ITI","","html-keyboard-response","481","447281","0.0-1.0-675.0","0","0","67534","","null","","","null","74","","","","","","","","","","","","","","","NaN",""
"","S1","","html-keyboard-response","482","447533","0.0-1.0-677.0","0","0","67534","","null","","","null","75","","","","","","","","","","","","","","","",""
"","ISI","","html-keyboard-response","483","448535","0.0-1.0-678.0","0","0","67534","","null","","","null","75","NaN","","","","","","","","","","","","","","",""
"","S2","","html-keyboard-response","484","448787","0.0-1.0-679.0","0","0","67534","","null","","","null","75","","NaN","","","","","","","","","","","","","",""
"","response","","html-keyboard-response","485","449390","0.0-1.0-680.0-0.0","0","0","67534","","602","","","75","75","","","2","75","training","adjacent","CB","3","2","L.jpg","M.jpg","0","0","1","",""
"","feedback","","html-keyboard-response","486","450391","0.0-1.0-681.0-0.0","0","0","67534","","null","","","null","75","","","","","","","","","","","","","","","",""
"","ITI","","html-keyboard-response","487","451394","0.0-1.0-684.0","0","0","67534","","null","","","null","75","","","","","","","","","","","","","","","NaN",""
"","S1","","html-keyboard-response","488","451653","0.0-1.0-686.0","0","0","67534","","null","","","null","76","","","","","","","","","","","","","","","",""
"","ISI","","html-keyboard-response","489","452655","0.0-1.0-687.0","0","0","67534","","null","","","null","76","NaN","","","","","","","","","","","","","","",""
"","S2","","html-keyboard-response","490","452907","0.0-1.0-688.0","0","0","67534","","null","","","null","76","","NaN","","","","","","","","","","","","","",""
"","response","","html-keyboard-response","491","453694","0.0-1.0-689.0-0.0","0","0","67534","","786","","","75","76","","","2","76","training","adjacent","CB","3","2","L.jpg","M.jpg","0","0","1","",""
"","feedback","","html-keyboard-response","492","454696","0.0-1.0-690.0-0.0","0","0","67534","","null","","","null","76","","","","","","","","","","","","","","","",""
"","ITI","","html-keyboard-response","493","455698","0.0-1.0-693.0","0","0","67534","","null","","","null","76","","","","","","","","","","","","","","","NaN",""
"","S1","","html-keyboard-response","494","455950","0.0-1.0-695.0","0","0","67534","","null","","","null","77","","","","","","","","","","","","","","","",""
"","ISI","","html-keyboard-response","495","456951","0.0-1.0-696.0","0","0","67534","","null","","","null","77","NaN","","","","","","","","","","","","","","",""
"","S2","","html-keyboard-response","496","457203","0.0-1.0-697.0","0","0","67534","","null","","","null","77","","NaN","","","","","","","","","","","","","",""
"","response","","html-keyboard-response","497","457630","0.0-1.0-698.0-0.0","0","0","67534","","426","","","68","77","","","2","77","training","adjacent","AB","1","2","N.jpg","M.jpg","1","1","1","",""
"","feedback","","html-keyboard-response","498","458631","0.0-1.0-699.0-0.0","0","0","67534","","null","","","null","77","","","","","","","","","","","","","","","",""
"","ITI","","html-keyboard-response","499","459634","0.0-1.0-702.0","0","0","67534","","null","","","null","77","","","","","","","","","","","","","","","NaN",""
"","S1","","html-keyboard-response","500","459885","0.0-1.0-704.0","0","0","67534","","null","","","null","78","","","","","","","","","","","","","","","",""
"","ISI","","html-keyboard-response","501","460886","0.0-1.0-705.0","0","0","67534","","null","","","null","78","NaN","","","","","","","","","","","","","","",""
"","S2","","html-keyboard-response","502","461138","0.0-1.0-706.0","0","0","67534","","null","","","null","78","","NaN","","","","","","","","","","","","","",""
"","response","","html-keyboard-response","503","461533","0.0-1.0-707.0-0.0","0","0","67534","","395","","","75","78","","","2","78","training","adjacent","BA","2","1","M.jpg","N.jpg","0","0","1","",""
"","feedback","","html-keyboard-response","504","462535","0.0-1.0-708.0-0.0","0","0","67534","","null","","","null","78","","","","","","","","","","","","","","","",""
"","ITI","","html-keyboard-response","505","463538","0.0-1.0-711.0","0","0","67534","","null","","","null","78","","","","","","","","","","","","","","","NaN",""
"","S1","","html-keyboard-response","506","463790","0.0-1.0-713.0","0","0","67534","","null","","","null","79","","","","","","","","","","","","","","","",""
"","ISI","","html-keyboard-response","507","464792","0.0-1.0-714.0","0","0","67534","","null","","","null","79","NaN","","","","","","","","","","","","","","",""
"","S2","","html-keyboard-response","508","465044","0.0-1.0-715.0","0","0","67534","","null","","","null","79","","NaN","","","","","","","","","","","","","",""
"","response","","html-keyboard-response","509","465606","0.0-1.0-716.0-0.0","0","0","67534","","561","","","68","79","","","2","79","training","adjacent","DC","4","3","P.jpg","L.jpg","1","0","0","",""
"","feedback","","html-keyboard-response","510","466607","0.0-1.0-717.0-0.0","0","0","67534","","null","","","null","79","","","","","","","","","","","","","","","",""
"","time_out","","html-keyboard-response","511","468616","0.0-1.0-719.0-0.0","0","0","67534","","null","","","null","79","","","","","","","","","","","","","","","",""
"","ITI","","html-keyboard-response","512","469618","0.0-1.0-720.0","0","0","67534","","null","","","null","79","","","","","","","","","","","","","","","NaN",""
"","S1","","html-keyboard-response","513","469869","0.0-1.0-722.0","0","0","67534","","null","","","null","80","","","","","","","","","","","","","","","",""
"","ISI","","html-keyboard-response","514","470871","0.0-1.0-723.0","0","0","67534","","null","","","null","80","NaN","","","","","","","","","","","","","","",""
"","S2","","html-keyboard-response","515","471123","0.0-1.0-724.0","0","0","67534","","null","","","null","80","","NaN","","","","","","","","","","","","","",""
"","response","","html-keyboard-response","516","471590","0.0-1.0-725.0-0.0","0","0","67534","","466","","","75","80","","","2","80","training","adjacent","DE","4","5","P.jpg","Q.jpg","0","1","0","",""
"","feedback","","html-keyboard-response","517","472592","0.0-1.0-726.0-0.0","0","0","67534","","null","","","null","80","","","","","","","","","","","","","","","",""
"","time_out","","html-keyboard-response","518","474594","0.0-1.0-728.0-0.0","0","0","67534","","null","","","null","80","","","","","","","","","","","","","","","",""
"","ITI","","html-keyboard-response","519","475596","0.0-1.0-729.0","0","0","67534","","null","","","null","80","","","","","","","","","","","","","","","NaN",""
"","S1","","html-keyboard-response","520","475848","0.0-1.0-731.0","0","0","67534","","null","","","null","81","","","","","","","","","","","","","","","",""
"","ISI","","html-keyboard-response","521","476851","0.0-1.0-732.0","0","0","67534","","null","","","null","81","NaN","","","","","","","","","","","","","","",""
"","S2","","html-keyboard-response","522","477103","0.0-1.0-733.0","0","0","67534","","null","","","null","81","","NaN","","","","","","","","","","","","","",""
"","response","","html-keyboard-response","523","477446","0.0-1.0-734.0-0.0","0","0","67534","","342","","","68","81","","","2","81","training","adjacent","ED","5","4","Q.jpg","P.jpg","1","0","0","",""
"","feedback","","html-keyboard-response","524","478449","0.0-1.0-735.0-0.0","0","0","67534","","null","","","null","81","","","","","","","","","","","","","","","",""
"","time_out","","html-keyboard-response","525","480452","0.0-1.0-737.0-0.0","0","0","67534","","null","","","null","81","","","","","","","","","","","","","","","",""
"","ITI","","html-keyboard-response","526","481453","0.0-1.0-738.0","0","0","67534","","null","","","null","81","","","","","","","","","","","","","","","NaN",""
"","S1","","html-keyboard-response","527","481716","0.0-1.0-740.0","0","0","67534","","null","","","null","82","","","","","","","","","","","","","","","",""
"","ISI","","html-keyboard-response","528","482718","0.0-1.0-741.0","0","0","67534","","null","","","null","82","NaN","","","","","","","","","","","","","","",""
"","S2","","html-keyboard-response","529","482970","0.0-1.0-742.0","0","0","67534","","null","","","null","82","","NaN","","","","","","","","","","","","","",""
"","response","","html-keyboard-response","530","483846","0.0-1.0-743.0-0.0","0","0","67534","","876","","","75","82","","","2","82","training","adjacent","ED","5","4","Q.jpg","P.jpg","0","0","1","",""
"","feedback","","html-keyboard-response","531","484849","0.0-1.0-744.0-0.0","0","0","67534","","null","","","null","82","","","","","","","","","","","","","","","",""
"","ITI","","html-keyboard-response","532","485851","0.0-1.0-747.0","0","0","67534","","null","","","null","82","","","","","","","","","","","","","","","NaN",""
"","S1","","html-keyboard-response","533","486103","0.0-1.0-749.0","0","0","67534","","null","","","null","83","","","","","","","","","","","","","","","",""
"","ISI","","html-keyboard-response","534","487106","0.0-1.0-750.0","0","0","67534","","null","","","null","83","NaN","","","","","","","","","","","","","","",""
"","S2","","html-keyboard-response","535","487358","0.0-1.0-751.0","0","0","67534","","null","","","null","83","","NaN","","","","","","","","","","","","","",""
"","response","","html-keyboard-response","536","487974","0.0-1.0-752.0-0.0","0","0","67534","","615","","","68","83","","","2","83","training","adjacent","DE","4","5","P.jpg","Q.jpg","1","1","1","",""
"","feedback","","html-keyboard-response","537","488975","0.0-1.0-753.0-0.0","0","0","67534","","null","","","null","83","","","","","","","","","","","","","","","",""
"","ITI","","html-keyboard-response","538","489977","0.0-1.0-756.0","0","0","67534","","null","","","null","83","","","","","","","","","","","","","","","NaN",""
"","S1","","html-keyboard-response","539","490229","0.0-1.0-758.0","0","0","67534","","null","","","null","84","","","","","","","","","","","","","","","",""
"","ISI","","html-keyboard-response","540","491230","0.0-1.0-759.0","0","0","67534","","null","","","null","84","NaN","","","","","","","","","","","","","","",""
"","S2","","html-keyboard-response","541","491482","0.0-1.0-760.0","0","0","67534","","null","","","null","84","","NaN","","","","","","","","","","","","","",""
"","response","","html-keyboard-response","542","491854","0.0-1.0-761.0-0.0","0","0","67534","","372","","","68","84","","","2","84","training","adjacent","AB","1","2","N.jpg","M.jpg","1","1","1","",""
"","feedback","","html-keyboard-response","543","492857","0.0-1.0-762.0-0.0","0","0","67534","","null","","","null","84","","","","","","","","","","","","","","","",""
"","ITI","","html-keyboard-response","544","493869","0.0-1.0-765.0","0","0","67534","","null","","","null","84","","","","","","","","","","","","","","","NaN",""
"","S1","","html-keyboard-response","545","494120","0.0-1.0-767.0","0","0","67534","","null","","","null","85","","","","","","","","","","","","","","","",""
"","ISI","","html-keyboard-response","546","495121","0.0-1.0-768.0","0","0","67534","","null","","","null","85","NaN","","","","","","","","","","","","","","",""
"","S2","","html-keyboard-response","547","495374","0.0-1.0-769.0","0","0","67534","","null","","","null","85","","NaN","","","","","","","","","","","","","",""
"","response","","html-keyboard-response","548","495839","0.0-1.0-770.0-0.0","0","0","67534","","464","","","75","85","","","2","85","training","adjacent","FE","6","5","O.jpg","Q.jpg","0","0","1","",""
"","feedback","","html-keyboard-response","549","496840","0.0-1.0-771.0-0.0","0","0","67534","","null","","","null","85","","","","","","","","","","","","","","","",""
"","ITI","","html-keyboard-response","550","497842","0.0-1.0-774.0","0","0","67534","","null","","","null","85","","","","","","","","","","","","","","","NaN",""
"","S1","","html-keyboard-response","551","498094","0.0-1.0-776.0","0","0","67534","","null","","","null","86","","","","","","","","","","","","","","","",""
"","ISI","","html-keyboard-response","552","499104","0.0-1.0-777.0","0","0","67534","","null","","","null","86","NaN","","","","","","","","","","","","","","",""
"","S2","","html-keyboard-response","553","499356","0.0-1.0-778.0","0","0","67534","","null","","","null","86","","NaN","","","","","","","","","","","","","",""
"","response","","html-keyboard-response","554","499798","0.0-1.0-779.0-0.0","0","0","67534","","442","","","75","86","","","2","86","training","adjacent","GF","7","6","R.jpg","O.jpg","0","0","1","",""
"","feedback","","html-keyboard-response","555","500800","0.0-1.0-780.0-0.0","0","0","67534","","null","","","null","86","","","","","","","","","","","","","","","",""
"","ITI","","html-keyboard-response","556","501803","0.0-1.0-783.0","0","0","67534","","null","","","null","86","","","","","","","","","","","","","","","NaN",""
"","S1","","html-keyboard-response","557","502055","0.0-1.0-785.0","0","0","67534","","null","","","null","87","","","","","","","","","","","","","","","",""
"","ISI","","html-keyboard-response","558","503057","0.0-1.0-786.0","0","0","67534","","null","","","null","87","NaN","","","","","","","","","","","","","","",""
"","S2","","html-keyboard-response","559","503310","0.0-1.0-787.0","0","0","67534","","null","","","null","87","","NaN","","","","","","","","","","","","","",""
"","response","","html-keyboard-response","560","504047","0.0-1.0-788.0-0.0","0","0","67534","","737","","","68","87","","","2","87","training","adjacent","DC","4","3","P.jpg","L.jpg","1","0","0","",""
"","feedback","","html-keyboard-response","561","505050","0.0-1.0-789.0-0.0","0","0","67534","","null","","","null","87","","","","","","","","","","","","","","","",""
"","time_out","","html-keyboard-response","562","507051","0.0-1.0-791.0-0.0","0","0","67534","","null","","","null","87","","","","","","","","","","","","","","","",""
"","ITI","","html-keyboard-response","563","508053","0.0-1.0-792.0","0","0","67534","","null","","","null","87","","","","","","","","","","","","","","","NaN",""
"","S1","","html-keyboard-response","564","508305","0.0-1.0-794.0","0","0","67534","","null","","","null","88","","","","","","","","","","","","","","","",""
"","ISI","","html-keyboard-response","565","509307","0.0-1.0-795.0","0","0","67534","","null","","","null","88","NaN","","","","","","","","","","","","","","",""
"","S2","","html-keyboard-response","566","509560","0.0-1.0-796.0","0","0","67534","","null","","","null","88","","NaN","","","","","","","","","","","","","",""
"","response","","html-keyboard-response","567","509976","0.0-1.0-797.0-0.0","0","0","67534","","415","","","68","88","","","2","88","training","adjacent","BC","2","3","M.jpg","L.jpg","1","1","1","",""
"","feedback","","html-keyboard-response","568","510978","0.0-1.0-798.0-0.0","0","0","67534","","null","","","null","88","","","","","","","","","","","","","","","",""
"","ITI","","html-keyboard-response","569","511979","0.0-1.0-801.0","0","0","67534","","null","","","null","88","","","","","","","","","","","","","","","NaN",""
"","S1","","html-keyboard-response","570","512232","0.0-1.0-803.0","0","0","67534","","null","","","null","89","","","","","","","","","","","","","","","",""
"","ISI","","html-keyboard-response","571","513234","0.0-1.0-804.0","0","0","67534","","null","","","null","89","NaN","","","","","","","","","","","","","","",""
"","S2","","html-keyboard-response","572","513486","0.0-1.0-805.0","0","0","67534","","null","","","null","89","","NaN","","","","","","","","","","","","","",""
"","response","","html-keyboard-response","573","513911","0.0-1.0-806.0-0.0","0","0","67534","","424","","","75","89","","","2","89","training","adjacent","GF","7","6","R.jpg","O.jpg","0","0","1","",""
"","feedback","","html-keyboard-response","574","514913","0.0-1.0-807.0-0.0","0","0","67534","","null","","","null","89","","","","","","","","","","","","","","","",""
"","ITI","","html-keyboard-response","575","515915","0.0-1.0-810.0","0","0","67534","","null","","","null","89","","","","","","","","","","","","","","","NaN",""
"","S1","","html-keyboard-response","576","516168","0.0-1.0-812.0","0","0","67534","","null","","","null","90","","","","","","","","","","","","","","","",""
"","ISI","","html-keyboard-response","577","517170","0.0-1.0-813.0","0","0","67534","","null","","","null","90","NaN","","","","","","","","","","","","","","",""
"","S2","","html-keyboard-response","578","517422","0.0-1.0-814.0","0","0","67534","","null","","","null","90","","NaN","","","","","","","","","","","","","",""
"","response","","html-keyboard-response","579","517735","0.0-1.0-815.0-0.0","0","0","67534","","311","","","68","90","","","2","90","training","adjacent","AB","1","2","N.jpg","M.jpg","1","1","1","",""
"","feedback","","html-keyboard-response","580","518736","0.0-1.0-816.0-0.0","0","0","67534","","null","","","null","90","","","","","","","","","","","","","","","",""
"","ITI","","html-keyboard-response","581","519739","0.0-1.0-819.0","0","0","67534","","null","","","null","90","","","","","","","","","","","","","","","NaN",""
"","S1","","html-keyboard-response","582","519991","0.0-1.0-821.0","0","0","67534","","null","","","null","91","","","","","","","","","","","","","","","",""
