"success","ttype","start_time","trial_type","trial_index","time_elapsed","internal_node_id","warning","missed_checkup","PID","view_history","rt","responses","repeat_instructions","key_press","index","keypress_isi","keypress_S2","block","trial_num","phase","group_type","pair_type","S1_stim","S2_stim","S1_img","S2_img","S1_chosen","S1_higher","accuracy","keypress_iti","total_bonus_tally"
"true","full_screen","d04142023hr1455","fullscreen","0","14880","0.0-0.0","0","0","44755","","","","","","","","","","","","","","","","","","","","","",""
"","instructions","","instructions","1","170290","0.0-1.0-0.0-0.0","0","0","44755","[{""page_index"":0,""viewing_time"":12569},{""page_index"":1,""viewing_time"":116978},{""page_index"":2,""viewing_time"":23205},{""page_index"":3,""viewing_time"":2652}]","155406","","","","","","","","","","","","","","","","","","","",""
"","comprehension_check","","survey-multi-choice","2","235351","0.0-1.0-0.0-1.0","0","0","44755","","65052","{""Q0"":""True"",""Q1"":""K"",""Q2"":""Once the second image appears and while the screen 'MAKE A CHOICE' is shown"",""Q3"":""Green mark"",""Q4"":""either D or K""}","0","","","","","","","","","","","","","","","","","",""
"","start_exp","","html-keyboard-response","3","238119","0.0-1.0-1.0","0","0","44755","","2764","","","32","","","","","","","","","","","","","","","","",""
"","S1","","html-keyboard-response","4","238380","0.0-1.0-2.0","0","0","44755","","null","","","null","0","","","","","","","","","","","","","","","",""
"","ISI","","html-keyboard-response","5","239389","0.0-1.0-3.0","0","0","44755","","null","","","null","0","NaN","","","","","","","","","","","","","","",""
"","S2","","html-keyboard-response","6","239648","0.0-1.0-4.0","0","0","44755","","null","","","null","0","","NaN","","","","","","","","","","","","","",""
"","response","","html-keyboard-response","7","241405","0.0-1.0-5.0-0.0","0","0","44755","","null","","","null","0","","","1","0","training","adjacent","FG","6","7","L.jpg","N.jpg","NaN","1","0","",""
"","too_slow_prompt","","html-keyboard-response","8","242413","0.0-1.0-7.0-0.0","1","0","44755","","null","","","null","","","","","","","","","","","","","","","","",""
"","time_out","","html-keyboard-response","9","244422","0.0-1.0-8.0-0.0","0","0","44755","","null","","","null","0","","","","","","","","","","","","","","","",""
"","ITI","","html-keyboard-response","10","245431","0.0-1.0-9.0","0","0","44755","","null","","","null","0","","","","","","","","","","","","","","","NaN",""
"","S1","","html-keyboard-response","11","245688","0.0-1.0-11.0","0","0","44755","","null","","","null","1","","","","","","","","","","","","","","","",""
"","ISI","","html-keyboard-response","12","246692","0.0-1.0-12.0","0","0","44755","","null","","","null","1","NaN","","","","","","","","","","","","","","",""
"","S2","","html-keyboard-response","13","246953","0.0-1.0-13.0","0","0","44755","","null","","","null","1","","NaN","","","","","","","","","","","","","",""
"","response","","html-keyboard-response","14","247251","0.0-1.0-14.0-0.0","0","0","44755","","297","","","68","1","","","1","1","training","adjacent","FG","6","7","L.jpg","N.jpg","0","1","0","",""
"","feedback","","html-keyboard-response","15","248263","0.0-1.0-15.0-0.0","0","0","44755","","null","","","null","1","","","","","","","","","","","","","","","",""
"","time_out","","html-keyboard-response","16","250270","0.0-1.0-17.0-0.0","0","0","44755","","null","","","null","1","","","","","","","","","","","","","","","",""
"","ITI","","html-keyboard-response","17","251278","0.0-1.0-18.0","0","0","44755","","null","","","null","1","","","","","","","","","","","","","","","NaN",""
"","S1","","html-keyboard-response","18","251531","0.0-1.0-20.0","0","0","44755","","null","","","null","2","","","","","","","","","","","","","","","",""
"","ISI","","html-keyboard-response","19","252539","0.0-1.0-21.0","0","0","44755","","null","","","null","2","NaN","","","","","","","","","","","","","","",""
"","S2","","html-keyboard-response","20","252793","0.0-1.0-22.0","0","0","44755","","null","","","null","2","","NaN","","","","","","","","","","","","","",""
"","response","","html-keyboard-response","21","253373","0.0-1.0-23.0-0.0","0","0","44755","","578","","","75","2","","","1","2","training","adjacent","ED","5","4","M.jpg","O.jpg","1","0","0","",""
"","feedback","","html-keyboard-response","22","254382","0.0-1.0-24.0-0.0","0","0","44755","","null","","","null","2","","","","","","","","","","","","","","","",""
"","time_out","","html-keyboard-response","23","256390","0.0-1.0-26.0-0.0","0","0","44755","","null","","","null","2","","","","","","","","","","","","","","","",""
"","ITI","","html-keyboard-response","24","257396","0.0-1.0-27.0","0","0","44755","","null","","","null","2","","","","","","","","","","","","","","","NaN",""
"","S1","","html-keyboard-response","25","257655","0.0-1.0-29.0","0","0","44755","","null","","","null","3","","","","","","","","","","","","","","","",""
"","ISI","","html-keyboard-response","26","258665","0.0-1.0-30.0","0","0","44755","","null","","","null","3","NaN","","","","","","","","","","","","","","",""
"","S2","","html-keyboard-response","27","258923","0.0-1.0-31.0","0","0","44755","","null","","","null","3","","NaN","","","","","","","","","","","","","",""
"","response","","html-keyboard-response","28","259887","0.0-1.0-32.0-0.0","0","0","44755","","961","","","68","3","","","1","3","training","adjacent","BA","2","1","Q.jpg","P.jpg","0","0","1","",""
"","feedback","","html-keyboard-response","29","260896","0.0-1.0-33.0-0.0","0","0","44755","","null","","","null","3","","","","","","","","","","","","","","","",""
"","ITI","","html-keyboard-response","30","261906","0.0-1.0-36.0","0","0","44755","","null","","","null","3","","","","","","","","","","","","","","","NaN",""
"","S1","","html-keyboard-response","31","262166","0.0-1.0-38.0","0","0","44755","","null","","","null","4","","","","","","","","","","","","","","","",""
"","ISI","","html-keyboard-response","32","263173","0.0-1.0-39.0","0","0","44755","","null","","","null","4","NaN","","","","","","","","","","","","","","",""
"","S2","","html-keyboard-response","33","263432","0.0-1.0-40.0","0","0","44755","","null","","","null","4","","NaN","","","","","","","","","","","","","",""
"","response","","html-keyboard-response","34","264330","0.0-1.0-41.0-0.0","0","0","44755","","895","","","75","4","","","1","4","training","adjacent","CB","3","2","R.jpg","Q.jpg","1","0","0","",""
"","feedback","","html-keyboard-response","35","265339","0.0-1.0-42.0-0.0","0","0","44755","","null","","","null","4","","","","","","","","","","","","","","","",""
"","time_out","","html-keyboard-response","36","267349","0.0-1.0-44.0-0.0","0","0","44755","","null","","","null","4","","","","","","","","","","","","","","","",""
"","ITI","","html-keyboard-response","37","268353","0.0-1.0-45.0","0","0","44755","","null","","","null","4","","","","","","","","","","","","","","","NaN",""
"","S1","","html-keyboard-response","38","268606","0.0-1.0-47.0","0","0","44755","","null","","","null","5","","","","","","","","","","","","","","","",""
"","ISI","","html-keyboard-response","39","269616","0.0-1.0-48.0","0","0","44755","","null","","","null","5","NaN","","","","","","","","","","","","","","",""
"","S2","","html-keyboard-response","40","269876","0.0-1.0-49.0","0","0","44755","","null","","","null","5","","NaN","","","","","","","","","","","","","",""
"","response","","html-keyboard-response","41","270433","0.0-1.0-50.0-0.0","0","0","44755","","556","","","68","5","","","1","5","training","adjacent","CB","3","2","R.jpg","Q.jpg","0","0","1","",""
"","feedback","","html-keyboard-response","42","271445","0.0-1.0-51.0-0.0","0","0","44755","","null","","","null","5","","","","","","","","","","","","","","","",""
"","ITI","","html-keyboard-response","43","272459","0.0-1.0-54.0","0","0","44755","","null","","","null","5","","","","","","","","","","","","","","","NaN",""
"","S1","","html-keyboard-response","44","272717","0.0-1.0-56.0","0","0","44755","","null","","","null","6","","","","","","","","","","","","","","","",""
"","ISI","","html-keyboard-response","45","273725","0.0-1.0-57.0","0","0","44755","","null","","","null","6","NaN","","","","","","","","","","","","","","",""
"","S2","","html-keyboard-response","46","273984","0.0-1.0-58.0","0","0","44755","","null","","","null","6","","NaN","","","","","","","","","","","","","",""
"","response","","html-keyboard-response","47","274758","0.0-1.0-59.0-0.0","0","0","44755","","772","","","68","6","","","1","6","training","adjacent","BC","2","3","Q.jpg","R.jpg","0","1","0","",""
"","feedback","","html-keyboard-response","48","275767","0.0-1.0-60.0-0.0","0","0","44755","","null","","","null","6","","","","","","","","","","","","","","","",""
"","time_out","","html-keyboard-response","49","277772","0.0-1.0-62.0-0.0","0","0","44755","","null","","","null","6","","","","","","","","","","","","","","","",""
"","ITI","","html-keyboard-response","50","278781","0.0-1.0-63.0","0","0","44755","","null","","","null","6","","","","","","","","","","","","","","","NaN",""
"","S1","","html-keyboard-response","51","279035","0.0-1.0-65.0","0","0","44755","","null","","","null","7","","","","","","","","","","","","","","","",""
"","ISI","","html-keyboard-response","52","280043","0.0-1.0-66.0","0","0","44755","","null","","","null","7","NaN","","","","","","","","","","","","","","",""
"","S2","","html-keyboard-response","53","280299","0.0-1.0-67.0","0","0","44755","","null","","","null","7","","NaN","","","","","","","","","","","","","",""
"","response","","html-keyboard-response","54","280939","0.0-1.0-68.0-0.0","0","0","44755","","637","","","75","7","","","1","7","training","adjacent","CD","3","4","R.jpg","O.jpg","1","1","1","",""
"","feedback","","html-keyboard-response","55","281942","0.0-1.0-69.0-0.0","0","0","44755","","null","","","null","7","","","","","","","","","","","","","","","",""
"","ITI","","html-keyboard-response","56","282949","0.0-1.0-72.0","0","0","44755","","null","","","null","7","","","","","","","","","","","","","","","NaN",""
"","S1","","html-keyboard-response","57","283210","0.0-1.0-74.0","0","0","44755","","null","","","null","8","","","","","","","","","","","","","","","",""
"","ISI","","html-keyboard-response","58","284216","0.0-1.0-75.0","0","0","44755","","null","","","null","8","NaN","","","","","","","","","","","","","","",""
"","S2","","html-keyboard-response","59","284474","0.0-1.0-76.0","0","0","44755","","null","","","null","8","","NaN","","","","","","","","","","","","","",""
"","response","","html-keyboard-response","60","285365","0.0-1.0-77.0-0.0","0","0","44755","","889","","","68","8","","","1","8","training","adjacent","ED","5","4","M.jpg","O.jpg","0","0","1","",""
"","feedback","","html-keyboard-response","61","286375","0.0-1.0-78.0-0.0","0","0","44755","","null","","","null","8","","","","","","","","","","","","","","","",""
"","ITI","","html-keyboard-response","62","287385","0.0-1.0-81.0","0","0","44755","","null","","","null","8","","","","","","","","","","","","","","","NaN",""
"","S1","","html-keyboard-response","63","287642","0.0-1.0-83.0","0","0","44755","","null","","","null","9","","","","","","","","","","","","","","","",""
"","ISI","","html-keyboard-response","64","288650","0.0-1.0-84.0","0","0","44755","","null","","","null","9","NaN","","","","","","","","","","","","","","",""
"","S2","","html-keyboard-response","65","288910","0.0-1.0-85.0","0","0","44755","","null","","","null","9","","NaN","","","","","","","","","","","","","",""
"","response","","html-keyboard-response","66","289721","0.0-1.0-86.0-0.0","0","0","44755","","809","","","68","9","","","1","9","training","adjacent","DC","4","3","O.jpg","R.jpg","0","0","1","",""
"","feedback","","html-keyboard-response","67","290726","0.0-1.0-87.0-0.0","0","0","44755","","null","","","null","9","","","","","","","","","","","","","","","",""
"","ITI","","html-keyboard-response","68","291734","0.0-1.0-90.0","0","0","44755","","null","","","null","9","","","","","","","","","","","","","","","NaN",""
"","S1","","html-keyboard-response","69","291991","0.0-1.0-92.0","0","0","44755","","null","","","null","10","","","","","","","","","","","","","","","",""
"","ISI","","html-keyboard-response","70","293003","0.0-1.0-93.0","0","0","44755","","null","","","null","10","NaN","","","","","","","","","","","","","","",""
"","S2","","html-keyboard-response","71","293261","0.0-1.0-94.0","0","0","44755","","null","","","null","10","","NaN","","","","","","","","","","","","","",""
"","response","","html-keyboard-response","72","293981","0.0-1.0-95.0-0.0","0","0","44755","","719","","","68","10","","","1","10","training","adjacent","AB","1","2","P.jpg","Q.jpg","0","1","0","",""
"","feedback","","html-keyboard-response","73","294986","0.0-1.0-96.0-0.0","0","0","44755","","null","","","null","10","","","","","","","","","","","","","","","",""
"","time_out","","html-keyboard-response","74","296993","0.0-1.0-98.0-0.0","0","0","44755","","null","","","null","10","","","","","","","","","","","","","","","",""
"","ITI","","html-keyboard-response","75","298003","0.0-1.0-99.0","0","0","44755","","null","","","null","10","","","","","","","","","","","","","","","NaN",""
"","S1","","html-keyboard-response","76","298260","0.0-1.0-101.0","0","0","44755","","null","","","null","11","","","","","","","","","","","","","","","",""
"","ISI","","html-keyboard-response","77","299268","0.0-1.0-102.0","0","0","44755","","null","","","null","11","NaN","","","","","","","","","","","","","","",""
"","S2","","html-keyboard-response","78","299527","0.0-1.0-103.0","0","0","44755","","null","","","null","11","","NaN","","","","","","","","","","","","","",""
"","response","","html-keyboard-response","79","300419","0.0-1.0-104.0-0.0","0","0","44755","","891","","","75","11","","","1","11","training","adjacent","CB","3","2","R.jpg","Q.jpg","1","0","0","",""
"","feedback","","html-keyboard-response","80","301429","0.0-1.0-105.0-0.0","0","0","44755","","null","","","null","11","","","","","","","","","","","","","","","",""
"","time_out","","html-keyboard-response","81","303438","0.0-1.0-107.0-0.0","0","0","44755","","null","","","null","11","","","","","","","","","","","","","","","",""
"","ITI","","html-keyboard-response","82","304445","0.0-1.0-108.0","0","0","44755","","null","","","null","11","","","","","","","","","","","","","","","NaN",""
"","S1","","html-keyboard-response","83","304700","0.0-1.0-110.0","0","0","44755","","null","","","null","12","","","","","","","","","","","","","","","",""
"","ISI","","html-keyboard-response","84","305710","0.0-1.0-111.0","0","0","44755","","null","","","null","12","NaN","","","","","","","","","","","","","","",""
"","S2","","html-keyboard-response","85","305969","0.0-1.0-112.0","0","0","44755","","null","","","null","12","","NaN","","","","","","","","","","","","","",""
"","response","","html-keyboard-response","86","306456","0.0-1.0-113.0-0.0","0","0","44755","","484","","","68","12","","","1","12","training","adjacent","DE","4","5","O.jpg","M.jpg","0","1","0","",""
"","feedback","","html-keyboard-response","87","307459","0.0-1.0-114.0-0.0","0","0","44755","","null","","","null","12","","","","","","","","","","","","","","","",""
"","time_out","","html-keyboard-response","88","309471","0.0-1.0-116.0-0.0","0","0","44755","","null","","","null","12","","","","","","","","","","","","","","","",""
"","ITI","","html-keyboard-response","89","310479","0.0-1.0-117.0","0","0","44755","","null","","","null","12","","","","","","","","","","","","","","","NaN",""
"","S1","","html-keyboard-response","90","310735","0.0-1.0-119.0","0","0","44755","","null","","","null","13","","","","","","","","","","","","","","","",""
"","ISI","","html-keyboard-response","91","311744","0.0-1.0-120.0","0","0","44755","","null","","","null","13","NaN","","","","","","","","","","","","","","",""
"","S2","","html-keyboard-response","92","312004","0.0-1.0-121.0","0","0","44755","","null","","","null","13","","NaN","","","","","","","","","","","","","",""
"","response","","html-keyboard-response","93","312589","0.0-1.0-122.0-0.0","0","0","44755","","582","","","68","13","","","1","13","training","adjacent","DE","4","5","O.jpg","M.jpg","0","1","0","",""
"","feedback","","html-keyboard-response","94","313596","0.0-1.0-123.0-0.0","0","0","44755","","null","","","null","13","","","","","","","","","","","","","","","",""
"","time_out","","html-keyboard-response","95","315605","0.0-1.0-125.0-0.0","0","0","44755","","null","","","null","13","","","","","","","","","","","","","","","",""
"","ITI","","html-keyboard-response","96","316613","0.0-1.0-126.0","0","0","44755","","null","","","null","13","","","","","","","","","","","","","","","NaN",""
"","S1","","html-keyboard-response","97","316868","0.0-1.0-128.0","0","0","44755","","null","","","null","14","","","","","","","","","","","","","","","",""
"","ISI","","html-keyboard-response","98","317872","0.0-1.0-129.0","0","0","44755","","null","","","null","14","NaN","","","","","","","","","","","","","","",""
"","S2","","html-keyboard-response","99","318128","0.0-1.0-130.0","0","0","44755","","null","","","null","14","","NaN","","","","","","","","","","","","","",""
"","response","","html-keyboard-response","100","318718","0.0-1.0-131.0-0.0","0","0","44755","","588","","","75","14","","","1","14","training","adjacent","FG","6","7","L.jpg","N.jpg","1","1","1","",""
"","feedback","","html-keyboard-response","101","319722","0.0-1.0-132.0-0.0","0","0","44755","","null","","","null","14","","","","","","","","","","","","","","","",""
"","ITI","","html-keyboard-response","102","320729","0.0-1.0-135.0","0","0","44755","","null","","","null","14","","","","","","","","","","","","","","","NaN",""
"","S1","","html-keyboard-response","103","320986","0.0-1.0-137.0","0","0","44755","","null","","","null","15","","","","","","","","","","","","","","","",""
"","ISI","","html-keyboard-response","104","321997","0.0-1.0-138.0","0","0","44755","","null","","","null","15","NaN","","","","","","","","","","","","","","",""
"","S2","","html-keyboard-response","105","322256","0.0-1.0-139.0","0","0","44755","","null","","","null","15","","NaN","","","","","","","","","","","","","",""
"","response","","html-keyboard-response","106","322886","0.0-1.0-140.0-0.0","0","0","44755","","628","","","68","15","","","1","15","training","adjacent","CB","3","2","R.jpg","Q.jpg","0","0","1","",""
"","feedback","","html-keyboard-response","107","323896","0.0-1.0-141.0-0.0","0","0","44755","","null","","","null","15","","","","","","","","","","","","","","","",""
"","ITI","","html-keyboard-response","108","324902","0.0-1.0-144.0","0","0","44755","","null","","","null","15","","","","","","","","","","","","","","","NaN",""
"","S1","","html-keyboard-response","109","325155","0.0-1.0-146.0","0","0","44755","","null","","","null","16","","","","","","","","","","","","","","","",""
"","ISI","","html-keyboard-response","110","326161","0.0-1.0-147.0","0","0","44755","","null","","","null","16","NaN","","","","","","","","","","","","","","",""
"","S2","","html-keyboard-response","111","326423","0.0-1.0-148.0","0","0","44755","","null","","","null","16","","NaN","","","","","","","","","","","","","",""
"","response","","html-keyboard-response","112","326941","0.0-1.0-149.0-0.0","0","0","44755","","516","","","68","16","","","1","16","training","adjacent","FG","6","7","L.jpg","N.jpg","0","1","0","",""
"","feedback","","html-keyboard-response","113","327945","0.0-1.0-150.0-0.0","0","0","44755","","null","","","null","16","","","","","","","","","","","","","","","",""
"","time_out","","html-keyboard-response","114","329957","0.0-1.0-152.0-0.0","0","0","44755","","null","","","null","16","","","","","","","","","","","","","","","",""
"","ITI","","html-keyboard-response","115","330965","0.0-1.0-153.0","0","0","44755","","null","","","null","16","","","","","","","","","","","","","","","NaN",""
"","S1","","html-keyboard-response","116","331223","0.0-1.0-155.0","0","0","44755","","null","","","null","17","","","","","","","","","","","","","","","",""
"","ISI","","html-keyboard-response","117","332231","0.0-1.0-156.0","0","0","44755","","null","","","null","17","NaN","","","","","","","","","","","","","","",""
"","S2","","html-keyboard-response","118","332489","0.0-1.0-157.0","0","0","44755","","null","","","null","17","","NaN","","","","","","","","","","","","","",""
"","response","","html-keyboard-response","119","333124","0.0-1.0-158.0-0.0","0","0","44755","","632","","","75","17","","","1","17","training","adjacent","BC","2","3","Q.jpg","R.jpg","1","1","1","",""
"","feedback","","html-keyboard-response","120","334130","0.0-1.0-159.0-0.0","0","0","44755","","null","","","null","17","","","","","","","","","","","","","","","",""
"","ITI","","html-keyboard-response","121","335140","0.0-1.0-162.0","0","0","44755","","null","","","null","17","","","","","","","","","","","","","","","NaN",""
"","S1","","html-keyboard-response","122","335397","0.0-1.0-164.0","0","0","44755","","null","","","null","18","","","","","","","","","","","","","","","",""
"","ISI","","html-keyboard-response","123","336406","0.0-1.0-165.0","0","0","44755","","null","","","null","18","NaN","","","","","","","","","","","","","","",""
"","S2","","html-keyboard-response","124","336665","0.0-1.0-166.0","0","0","44755","","null","","","null","18","","NaN","","","","","","","","","","","","","",""
"","response","","html-keyboard-response","125","337170","0.0-1.0-167.0-0.0","0","0","44755","","502","","","68","18","","","1","18","training","adjacent","BA","2","1","Q.jpg","P.jpg","0","0","1","",""
"","feedback","","html-keyboard-response","126","338181","0.0-1.0-168.0-0.0","0","0","44755","","null","","","null","18","","","","","","","","","","","","","","","",""
"","ITI","","html-keyboard-response","127","339191","0.0-1.0-171.0","0","0","44755","","null","","","null","18","","","","","","","","","","","","","","","NaN",""
"","S1","","html-keyboard-response","128","339448","0.0-1.0-173.0","0","0","44755","","null","","","null","19","","","","","","","","","","","","","","","",""
"","ISI","","html-keyboard-response","129","340451","0.0-1.0-174.0","0","0","44755","","null","","","null","19","NaN","","","","","","","","","","","","","","",""
"","S2","","html-keyboard-response","130","340707","0.0-1.0-175.0","0","0","44755","","null","","","null","19","","NaN","","","","","","","","","","","","","",""
"","response","","html-keyboard-response","131","341381","0.0-1.0-176.0-0.0","0","0","44755","","672","","","75","19","","","1","19","training","adjacent","CD","3","4","R.jpg","O.jpg","1","1","1","",""
"","feedback","","html-keyboard-response","132","342392","0.0-1.0-177.0-0.0","0","0","44755","","null","","","null","19","","","","","","","","","","","","","","","",""
"","ITI","","html-keyboard-response","133","343395","0.0-1.0-180.0","0","0","44755","","null","","","null","19","","","","","","","","","","","","","","","NaN",""
"","S1","","html-keyboard-response","134","343657","0.0-1.0-182.0","0","0","44755","","null","","","null","20","","","","","","","","","","","","","","","",""
"","ISI","","html-keyboard-response","135","344663","0.0-1.0-183.0","0","0","44755","","null","","","null","20","NaN","","","","","","","","","","","","","","",""
"","S2","","html-keyboard-response","136","344924","0.0-1.0-184.0","0","0","44755","","null","","","null","20","","NaN","","","","","","","","","","","","","",""
"","response","","html-keyboard-response","137","345440","0.0-1.0-185.0-0.0","0","0","44755","","513","","","68","20","","","1","20","training","adjacent","FE","6","5","L.jpg","M.jpg","0","0","1","",""
"","feedback","","html-keyboard-response","138","346444","0.0-1.0-186.0-0.0","0","0","44755","","null","","","null","20","","","","","","","","","","","","","","","",""
"","ITI","","html-keyboard-response","139","347447","0.0-1.0-189.0","0","0","44755","","null","","","null","20","","","","","","","","","","","","","","","NaN",""
"","S1","","html-keyboard-response","140","347706","0.0-1.0-191.0","0","0","44755","","null","","","null","21","","","","","","","","","","","","","","","",""
"","ISI","","html-keyboard-response","141","348716","0.0-1.0-192.0","0","0","44755","","null","","","null","21","NaN","","","","","","","","","","","","","","",""
"","S2","","html-keyboard-response","142","348975","0.0-1.0-193.0","0","0","44755","","null","","","null","21","","NaN","","","","","","","","","","","","","",""
"","response","","html-keyboard-response","143","349537","0.0-1.0-194.0-0.0","0","0","44755","","560","","","75","21","","","1","21","training","adjacent","DC","4","3","O.jpg","R.jpg","1","0","0","",""
"","feedback","","html-keyboard-response","144","350542","0.0-1.0-195.0-0.0","0","0","44755","","null","","","null","21","","","","","","","","","","","","","","","",""
"","time_out","","html-keyboard-response","145","352550","0.0-1.0-197.0-0.0","0","0","44755","","null","","","null","21","","","","","","","","","","","","","","","",""
"","ITI","","html-keyboard-response","146","353556","0.0-1.0-198.0","0","0","44755","","null","","","null","21","","","","","","","","","","","","","","","NaN",""
"","S1","","html-keyboard-response","147","353814","0.0-1.0-200.0","0","0","44755","","null","","","null","22","","","","","","","","","","","","","","","",""
"","ISI","","html-keyboard-response","148","354817","0.0-1.0-201.0","0","0","44755","","null","","","null","22","NaN","","","","","","","","","","","","","","",""
"","S2","","html-keyboard-response","149","355075","0.0-1.0-202.0","0","0","44755","","null","","","null","22","","NaN","","","","","","","","","","","","","",""
"","response","","html-keyboard-response","150","355794","0.0-1.0-203.0-0.0","0","0","44755","","717","","","68","22","","","1","22","training","adjacent","BC","2","3","Q.jpg","R.jpg","0","1","0","",""
"","feedback","","html-keyboard-response","151","356797","0.0-1.0-204.0-0.0","0","0","44755","","null","","","null","22","","","","","","","","","","","","","","","",""
"","time_out","","html-keyboard-response","152","358800","0.0-1.0-206.0-0.0","0","0","44755","","null","","","null","22","","","","","","","","","","","","","","","",""
"","ITI","","html-keyboard-response","153","359808","0.0-1.0-207.0","0","0","44755","","null","","","null","22","","","","","","","","","","","","","","","NaN",""
"","S1","","html-keyboard-response","154","360065","0.0-1.0-209.0","0","0","44755","","null","","","null","23","","","","","","","","","","","","","","","",""
"","ISI","","html-keyboard-response","155","361068","0.0-1.0-210.0","0","0","44755","","null","","","null","23","NaN","","","","","","","","","","","","","","",""
"","S2","","html-keyboard-response","156","361326","0.0-1.0-211.0","0","0","44755","","null","","","null","23","","NaN","","","","","","","","","","","","","",""
"","response","","html-keyboard-response","157","361782","0.0-1.0-212.0-0.0","0","0","44755","","453","","","68","23","","","1","23","training","adjacent","FE","6","5","L.jpg","M.jpg","0","0","1","",""
"","feedback","","html-keyboard-response","158","362789","0.0-1.0-213.0-0.0","0","0","44755","","null","","","null","23","","","","","","","","","","","","","","","",""
"","ITI","","html-keyboard-response","159","363794","0.0-1.0-216.0","0","0","44755","","null","","","null","23","","","","","","","","","","","","","","","NaN",""
"","S1","","html-keyboard-response","160","364052","0.0-1.0-218.0","0","0","44755","","null","","","null","24","","","","","","","","","","","","","","","",""
"","ISI","","html-keyboard-response","161","365061","0.0-1.0-219.0","0","0","44755","","null","","","null","24","NaN","","","","","","","","","","","","","","",""
"","S2","","html-keyboard-response","162","365319","0.0-1.0-220.0","0","0","44755","","null","","","null","24","","NaN","","","","","","","","","","","","","",""
"","response","","html-keyboard-response","163","365825","0.0-1.0-221.0-0.0","0","0","44755","","503","","","75","24","","","1","24","training","adjacent","CD","3","4","R.jpg","O.jpg","1","1","1","",""
"","feedback","","html-keyboard-response","164","366836","0.0-1.0-222.0-0.0","0","0","44755","","null","","","null","24","","","","","","","","","","","","","","","",""
"","ITI","","html-keyboard-response","165","367844","0.0-1.0-225.0","0","0","44755","","null","","","null","24","","","","","","","","","","","","","","","NaN",""
"","S1","","html-keyboard-response","166","368100","0.0-1.0-227.0","0","0","44755","","null","","","null","25","","","","","","","","","","","","","","","",""
"","ISI","","html-keyboard-response","167","369112","0.0-1.0-228.0","0","0","44755","","null","","","null","25","NaN","","","","","","","","","","","","","","",""
"","S2","","html-keyboard-response","168","369368","0.0-1.0-229.0","0","0","44755","","null","","","null","25","","NaN","","","","","","","","","","","","","",""
"","response","","html-keyboard-response","169","369773","0.0-1.0-230.0-0.0","0","0","44755","","403","","","68","25","","","1","25","training","adjacent","GF","7","6","N.jpg","L.jpg","0","0","1","",""
"","feedback","","html-keyboard-response","170","370778","0.0-1.0-231.0-0.0","0","0","44755","","null","","","null","25","","","","","","","","","","","","","","","",""
"","ITI","","html-keyboard-response","171","371786","0.0-1.0-234.0","0","0","44755","","null","","","null","25","","","","","","","","","","","","","","","NaN",""
"","S1","","html-keyboard-response","172","372040","0.0-1.0-236.0","0","0","44755","","null","","","null","26","","","","","","","","","","","","","","","",""
"","ISI","","html-keyboard-response","173","373048","0.0-1.0-237.0","0","0","44755","","null","","","null","26","NaN","","","","","","","","","","","","","","",""
"","S2","","html-keyboard-response","174","373302","0.0-1.0-238.0","0","0","44755","","null","","","null","26","","NaN","","","","","","","","","","","","","",""
"","response","","html-keyboard-response","175","373923","0.0-1.0-239.0-0.0","0","0","44755","","618","","","68","26","","","1","26","training","adjacent","FE","6","5","L.jpg","M.jpg","0","0","1","",""
"","feedback","","html-keyboard-response","176","374931","0.0-1.0-240.0-0.0","0","0","44755","","null","","","null","26","","","","","","","","","","","","","","","",""
"","ITI","","html-keyboard-response","177","375935","0.0-1.0-243.0","0","0","44755","","null","","","null","26","","","","","","","","","","","","","","","NaN",""
"","S1","","html-keyboard-response","178","376204","0.0-1.0-245.0","0","0","44755","","null","","","null","27","","","","","","","","","","","","","","","",""
"","ISI","","html-keyboard-response","179","377210","0.0-1.0-246.0","0","0","44755","","null","","","null","27","NaN","","","","","","","","","","","","","","",""
"","S2","","html-keyboard-response","180","377471","0.0-1.0-247.0","0","0","44755","","null","","","null","27","","NaN","","","","","","","","","","","","","",""
"","response","","html-keyboard-response","181","377912","0.0-1.0-248.0-0.0","0","0","44755","","438","","","75","27","","","1","27","training","adjacent","DC","4","3","O.jpg","R.jpg","1","0","0","",""
"","feedback","","html-keyboard-response","182","378917","0.0-1.0-249.0-0.0","0","0","44755","","null","","","null","27","","","","","","","","","","","","","","","",""
"","time_out","","html-keyboard-response","183","380927","0.0-1.0-251.0-0.0","0","0","44755","","null","","","null","27","","","","","","","","","","","","","","","",""
"","ITI","","html-keyboard-response","184","381934","0.0-1.0-252.0","0","0","44755","","null","","","null","27","","","","","","","","","","","","","","","NaN",""
"","S1","","html-keyboard-response","185","382214","0.0-1.0-254.0","0","0","44755","","null","","","null","28","","","","","","","","","","","","","","","",""
"","ISI","","html-keyboard-response","186","383221","0.0-1.0-255.0","0","0","44755","","null","","","null","28","NaN","","","","","","","","","","","","","","",""
"","S2","","html-keyboard-response","187","383478","0.0-1.0-256.0","0","0","44755","","null","","","null","28","","NaN","","","","","","","","","","","","","",""
"","response","","html-keyboard-response","188","384191","0.0-1.0-257.0-0.0","0","0","44755","","710","","","68","28","","","1","28","training","adjacent","CD","3","4","R.jpg","O.jpg","0","1","0","",""
"","feedback","","html-keyboard-response","189","385195","0.0-1.0-258.0-0.0","0","0","44755","","null","","","null","28","","","","","","","","","","","","","","","",""
"","time_out","","html-keyboard-response","190","387201","0.0-1.0-260.0-0.0","0","0","44755","","null","","","null","28","","","","","","","","","","","","","","","",""
"","ITI","","html-keyboard-response","191","388210","0.0-1.0-261.0","0","0","44755","","null","","","null","28","","","","","","","","","","","","","","","NaN",""
"","S1","","html-keyboard-response","192","388463","0.0-1.0-263.0","0","0","44755","","null","","","null","29","","","","","","","","","","","","","","","",""
"","ISI","","html-keyboard-response","193","389468","0.0-1.0-264.0","0","0","44755","","null","","","null","29","NaN","","","","","","","","","","","","","","",""
"","S2","","html-keyboard-response","194","389720","0.0-1.0-265.0","0","0","44755","","null","","","null","29","","NaN","","","","","","","","","","","","","",""
"","response","","html-keyboard-response","195","390282","0.0-1.0-266.0-0.0","0","0","44755","","559","","","75","29","","","1","29","training","adjacent","BC","2","3","Q.jpg","R.jpg","1","1","1","",""
"","feedback","","html-keyboard-response","196","391288","0.0-1.0-267.0-0.0","0","0","44755","","null","","","null","29","","","","","","","","","","","","","","","",""
"","ITI","","html-keyboard-response","197","392296","0.0-1.0-270.0","0","0","44755","","null","","","null","29","","","","","","","","","","","","","","","NaN",""
"","S1","","html-keyboard-response","198","392555","0.0-1.0-272.0","0","0","44755","","null","","","null","30","","","","","","","","","","","","","","","",""
"","ISI","","html-keyboard-response","199","393564","0.0-1.0-273.0","0","0","44755","","null","","","null","30","NaN","","","","","","","","","","","","","","",""
"","S2","","html-keyboard-response","200","393822","0.0-1.0-274.0","0","0","44755","","null","","","null","30","","NaN","","","","","","","","","","","","","",""
"","response","","html-keyboard-response","201","394153","0.0-1.0-275.0-0.0","0","0","44755","","328","","","68","30","","","1","30","training","adjacent","GF","7","6","N.jpg","L.jpg","0","0","1","",""
"","feedback","","html-keyboard-response","202","395160","0.0-1.0-276.0-0.0","0","0","44755","","null","","","null","30","","","","","","","","","","","","","","","",""
"","ITI","","html-keyboard-response","203","396164","0.0-1.0-279.0","0","0","44755","","null","","","null","30","","","","","","","","","","","","","","","NaN",""
"","S1","","html-keyboard-response","204","396421","0.0-1.0-281.0","0","0","44755","","null","","","null","31","","","","","","","","","","","","","","","",""
"","ISI","","html-keyboard-response","205","397432","0.0-1.0-282.0","0","0","44755","","null","","","null","31","NaN","","","","","","","","","","","","","","",""
"","S2","","html-keyboard-response","206","397689","0.0-1.0-283.0","0","0","44755","","null","","","null","31","","NaN","","","","","","","","","","","","","",""
"","response","","html-keyboard-response","207","398136","0.0-1.0-284.0-0.0","0","0","44755","","445","","","75","31","","","1","31","training","adjacent","BA","2","1","Q.jpg","P.jpg","1","0","0","",""
"","feedback","","html-keyboard-response","208","399147","0.0-1.0-285.0-0.0","0","0","44755","","null","","","null","31","","","","","","","","","","","","","","","",""
"","time_out","","html-keyboard-response","209","401156","0.0-1.0-287.0-0.0","0","0","44755","","null","","","null","31","","","","","","","","","","","","","","","",""
"","ITI","","html-keyboard-response","210","402162","0.0-1.0-288.0","0","0","44755","","null","","","null","31","","","","","","","","","","","","","","","NaN",""
"","S1","","html-keyboard-response","211","402421","0.0-1.0-290.0","0","0","44755","","null","","","null","32","","","","","","","","","","","","","","","",""
"","ISI","","html-keyboard-response","212","403431","0.0-1.0-291.0","0","0","44755","","null","","","null","32","NaN","","","","","","","","","","","","","","",""
"","S2","","html-keyboard-response","213","403690","0.0-1.0-292.0","0","0","44755","","null","","","null","32","","NaN","","","","","","","","","","","","","",""
"","response","","html-keyboard-response","214","404064","0.0-1.0-293.0-0.0","0","0","44755","","371","","","68","32","","","1","32","training","adjacent","FE","6","5","L.jpg","M.jpg","0","0","1","",""
"","feedback","","html-keyboard-response","215","405073","0.0-1.0-294.0-0.0","0","0","44755","","null","","","null","32","","","","","","","","","","","","","","","",""
"","ITI","","html-keyboard-response","216","406081","0.0-1.0-297.0","0","0","44755","","null","","","null","32","","","","","","","","","","","","","","","NaN",""
"","S1","","html-keyboard-response","217","406339","0.0-1.0-299.0","0","0","44755","","null","","","null","33","","","","","","","","","","","","","","","",""
"","ISI","","html-keyboard-response","218","407349","0.0-1.0-300.0","0","0","44755","","null","","","null","33","NaN","","","","","","","","","","","","","","",""
"","S2","","html-keyboard-response","219","407608","0.0-1.0-301.0","0","0","44755","","null","","","null","33","","NaN","","","","","","","","","","","","","",""
"","response","","html-keyboard-response","220","408108","0.0-1.0-302.0-0.0","0","0","44755","","497","","","75","33","","","1","33","training","adjacent","GF","7","6","N.jpg","L.jpg","1","0","0","",""
"","feedback","","html-keyboard-response","221","409119","0.0-1.0-303.0-0.0","0","0","44755","","null","","","null","33","","","","","","","","","","","","","","","",""
"","time_out","","html-keyboard-response","222","411122","0.0-1.0-305.0-0.0","0","0","44755","","null","","","null","33","","","","","","","","","","","","","","","",""
"","ITI","","html-keyboard-response","223","412127","0.0-1.0-306.0","0","0","44755","","null","","","null","33","","","","","","","","","","","","","","","NaN",""
"","S1","","html-keyboard-response","224","412382","0.0-1.0-308.0","0","0","44755","","null","","","null","34","","","","","","","","","","","","","","","",""
"","ISI","","html-keyboard-response","225","413392","0.0-1.0-309.0","0","0","44755","","null","","","null","34","NaN","","","","","","","","","","","","","","",""
"","S2","","html-keyboard-response","226","413649","0.0-1.0-310.0","0","0","44755","","null","","","null","34","","NaN","","","","","","","","","","","","","",""
"","response","","html-keyboard-response","227","414292","0.0-1.0-311.0-0.0","0","0","44755","","640","","","75","34","","","1","34","training","adjacent","ED","5","4","M.jpg","O.jpg","1","0","0","",""
"","feedback","","html-keyboard-response","228","415299","0.0-1.0-312.0-0.0","0","0","44755","","null","","","null","34","","","","","","","","","","","","","","","",""
"","time_out","","html-keyboard-response","229","417306","0.0-1.0-314.0-0.0","0","0","44755","","null","","","null","34","","","","","","","","","","","","","","","",""
"","ITI","","html-keyboard-response","230","418315","0.0-1.0-315.0","0","0","44755","","null","","","null","34","","","","","","","","","","","","","","","NaN",""
"","S1","","html-keyboard-response","231","418574","0.0-1.0-317.0","0","0","44755","","null","","","null","35","","","","","","","","","","","","","","","",""
"","ISI","","html-keyboard-response","232","419582","0.0-1.0-318.0","0","0","44755","","null","","","null","35","NaN","","","","","","","","","","","","","","",""
"","S2","","html-keyboard-response","233","419841","0.0-1.0-319.0","0","0","44755","","null","","","null","35","","NaN","","","","","","","","","","","","","",""
"","response","","html-keyboard-response","234","420583","0.0-1.0-320.0-0.0","0","0","44755","","739","","","75","35","","","1","35","training","adjacent","GF","7","6","N.jpg","L.jpg","1","0","0","",""
"","feedback","","html-keyboard-response","235","421592","0.0-1.0-321.0-0.0","0","0","44755","","null","","","null","35","","","","","","","","","","","","","","","",""
"","time_out","","html-keyboard-response","236","423601","0.0-1.0-323.0-0.0","0","0","44755","","null","","","null","35","","","","","","","","","","","","","","","",""
"","ITI","","html-keyboard-response","237","424606","0.0-1.0-324.0","0","0","44755","","null","","","null","35","","","","","","","","","","","","","","","NaN",""
"","S1","","html-keyboard-response","238","424866","0.0-1.0-326.0","0","0","44755","","null","","","null","36","","","","","","","","","","","","","","","",""
"","ISI","","html-keyboard-response","239","425874","0.0-1.0-327.0","0","0","44755","","null","","","null","36","NaN","","","","","","","","","","","","","","",""
"","S2","","html-keyboard-response","240","426133","0.0-1.0-328.0","0","0","44755","","null","","","null","36","","NaN","","","","","","","","","","","","","",""
"","response","","html-keyboard-response","241","426535","0.0-1.0-329.0-0.0","0","0","44755","","399","","","68","36","","","1","36","training","adjacent","DE","4","5","O.jpg","M.jpg","0","1","0","",""
"","feedback","","html-keyboard-response","242","427541","0.0-1.0-330.0-0.0","0","0","44755","","null","","","null","36","","","","","","","","","","","","","","","",""
"","time_out","","html-keyboard-response","243","429550","0.0-1.0-332.0-0.0","0","0","44755","","null","","","null","36","","","","","","","","","","","","","","","",""
"","ITI","","html-keyboard-response","244","430556","0.0-1.0-333.0","0","0","44755","","null","","","null","36","","","","","","","","","","","","","","","NaN",""
"","S1","","html-keyboard-response","245","430816","0.0-1.0-335.0","0","0","44755","","null","","","null","37","","","","","","","","","","","","","","","",""
"","ISI","","html-keyboard-response","246","431825","0.0-1.0-336.0","0","0","44755","","null","","","null","37","NaN","","","","","","","","","","","","","","",""
"","S2","","html-keyboard-response","247","432083","0.0-1.0-337.0","0","0","44755","","null","","","null","37","","NaN","","","","","","","","","","","","","",""
"","response","","html-keyboard-response","248","432418","0.0-1.0-338.0-0.0","0","0","44755","","333","","","75","37","","","1","37","training","adjacent","EF","5","6","M.jpg","L.jpg","1","1","1","",""
"","feedback","","html-keyboard-response","249","433425","0.0-1.0-339.0-0.0","0","0","44755","","null","","","null","37","","","","","","","","","","","","","","","",""
"","ITI","","html-keyboard-response","250","434431","0.0-1.0-342.0","0","0","44755","","null","","","null","37","","","","","","","","","","","","","","","NaN",""
"","S1","","html-keyboard-response","251","434686","0.0-1.0-344.0","0","0","44755","","null","","","null","38","","","","","","","","","","","","","","","",""
"","ISI","","html-keyboard-response","252","435693","0.0-1.0-345.0","0","0","44755","","null","","","null","38","NaN","","","","","","","","","","","","","","",""
"","S2","","html-keyboard-response","253","435951","0.0-1.0-346.0","0","0","44755","","null","","","null","38","","NaN","","","","","","","","","","","","","",""
"","response","","html-keyboard-response","254","436587","0.0-1.0-347.0-0.0","0","0","44755","","634","","","75","38","","","1","38","training","adjacent","EF","5","6","M.jpg","L.jpg","1","1","1","",""
"","feedback","","html-keyboard-response","255","437591","0.0-1.0-348.0-0.0","0","0","44755","","null","","","null","38","","","","","","","","","","","","","","","",""
"","ITI","","html-keyboard-response","256","438601","0.0-1.0-351.0","0","0","44755","","null","","","null","38","","","","","","","","","","","","","","","NaN",""
"","S1","","html-keyboard-response","257","438859","0.0-1.0-353.0","0","0","44755","","null","","","null","39","","","","","","","","","","","","","","","",""
"","ISI","","html-keyboard-response","258","439867","0.0-1.0-354.0","0","0","44755","","null","","","null","39","NaN","","","","","","","","","","","","","","",""
"","S2","","html-keyboard-response","259","440126","0.0-1.0-355.0","0","0","44755","","null","","","null","39","","NaN","","","","","","","","","","","","","",""
"","response","","html-keyboard-response","260","440769","0.0-1.0-356.0-0.0","0","0","44755","","640","","","68","39","","","1","39","training","adjacent","ED","5","4","M.jpg","O.jpg","0","0","1","",""
"","feedback","","html-keyboard-response","261","441774","0.0-1.0-357.0-0.0","0","0","44755","","null","","","null","39","","","","","","","","","","","","","","","",""
"","ITI","","html-keyboard-response","262","442780","0.0-1.0-360.0","0","0","44755","","null","","","null","39","","","","","","","","","","","","","","","NaN",""
"","S1","","html-keyboard-response","263","443040","0.0-1.0-362.0","0","0","44755","","null","","","null","40","","","","","","","","","","","","","","","",""
"","ISI","","html-keyboard-response","264","444043","0.0-1.0-363.0","0","0","44755","","null","","","null","40","NaN","","","","","","","","","","","","","","",""
"","S2","","html-keyboard-response","265","444299","0.0-1.0-364.0","0","0","44755","","null","","","null","40","","NaN","","","","","","","","","","","","","",""
"","response","","html-keyboard-response","266","444848","0.0-1.0-365.0-0.0","0","0","44755","","547","","","75","40","","","1","40","training","adjacent","EF","5","6","M.jpg","L.jpg","1","1","1","",""
"","feedback","","html-keyboard-response","267","445852","0.0-1.0-366.0-0.0","0","0","44755","","null","","","null","40","","","","","","","","","","","","","","","",""
"","ITI","","html-keyboard-response","268","446862","0.0-1.0-369.0","0","0","44755","","null","","","null","40","","","","","","","","","","","","","","","NaN",""
"","S1","","html-keyboard-response","269","447117","0.0-1.0-371.0","0","0","44755","","null","","","null","41","","","","","","","","","","","","","","","",""
"","ISI","","html-keyboard-response","270","448127","0.0-1.0-372.0","0","0","44755","","null","","","null","41","NaN","","","","","","","","","","","","","","",""
"","S2","","html-keyboard-response","271","448385","0.0-1.0-373.0","0","0","44755","","null","","","null","41","","NaN","","","","","","","","","","","","","",""
"","response","","html-keyboard-response","272","448914","0.0-1.0-374.0-0.0","0","0","44755","","526","","","68","41","","","1","41","training","adjacent","AB","1","2","P.jpg","Q.jpg","0","1","0","",""
"","feedback","","html-keyboard-response","273","449919","0.0-1.0-375.0-0.0","0","0","44755","","null","","","null","41","","","","","","","","","","","","","","","",""
"","time_out","","html-keyboard-response","274","451923","0.0-1.0-377.0-0.0","0","0","44755","","null","","","null","41","","","","","","","","","","","","","","","",""
"","ITI","","html-keyboard-response","275","452928","0.0-1.0-378.0","0","0","44755","","null","","","null","41","","","","","","","","","","","","","","","NaN",""
"","S1","","html-keyboard-response","276","453184","0.0-1.0-380.0","0","0","44755","","null","","","null","42","","","","","","","","","","","","","","","",""
"","ISI","","html-keyboard-response","277","454191","0.0-1.0-381.0","0","0","44755","","null","","","null","42","NaN","","","","","","","","","","","","","","",""
"","S2","","html-keyboard-response","278","454445","0.0-1.0-382.0","0","0","44755","","null","","","null","42","","NaN","","","","","","","","","","","","","",""
"","response","","html-keyboard-response","279","454946","0.0-1.0-383.0-0.0","0","0","44755","","498","","","68","42","","","1","42","training","adjacent","DC","4","3","O.jpg","R.jpg","0","0","1","",""
"","feedback","","html-keyboard-response","280","455952","0.0-1.0-384.0-0.0","0","0","44755","","null","","","null","42","","","","","","","","","","","","","","","",""
"","ITI","","html-keyboard-response","281","456961","0.0-1.0-387.0","0","0","44755","","null","","","null","42","","","","","","","","","","","","","","","NaN",""
"","S1","","html-keyboard-response","282","457219","0.0-1.0-389.0","0","0","44755","","null","","","null","43","","","","","","","","","","","","","","","",""
"","ISI","","html-keyboard-response","283","458224","0.0-1.0-390.0","0","0","44755","","null","","","null","43","NaN","","","","","","","","","","","","","","",""
"","S2","","html-keyboard-response","284","458477","0.0-1.0-391.0","0","0","44755","","null","","","null","43","","NaN","","","","","","","","","","","","","",""
"","response","","html-keyboard-response","285","459042","0.0-1.0-392.0-0.0","0","0","44755","","563","","","75","43","","","1","43","training","adjacent","AB","1","2","P.jpg","Q.jpg","1","1","1","",""
"","feedback","","html-keyboard-response","286","460073","0.0-1.0-393.0-0.0","0","0","44755","","null","","","null","43","","","","","","","","","","","","","","","",""
"","ITI","","html-keyboard-response","287","461078","0.0-1.0-396.0","0","0","44755","","null","","","null","43","","","","","","","","","","","","","","","NaN",""
"","S1","","html-keyboard-response","288","461337","0.0-1.0-398.0","0","0","44755","","null","","","null","44","","","","","","","","","","","","","","","",""
"","ISI","","html-keyboard-response","289","462340","0.0-1.0-399.0","0","0","44755","","null","","","null","44","NaN","","","","","","","","","","","","","","",""
"","S2","","html-keyboard-response","290","462594","0.0-1.0-400.0","0","0","44755","","null","","","null","44","","NaN","","","","","","","","","","","","","",""
"","response","","html-keyboard-response","291","463386","0.0-1.0-401.0-0.0","0","0","44755","","790","","","68","44","","","1","44","training","adjacent","AB","1","2","P.jpg","Q.jpg","0","1","0","",""
"","feedback","","html-keyboard-response","292","464393","0.0-1.0-402.0-0.0","0","0","44755","","null","","","null","44","","","","","","","","","","","","","","","",""
"","time_out","","html-keyboard-response","293","466403","0.0-1.0-404.0-0.0","0","0","44755","","null","","","null","44","","","","","","","","","","","","","","","",""
"","ITI","","html-keyboard-response","294","467412","0.0-1.0-405.0","0","0","44755","","null","","","null","44","","","","","","","","","","","","","","","NaN",""
"","S1","","html-keyboard-response","295","467670","0.0-1.0-407.0","0","0","44755","","null","","","null","45","","","","","","","","","","","","","","","",""
"","ISI","","html-keyboard-response","296","468676","0.0-1.0-408.0","0","0","44755","","null","","","null","45","NaN","","","","","","","","","","","","","","",""
"","S2","","html-keyboard-response","297","468934","0.0-1.0-409.0","0","0","44755","","null","","","null","45","","NaN","","","","","","","","","","","","","",""
"","response","","html-keyboard-response","298","469225","0.0-1.0-410.0-0.0","0","0","44755","","286","","","75","45","","","1","45","training","adjacent","EF","5","6","M.jpg","L.jpg","1","1","1","",""
"","feedback","","html-keyboard-response","299","470235","0.0-1.0-411.0-0.0","0","0","44755","","null","","","null","45","","","","","","","","","","","","","","","",""
"","ITI","","html-keyboard-response","300","471246","0.0-1.0-414.0","0","0","44755","","null","","","null","45","","","","","","","","","","","","","","","NaN",""
"","S1","","html-keyboard-response","301","471505","0.0-1.0-416.0","0","0","44755","","null","","","null","46","","","","","","","","","","","","","","","",""
"","ISI","","html-keyboard-response","302","472511","0.0-1.0-417.0","0","0","44755","","null","","","null","46","NaN","","","","","","","","","","","","","","",""
"","S2","","html-keyboard-response","303","472767","0.0-1.0-418.0","0","0","44755","","null","","","null","46","","NaN","","","","","","","","","","","","","",""
"","response","","html-keyboard-response","304","473124","0.0-1.0-419.0-0.0","0","0","44755","","355","","","68","46","","","1","46","training","adjacent","DE","4","5","O.jpg","M.jpg","0","1","0","",""
"","feedback","","html-keyboard-response","305","474128","0.0-1.0-420.0-0.0","0","0","44755","","null","","","null","46","","","","","","","","","","","","","","","",""
"","time_out","","html-keyboard-response","306","476139","0.0-1.0-422.0-0.0","0","0","44755","","null","","","null","46","","","","","","","","","","","","","","","",""
"","ITI","","html-keyboard-response","307","477147","0.0-1.0-423.0","0","0","44755","","null","","","null","46","","","","","","","","","","","","","","","NaN",""
"","S1","","html-keyboard-response","308","477405","0.0-1.0-425.0","0","0","44755","","null","","","null","47","","","","","","","","","","","","","","","",""
"","ISI","","html-keyboard-response","309","478416","0.0-1.0-426.0","0","0","44755","","null","","","null","47","NaN","","","","","","","","","","","","","","",""
"","S2","","html-keyboard-response","310","478670","0.0-1.0-427.0","0","0","44755","","null","","","null","47","","NaN","","","","","","","","","","","","","",""
"","response","","html-keyboard-response","311","479018","0.0-1.0-428.0-0.0","0","0","44755","","345","","","75","47","","","1","47","training","adjacent","BA","2","1","Q.jpg","P.jpg","1","0","0","",""
"","feedback","","html-keyboard-response","312","480028","0.0-1.0-429.0-0.0","0","0","44755","","null","","","null","47","","","","","","","","","","","","","","","",""
"","time_out","","html-keyboard-response","313","482031","0.0-1.0-431.0-0.0","0","0","44755","","null","","","null","47","","","","","","","","","","","","","","","",""
"","ITI","","html-keyboard-response","314","483039","0.0-1.0-432.0","0","0","44755","","null","","","null","47","","","","","","","","","","","","","","","NaN",""
"","block_over","","html-keyboard-response","315","523951","0.0-1.0-433.0-0.0","0","0","44755","","40908","","","32","47","","","","","","","","","","","","","","","",""
"","S1","","html-keyboard-response","316","524206","0.0-1.0-434.0","0","0","44755","","null","","","null","48","","","","","","","","","","","","","","","",""
"","ISI","","html-keyboard-response","317","525210","0.0-1.0-435.0","0","0","44755","","null","","","null","48","NaN","","","","","","","","","","","","","","",""
"","S2","","html-keyboard-response","318","525467","0.0-1.0-436.0","0","0","44755","","null","","","null","48","","NaN","","","","","","","","","","","","","",""
"","response","","html-keyboard-response","319","526603","0.0-1.0-437.0-0.0","0","0","44755","","1133","","","68","48","","","2","48","training","adjacent","BA","2","1","Q.jpg","P.jpg","0","0","1","",""
"","feedback","","html-keyboard-response","320","527611","0.0-1.0-438.0-0.0","0","0","44755","","null","","","null","48","","","","","","","","","","","","","","","",""
"","ITI","","html-keyboard-response","321","528618","0.0-1.0-441.0","0","0","44755","","null","","","null","48","","","","","","","","","","","","","","","NaN",""
"","S1","","html-keyboard-response","322","528878","0.0-1.0-443.0","0","0","44755","","null","","","null","49","","","","","","","","","","","","","","","",""
"","ISI","","html-keyboard-response","323","529885","0.0-1.0-444.0","0","0","44755","","null","","","null","49","NaN","","","","","","","","","","","","","","",""
"","S2","","html-keyboard-response","324","530143","0.0-1.0-445.0","0","0","44755","","null","","","null","49","","NaN","","","","","","","","","","","","","",""
"","response","","html-keyboard-response","325","530512","0.0-1.0-446.0-0.0","0","0","44755","","366","","","75","49","","","2","49","training","adjacent","CD","3","4","R.jpg","O.jpg","1","1","1","",""
"","feedback","","html-keyboard-response","326","531521","0.0-1.0-447.0-0.0","0","0","44755","","null","","","null","49","","","","","","","","","","","","","","","",""
"","ITI","","html-keyboard-response","327","532527","0.0-1.0-450.0","0","0","44755","","null","","","null","49","","","","","","","","","","","","","","","NaN",""
"","S1","","html-keyboard-response","328","532785","0.0-1.0-452.0","0","0","44755","","null","","","null","50","","","","","","","","","","","","","","","",""
"","ISI","","html-keyboard-response","329","533793","0.0-1.0-453.0","0","0","44755","","null","","","null","50","NaN","","","","","","","","","","","","","","",""
"","S2","","html-keyboard-response","330","534052","0.0-1.0-454.0","0","0","44755","","null","","","null","50","","NaN","","","","","","","","","","","","","",""
"","response","","html-keyboard-response","331","534463","0.0-1.0-455.0-0.0","0","0","44755","","408","","","68","50","","","2","50","training","adjacent","FE","6","5","L.jpg","M.jpg","0","0","1","",""
"","feedback","","html-keyboard-response","332","535469","0.0-1.0-456.0-0.0","0","0","44755","","null","","","null","50","","","","","","","","","","","","","","","",""
"","ITI","","html-keyboard-response","333","536479","0.0-1.0-459.0","0","0","44755","","null","","","null","50","","","","","","","","","","","","","","","NaN",""
"","S1","","html-keyboard-response","334","536735","0.0-1.0-461.0","0","0","44755","","null","","","null","51","","","","","","","","","","","","","","","",""
"","ISI","","html-keyboard-response","335","537744","0.0-1.0-462.0","0","0","44755","","null","","","null","51","NaN","","","","","","","","","","","","","","",""
"","S2","","html-keyboard-response","336","538003","0.0-1.0-463.0","0","0","44755","","null","","","null","51","","NaN","","","","","","","","","","","","","",""
"","response","","html-keyboard-response","337","538568","0.0-1.0-464.0-0.0","0","0","44755","","562","","","68","51","","","2","51","training","adjacent","BC","2","3","Q.jpg","R.jpg","0","1","0","",""
"","feedback","","html-keyboard-response","338","539579","0.0-1.0-465.0-0.0","0","0","44755","","null","","","null","51","","","","","","","","","","","","","","","",""
"","time_out","","html-keyboard-response","339","541583","0.0-1.0-467.0-0.0","0","0","44755","","null","","","null","51","","","","","","","","","","","","","","","",""
"","ITI","","html-keyboard-response","340","542587","0.0-1.0-468.0","0","0","44755","","null","","","null","51","","","","","","","","","","","","","","","NaN",""
"","S1","","html-keyboard-response","341","542846","0.0-1.0-470.0","0","0","44755","","null","","","null","52","","","","","","","","","","","","","","","",""
"","ISI","","html-keyboard-response","342","543854","0.0-1.0-471.0","0","0","44755","","null","","","null","52","NaN","","","","","","","","","","","","","","",""
"","S2","","html-keyboard-response","343","544113","0.0-1.0-472.0","0","0","44755","","null","","","null","52","","NaN","","","","","","","","","","","","","",""
"","response","","html-keyboard-response","344","544613","0.0-1.0-473.0-0.0","0","0","44755","","498","","","75","52","","","2","52","training","adjacent","AB","1","2","P.jpg","Q.jpg","1","1","1","",""
"","feedback","","html-keyboard-response","345","545619","0.0-1.0-474.0-0.0","0","0","44755","","null","","","null","52","","","","","","","","","","","","","","","",""
"","ITI","","html-keyboard-response","346","546629","0.0-1.0-477.0","0","0","44755","","null","","","null","52","","","","","","","","","","","","","","","NaN",""
"","S1","","html-keyboard-response","347","546887","0.0-1.0-479.0","0","0","44755","","null","","","null","53","","","","","","","","","","","","","","","",""
"","ISI","","html-keyboard-response","348","547896","0.0-1.0-480.0","0","0","44755","","null","","","null","53","NaN","","","","","","","","","","","","","","",""
"","S2","","html-keyboard-response","349","548153","0.0-1.0-481.0","0","0","44755","","null","","","null","53","","NaN","","","","","","","","","","","","","",""
"","response","","html-keyboard-response","350","549013","0.0-1.0-482.0-0.0","0","0","44755","","858","","","68","53","","","2","53","training","adjacent","EF","5","6","M.jpg","L.jpg","0","1","0","",""
"","feedback","","html-keyboard-response","351","550020","0.0-1.0-483.0-0.0","0","0","44755","","null","","","null","53","","","","","","","","","","","","","","","",""
"","time_out","","html-keyboard-response","352","552032","0.0-1.0-485.0-0.0","0","0","44755","","null","","","null","53","","","","","","","","","","","","","","","",""
"","ITI","","html-keyboard-response","353","553039","0.0-1.0-486.0","0","0","44755","","null","","","null","53","","","","","","","","","","","","","","","NaN",""
"","S1","","html-keyboard-response","354","553298","0.0-1.0-488.0","0","0","44755","","null","","","null","54","","","","","","","","","","","","","","","",""
"","ISI","","html-keyboard-response","355","554304","0.0-1.0-489.0","0","0","44755","","null","","","null","54","NaN","","","","","","","","","","","","","","",""
"","S2","","html-keyboard-response","356","554564","0.0-1.0-490.0","0","0","44755","","null","","","null","54","","NaN","","","","","","","","","","","","","",""
"","response","","html-keyboard-response","357","555222","0.0-1.0-491.0-0.0","0","0","44755","","655","","","75","54","","","2","54","training","adjacent","BC","2","3","Q.jpg","R.jpg","1","1","1","",""
"","feedback","","html-keyboard-response","358","556225","0.0-1.0-492.0-0.0","0","0","44755","","null","","","null","54","","","","","","","","","","","","","","","",""
"","ITI","","html-keyboard-response","359","557230","0.0-1.0-495.0","0","0","44755","","null","","","null","54","","","","","","","","","","","","","","","NaN",""
"","S1","","html-keyboard-response","360","557489","0.0-1.0-497.0","0","0","44755","","null","","","null","55","","","","","","","","","","","","","","","",""
"","ISI","","html-keyboard-response","361","558493","0.0-1.0-498.0","0","0","44755","","null","","","null","55","NaN","","","","","","","","","","","","","","",""
"","S2","","html-keyboard-response","362","558751","0.0-1.0-499.0","0","0","44755","","null","","","null","55","","NaN","","","","","","","","","","","","","",""
"","response","","html-keyboard-response","363","559228","0.0-1.0-500.0-0.0","0","0","44755","","474","","","75","55","","","2","55","training","adjacent","DE","4","5","O.jpg","M.jpg","1","1","1","",""
"","feedback","","html-keyboard-response","364","560237","0.0-1.0-501.0-0.0","0","0","44755","","null","","","null","55","","","","","","","","","","","","","","","",""
"","ITI","","html-keyboard-response","365","561248","0.0-1.0-504.0","0","0","44755","","null","","","null","55","","","","","","","","","","","","","","","NaN",""
"","S1","","html-keyboard-response","366","561506","0.0-1.0-506.0","0","0","44755","","null","","","null","56","","","","","","","","","","","","","","","",""
"","ISI","","html-keyboard-response","367","562512","0.0-1.0-507.0","0","0","44755","","null","","","null","56","NaN","","","","","","","","","","","","","","",""
"","S2","","html-keyboard-response","368","562770","0.0-1.0-508.0","0","0","44755","","null","","","null","56","","NaN","","","","","","","","","","","","","",""
"","response","","html-keyboard-response","369","563669","0.0-1.0-509.0-0.0","0","0","44755","","897","","","68","56","","","2","56","training","adjacent","AB","1","2","P.jpg","Q.jpg","0","1","0","",""
"","feedback","","html-keyboard-response","370","564679","0.0-1.0-510.0-0.0","0","0","44755","","null","","","null","56","","","","","","","","","","","","","","","",""
"","time_out","","html-keyboard-response","371","566685","0.0-1.0-512.0-0.0","0","0","44755","","null","","","null","56","","","","","","","","","","","","","","","",""
"","ITI","","html-keyboard-response","372","567697","0.0-1.0-513.0","0","0","44755","","null","","","null","56","","","","","","","","","","","","","","","NaN",""
"","S1","","html-keyboard-response","373","567957","0.0-1.0-515.0","0","0","44755","","null","","","null","57","","","","","","","","","","","","","","","",""
"","ISI","","html-keyboard-response","374","568962","0.0-1.0-516.0","0","0","44755","","null","","","null","57","NaN","","","","","","","","","","","","","","",""
"","S2","","html-keyboard-response","375","569220","0.0-1.0-517.0","0","0","44755","","null","","","null","57","","NaN","","","","","","","","","","","","","",""
"","response","","html-keyboard-response","376","569650","0.0-1.0-518.0-0.0","0","0","44755","","427","","","68","57","","","2","57","training","adjacent","CB","3","2","R.jpg","Q.jpg","0","0","1","",""
"","feedback","","html-keyboard-response","377","570657","0.0-1.0-519.0-0.0","0","0","44755","","null","","","null","57","","","","","","","","","","","","","","","",""
"","ITI","","html-keyboard-response","378","571666","0.0-1.0-522.0","0","0","44755","","null","","","null","57","","","","","","","","","","","","","","","NaN",""
"","S1","","html-keyboard-response","379","571922","0.0-1.0-524.0","0","0","44755","","null","","","null","58","","","","","","","","","","","","","","","",""
"","ISI","","html-keyboard-response","380","572934","0.0-1.0-525.0","0","0","44755","","null","","","null","58","NaN","","","","","","","","","","","","","","",""
"","S2","","html-keyboard-response","381","573190","0.0-1.0-526.0","0","0","44755","","null","","","null","58","","NaN","","","","","","","","","","","","","",""
"","response","","html-keyboard-response","382","573697","0.0-1.0-527.0-0.0","0","0","44755","","504","","","75","58","","","2","58","training","adjacent","AB","1","2","P.jpg","Q.jpg","1","1","1","",""
"","feedback","","html-keyboard-response","383","574719","0.0-1.0-528.0-0.0","0","0","44755","","null","","","null","58","","","","","","","","","","","","","","","",""
"","ITI","","html-keyboard-response","384","575724","0.0-1.0-531.0","0","0","44755","","null","","","null","58","","","","","","","","","","","","","","","NaN",""
"","S1","","html-keyboard-response","385","575983","0.0-1.0-533.0","0","0","44755","","null","","","null","59","","","","","","","","","","","","","","","",""
"","ISI","","html-keyboard-response","386","576991","0.0-1.0-534.0","0","0","44755","","null","","","null","59","NaN","","","","","","","","","","","","","","",""
"","S2","","html-keyboard-response","387","577250","0.0-1.0-535.0","0","0","44755","","null","","","null","59","","NaN","","","","","","","","","","","","","",""
"","response","","html-keyboard-response","388","577744","0.0-1.0-536.0-0.0","0","0","44755","","492","","","68","59","","","2","59","training","adjacent","FG","6","7","L.jpg","N.jpg","0","1","0","",""
"","feedback","","html-keyboard-response","389","578750","0.0-1.0-537.0-0.0","0","0","44755","","null","","","null","59","","","","","","","","","","","","","","","",""
"","time_out","","html-keyboard-response","390","580758","0.0-1.0-539.0-0.0","0","0","44755","","null","","","null","59","","","","","","","","","","","","","","","",""
"","ITI","","html-keyboard-response","391","581767","0.0-1.0-540.0","0","0","44755","","null","","","null","59","","","","","","","","","","","","","","","NaN",""
"","S1","","html-keyboard-response","392","582021","0.0-1.0-542.0","0","0","44755","","null","","","null","60","","","","","","","","","","","","","","","",""
"","ISI","","html-keyboard-response","393","583025","0.0-1.0-543.0","0","0","44755","","null","","","null","60","NaN","","","","","","","","","","","","","","",""
"","S2","","html-keyboard-response","394","583284","0.0-1.0-544.0","0","0","44755","","null","","","null","60","","NaN","","","","","","","","","","","","","",""
"","response","","html-keyboard-response","395","583762","0.0-1.0-545.0-0.0","0","0","44755","","476","","","75","60","","","2","60","training","adjacent","EF","5","6","M.jpg","L.jpg","1","1","1","",""
"","feedback","","html-keyboard-response","396","584774","0.0-1.0-546.0-0.0","0","0","44755","","null","","","null","60","","","","","","","","","","","","","","","",""
"","ITI","","html-keyboard-response","397","585782","0.0-1.0-549.0","0","0","44755","","null","","","null","60","","","","","","","","","","","","","","","NaN",""
"","S1","","html-keyboard-response","398","586040","0.0-1.0-551.0","0","0","44755","","null","","","null","61","","","","","","","","","","","","","","","",""
"","ISI","","html-keyboard-response","399","587050","0.0-1.0-552.0","0","0","44755","","null","","","null","61","NaN","","","","","","","","","","","","","","",""
"","S2","","html-keyboard-response","400","587309","0.0-1.0-553.0","0","0","44755","","null","","","null","61","","NaN","","","","","","","","","","","","","",""
"","response","","html-keyboard-response","401","587817","0.0-1.0-554.0-0.0","0","0","44755","","506","","","68","61","","","2","61","training","adjacent","DC","4","3","O.jpg","R.jpg","0","0","1","",""
"","feedback","","html-keyboard-response","402","588829","0.0-1.0-555.0-0.0","0","0","44755","","null","","","null","61","","","","","","","","","","","","","","","",""
"","ITI","","html-keyboard-response","403","589837","0.0-1.0-558.0","0","0","44755","","null","","","null","61","","","","","","","","","","","","","","","NaN",""
"","S1","","html-keyboard-response","404","590097","0.0-1.0-560.0","0","0","44755","","null","","","null","62","","","","","","","","","","","","","","","",""
"","ISI","","html-keyboard-response","405","591100","0.0-1.0-561.0","0","0","44755","","null","","","null","62","NaN","","","","","","","","","","","","","","",""
"","S2","","html-keyboard-response","406","591359","0.0-1.0-562.0","0","0","44755","","null","","","null","62","","NaN","","","","","","","","","","","","","",""
"","response","","html-keyboard-response","407","591913","0.0-1.0-563.0-0.0","0","0","44755","","551","","","68","62","","","2","62","training","adjacent","DC","4","3","O.jpg","R.jpg","0","0","1","",""
"","feedback","","html-keyboard-response","408","592925","0.0-1.0-564.0-0.0","0","0","44755","","null","","","null","62","","","","","","","","","","","","","","","",""
"","ITI","","html-keyboard-response","409","593934","0.0-1.0-567.0","0","0","44755","","null","","","null","62","","","","","","","","","","","","","","","NaN",""
"","S1","","html-keyboard-response","410","594191","0.0-1.0-569.0","0","0","44755","","null","","","null","63","","","","","","","","","","","","","","","",""
"","ISI","","html-keyboard-response","411","595198","0.0-1.0-570.0","0","0","44755","","null","","","null","63","NaN","","","","","","","","","","","","","","",""
"","S2","","html-keyboard-response","412","595458","0.0-1.0-571.0","0","0","44755","","null","","","null","63","","NaN","","","","","","","","","","","","","",""
"","response","","html-keyboard-response","413","596900","0.0-1.0-572.0-0.0","0","0","44755","","1438","","","75","63","","","2","63","training","adjacent","FE","6","5","L.jpg","M.jpg","1","0","0","",""
"","feedback","","html-keyboard-response","414","597908","0.0-1.0-573.0-0.0","0","0","44755","","null","","","null","63","","","","","","","","","","","","","","","",""
"","time_out","","html-keyboard-response","415","599918","0.0-1.0-575.0-0.0","0","0","44755","","null","","","null","63","","","","","","","","","","","","","","","",""
"","ITI","","html-keyboard-response","416","600925","0.0-1.0-576.0","0","0","44755","","null","","","null","63","","","","","","","","","","","","","","","NaN",""
"","S1","","html-keyboard-response","417","601185","0.0-1.0-578.0","0","0","44755","","null","","","null","64","","","","","","","","","","","","","","","",""
"","ISI","","html-keyboard-response","418","602191","0.0-1.0-579.0","0","0","44755","","null","","","null","64","NaN","","","","","","","","","","","","","","",""
"","S2","","html-keyboard-response","419","602451","0.0-1.0-580.0","0","0","44755","","null","","","null","64","","NaN","","","","","","","","","","","","","",""
"","response","","html-keyboard-response","420","602852","0.0-1.0-581.0-0.0","0","0","44755","","398","","","68","64","","","2","64","training","adjacent","ED","5","4","M.jpg","O.jpg","0","0","1","",""
"","feedback","","html-keyboard-response","421","603858","0.0-1.0-582.0-0.0","0","0","44755","","null","","","null","64","","","","","","","","","","","","","","","",""
"","ITI","","html-keyboard-response","422","604867","0.0-1.0-585.0","0","0","44755","","null","","","null","64","","","","","","","","","","","","","","","NaN",""
"","S1","","html-keyboard-response","423","605127","0.0-1.0-587.0","0","0","44755","","null","","","null","65","","","","","","","","","","","","","","","",""
"","ISI","","html-keyboard-response","424","606135","0.0-1.0-588.0","0","0","44755","","null","","","null","65","NaN","","","","","","","","","","","","","","",""
"","S2","","html-keyboard-response","425","606391","0.0-1.0-589.0","0","0","44755","","null","","","null","65","","NaN","","","","","","","","","","","","","",""
"","response","","html-keyboard-response","426","607185","0.0-1.0-590.0-0.0","0","0","44755","","792","","","75","65","","","2","65","training","adjacent","ED","5","4","M.jpg","O.jpg","1","0","0","",""
"","feedback","","html-keyboard-response","427","608193","0.0-1.0-591.0-0.0","0","0","44755","","null","","","null","65","","","","","","","","","","","","","","","",""
"","time_out","","html-keyboard-response","428","610196","0.0-1.0-593.0-0.0","0","0","44755","","null","","","null","65","","","","","","","","","","","","","","","",""
"","ITI","","html-keyboard-response","429","611203","0.0-1.0-594.0","0","0","44755","","null","","","null","65","","","","","","","","","","","","","","","NaN",""
"","S1","","html-keyboard-response","430","611463","0.0-1.0-596.0","0","0","44755","","null","","","null","66","","","","","","","","","","","","","","","",""
"","ISI","","html-keyboard-response","431","612469","0.0-1.0-597.0","0","0","44755","","null","","","null","66","NaN","","","","","","","","","","","","","","",""
"","S2","","html-keyboard-response","432","612726","0.0-1.0-598.0","0","0","44755","","null","","","null","66","","NaN","","","","","","","","","","","","","",""
"","response","","html-keyboard-response","433","613099","0.0-1.0-599.0-0.0","0","0","44755","","371","","","75","66","","","2","66","training","adjacent","DE","4","5","O.jpg","M.jpg","1","1","1","",""
"","feedback","","html-keyboard-response","434","614111","0.0-1.0-600.0-0.0","0","0","44755","","null","","","null","66","","","","","","","","","","","","","","","",""
"","ITI","","html-keyboard-response","435","615120","0.0-1.0-603.0","0","0","44755","","null","","","null","66","","","","","","","","","","","","","","","NaN",""
"","S1","","html-keyboard-response","436","615377","0.0-1.0-605.0","0","0","44755","","null","","","null","67","","","","","","","","","","","","","","","",""
"","ISI","","html-keyboard-response","437","616384","0.0-1.0-606.0","0","0","44755","","null","","","null","67","NaN","","","","","","","","","","","","","","",""
"","S2","","html-keyboard-response","438","616644","0.0-1.0-607.0","0","0","44755","","null","","","null","67","","NaN","","","","","","","","","","","","","",""
"","response","","html-keyboard-response","439","617220","0.0-1.0-608.0-0.0","0","0","44755","","574","","","68","67","","","2","67","training","adjacent","GF","7","6","N.jpg","L.jpg","0","0","1","",""
"","feedback","","html-keyboard-response","440","618225","0.0-1.0-609.0-0.0","0","0","44755","","null","","","null","67","","","","","","","","","","","","","","","",""
"","ITI","","html-keyboard-response","441","619237","0.0-1.0-612.0","0","0","44755","","null","","","null","67","","","","","","","","","","","","","","","NaN",""
"","S1","","html-keyboard-response","442","619491","0.0-1.0-614.0","0","0","44755","","null","","","null","68","","","","","","","","","","","","","","","",""
"","ISI","","html-keyboard-response","443","620495","0.0-1.0-615.0","0","0","44755","","null","","","null","68","NaN","","","","","","","","","","","","","","",""
"","S2","","html-keyboard-response","444","620753","0.0-1.0-616.0","0","0","44755","","null","","","null","68","","NaN","","","","","","","","","","","","","",""
"","response","","html-keyboard-response","445","621447","0.0-1.0-617.0-0.0","0","0","44755","","691","","","68","68","","","2","68","training","adjacent","CB","3","2","R.jpg","Q.jpg","0","0","1","",""
"","feedback","","html-keyboard-response","446","622457","0.0-1.0-618.0-0.0","0","0","44755","","null","","","null","68","","","","","","","","","","","","","","","",""
"","ITI","","html-keyboard-response","447","623466","0.0-1.0-621.0","0","0","44755","","null","","","null","68","","","","","","","","","","","","","","","NaN",""
"","S1","","html-keyboard-response","448","623720","0.0-1.0-623.0","0","0","44755","","null","","","null","69","","","","","","","","","","","","","","","",""
"","ISI","","html-keyboard-response","449","624729","0.0-1.0-624.0","0","0","44755","","null","","","null","69","NaN","","","","","","","","","","","","","","",""
"","S2","","html-keyboard-response","450","624987","0.0-1.0-625.0","0","0","44755","","null","","","null","69","","NaN","","","","","","","","","","","","","",""
"","response","","html-keyboard-response","451","625357","0.0-1.0-626.0-0.0","0","0","44755","","367","","","75","69","","","2","69","training","adjacent","ED","5","4","M.jpg","O.jpg","1","0","0","",""
"","feedback","","html-keyboard-response","452","626365","0.0-1.0-627.0-0.0","0","0","44755","","null","","","null","69","","","","","","","","","","","","","","","",""
"","time_out","","html-keyboard-response","453","628368","0.0-1.0-629.0-0.0","0","0","44755","","null","","","null","69","","","","","","","","","","","","","","","",""
"","ITI","","html-keyboard-response","454","629378","0.0-1.0-630.0","0","0","44755","","null","","","null","69","","","","","","","","","","","","","","","NaN",""
"","S1","","html-keyboard-response","455","629638","0.0-1.0-632.0","0","0","44755","","null","","","null","70","","","","","","","","","","","","","","","",""
"","ISI","","html-keyboard-response","456","630646","0.0-1.0-633.0","0","0","44755","","null","","","null","70","NaN","","","","","","","","","","","","","","",""
"","S2","","html-keyboard-response","457","630905","0.0-1.0-634.0","0","0","44755","","null","","","null","70","","NaN","","","","","","","","","","","","","",""
"","response","","html-keyboard-response","458","631221","0.0-1.0-635.0-0.0","0","0","44755","","313","","","68","70","","","2","70","training","adjacent","AB","1","2","P.jpg","Q.jpg","0","1","0","",""
"","feedback","","html-keyboard-response","459","632228","0.0-1.0-636.0-0.0","0","0","44755","","null","","","null","70","","","","","","","","","","","","","","","",""
"","time_out","","html-keyboard-response","460","634243","0.0-1.0-638.0-0.0","0","0","44755","","null","","","null","70","","","","","","","","","","","","","","","",""
"","ITI","","html-keyboard-response","461","635246","0.0-1.0-639.0","0","0","44755","","null","","","null","70","","","","","","","","","","","","","","","NaN",""
"","S1","","html-keyboard-response","462","635505","0.0-1.0-641.0","0","0","44755","","null","","","null","71","","","","","","","","","","","","","","","",""
"","ISI","","html-keyboard-response","463","636513","0.0-1.0-642.0","0","0","44755","","null","","","null","71","NaN","","","","","","","","","","","","","","",""
"","S2","","html-keyboard-response","464","636770","0.0-1.0-643.0","0","0","44755","","null","","","null","71","","NaN","","","","","","","","","","","","","",""
"","response","","html-keyboard-response","465","638529","0.0-1.0-644.0-0.0","0","0","44755","","null","","","null","71","","","2","71","training","adjacent","CB","3","2","R.jpg","Q.jpg","NaN","0","0","",""
"","too_slow_prompt","","html-keyboard-response","466","639539","0.0-1.0-646.0-0.0","1","0","44755","","null","","","null","","","","","","","","","","","","","","","","",""
"","time_out","","html-keyboard-response","467","641547","0.0-1.0-647.0-0.0","0","0","44755","","null","","","null","71","","","","","","","","","","","","","","","",""
"","ITI","","html-keyboard-response","468","642552","0.0-1.0-648.0","0","0","44755","","null","","","null","71","","","","","","","","","","","","","","","NaN",""
"","S1","","html-keyboard-response","469","642810","0.0-1.0-650.0","0","0","44755","","null","","","null","72","","","","","","","","","","","","","","","",""
"","ISI","","html-keyboard-response","470","643822","0.0-1.0-651.0","0","0","44755","","null","","","null","72","NaN","","","","","","","","","","","","","","",""
"","S2","","html-keyboard-response","471","644081","0.0-1.0-652.0","0","0","44755","","null","","","null","72","","NaN","","","","","","","","","","","","","",""
"","response","","html-keyboard-response","472","644398","0.0-1.0-653.0-0.0","0","0","44755","","314","","","68","72","","","2","72","training","adjacent","GF","7","6","N.jpg","L.jpg","0","0","1","",""
"","feedback","","html-keyboard-response","473","645406","0.0-1.0-654.0-0.0","0","0","44755","","null","","","null","72","","","","","","","","","","","","","","","",""
"","ITI","","html-keyboard-response","474","646411","0.0-1.0-657.0","0","0","44755","","null","","","null","72","","","","","","","","","","","","","","","NaN",""
"","S1","","html-keyboard-response","475","646672","0.0-1.0-659.0","0","0","44755","","null","","","null","73","","","","","","","","","","","","","","","",""
"","ISI","","html-keyboard-response","476","647679","0.0-1.0-660.0","0","0","44755","","null","","","null","73","NaN","","","","","","","","","","","","","","",""
"","S2","","html-keyboard-response","477","647936","0.0-1.0-661.0","0","0","44755","","null","","","null","73","","NaN","","","","","","","","","","","","","",""
"","response","","html-keyboard-response","478","648668","0.0-1.0-662.0-0.0","0","0","44755","","729","","","68","73","","","2","73","training","adjacent","GF","7","6","N.jpg","L.jpg","0","0","1","",""
"","feedback","","html-keyboard-response","479","649679","0.0-1.0-663.0-0.0","0","0","44755","","null","","","null","73","","","","","","","","","","","","","","","",""
"","ITI","","html-keyboard-response","480","650689","0.0-1.0-666.0","0","0","44755","","null","","","null","73","","","","","","","","","","","","","","","NaN",""
"","S1","","html-keyboard-response","481","650945","0.0-1.0-668.0","0","0","44755","","null","","","null","74","","","","","","","","","","","","","","","",""
"","ISI","","html-keyboard-response","482","651951","0.0-1.0-669.0","0","0","44755","","null","","","null","74","NaN","","","","","","","","","","","","","","",""
"","S2","","html-keyboard-response","483","652206","0.0-1.0-670.0","0","0","44755","","null","","","null","74","","NaN","","","","","","","","","","","","","",""
"","response","","html-keyboard-response","484","652751","0.0-1.0-671.0-0.0","0","0","44755","","542","","","68","74","","","2","74","training","adjacent","GF","7","6","N.jpg","L.jpg","0","0","1","",""
"","feedback","","html-keyboard-response","485","653756","0.0-1.0-672.0-0.0","0","0","44755","","null","","","null","74","","","","","","","","","","","","","","","",""
"","ITI","","html-keyboard-response","486","654764","0.0-1.0-675.0","0","0","44755","","null","","","null","74","","","","","","","","","","","","","","","NaN",""
"","S1","","html-keyboard-response","487","655024","0.0-1.0-677.0","0","0","44755","","null","","","null","75","","","","","","","","","","","","","","","",""
"","ISI","","html-keyboard-response","488","656028","0.0-1.0-678.0","0","0","44755","","null","","","null","75","NaN","","","","","","","","","","","","","","",""
"","S2","","html-keyboard-response","489","656281","0.0-1.0-679.0","0","0","44755","","null","","","null","75","","NaN","","","","","","","","","","","","","",""
"","response","","html-keyboard-response","490","657139","0.0-1.0-680.0-0.0","0","0","44755","","854","","","75","75","","","2","75","training","adjacent","FG","6","7","L.jpg","N.jpg","1","1","1","",""
"","feedback","","html-keyboard-response","491","658148","0.0-1.0-681.0-0.0","0","0","44755","","null","","","null","75","","","","","","","","","","","","","","","",""
"","ITI","","html-keyboard-response","492","659157","0.0-1.0-684.0","0","0","44755","","null","","","null","75","","","","","","","","","","","","","","","NaN",""
"","S1","","html-keyboard-response","493","659415","0.0-1.0-686.0","0","0","44755","","null","","","null","76","","","","","","","","","","","","","","","",""
"","ISI","","html-keyboard-response","494","660424","0.0-1.0-687.0","0","0","44755","","null","","","null","76","NaN","","","","","","","","","","","","","","",""
"","S2","","html-keyboard-response","495","660687","0.0-1.0-688.0","0","0","44755","","null","","","null","76","","NaN","","","","","","","","","","","","","",""
"","response","","html-keyboard-response","496","661341","0.0-1.0-689.0-0.0","0","0","44755","","650","","","68","76","","","2","76","training","adjacent","CB","3","2","R.jpg","Q.jpg","0","0","1","",""
"","feedback","","html-keyboard-response","497","662346","0.0-1.0-690.0-0.0","0","0","44755","","null","","","null","76","","","","","","","","","","","","","","","",""
"","ITI","","html-keyboard-response","498","663357","0.0-1.0-693.0","0","0","44755","","null","","","null","76","","","","","","","","","","","","","","","NaN",""
"","S1","","html-keyboard-response","499","663616","0.0-1.0-695.0","0","0","44755","","null","","","null","77","","","","","","","","","","","","","","","",""
"","ISI","","html-keyboard-response","500","664625","0.0-1.0-696.0","0","0","44755","","null","","","null","77","NaN","","","","","","","","","","","","","","",""
"","S2","","html-keyboard-response","501","664882","0.0-1.0-697.0","0","0","44755","","null","","","null","77","","NaN","","","","","","","","","","","","","",""
"","response","","html-keyboard-response","502","665753","0.0-1.0-698.0-0.0","0","0","44755","","869","","","75","77","","","2","77","training","adjacent","BC","2","3","Q.jpg","R.jpg","1","1","1","",""
"","feedback","","html-keyboard-response","503","666758","0.0-1.0-699.0-0.0","0","0","44755","","null","","","null","77","","","","","","","","","","","","","","","",""
"","ITI","","html-keyboard-response","504","667765","0.0-1.0-702.0","0","0","44755","","null","","","null","77","","","","","","","","","","","","","","","NaN",""
"","S1","","html-keyboard-response","505","668027","0.0-1.0-704.0","0","0","44755","","null","","","null","78","","","","","","","","","","","","","","","",""
"","ISI","","html-keyboard-response","506","669036","0.0-1.0-705.0","0","0","44755","","null","","","null","78","NaN","","","","","","","","","","","","","","",""
"","S2","","html-keyboard-response","507","669295","0.0-1.0-706.0","0","0","44755","","null","","","null","78","","NaN","","","","","","","","","","","","","",""
"","response","","html-keyboard-response","508","670137","0.0-1.0-707.0-0.0","0","0","44755","","840","","","75","78","","","2","78","training","adjacent","CD","3","4","R.jpg","O.jpg","1","1","1","",""
"","feedback","","html-keyboard-response","509","671149","0.0-1.0-708.0-0.0","0","0","44755","","null","","","null","78","","","","","","","","","","","","","","","",""
"","ITI","","html-keyboard-response","510","672157","0.0-1.0-711.0","0","0","44755","","null","","","null","78","","","","","","","","","","","","","","","NaN",""
"","S1","","html-keyboard-response","511","672416","0.0-1.0-713.0","0","0","44755","","null","","","null","79","","","","","","","","","","","","","","","",""
"","ISI","","html-keyboard-response","512","673425","0.0-1.0-714.0","0","0","44755","","null","","","null","79","NaN","","","","","","","","","","","","","","",""
"","S2","","html-keyboard-response","513","673685","0.0-1.0-715.0","0","0","44755","","null","","","null","79","","NaN","","","","","","","","","","","","","",""
"","response","","html-keyboard-response","514","674383","0.0-1.0-716.0-0.0","0","0","44755","","695","","","75","79","","","2","79","training","adjacent","DC","4","3","O.jpg","R.jpg","1","0","0","",""
"","feedback","","html-keyboard-response","515","675402","0.0-1.0-717.0-0.0","0","0","44755","","null","","","null","79","","","","","","","","","","","","","","","",""
"","time_out","","html-keyboard-response","516","677406","0.0-1.0-719.0-0.0","0","0","44755","","null","","","null","79","","","","","","","","","","","","","","","",""
"","ITI","","html-keyboard-response","517","678415","0.0-1.0-720.0","0","0","44755","","null","","","null","79","","","","","","","","","","","","","","","NaN",""
"","S1","","html-keyboard-response","518","678672","0.0-1.0-722.0","0","0","44755","","null","","","null","80","","","","","","","","","","","","","","","",""
"","ISI","","html-keyboard-response","519","679676","0.0-1.0-723.0","0","0","44755","","null","","","null","80","NaN","","","","","","","","","","","","","","",""
"","S2","","html-keyboard-response","520","679933","0.0-1.0-724.0","0","0","44755","","null","","","null","80","","NaN","","","","","","","","","","","","","",""
"","response","","html-keyboard-response","521","681036","0.0-1.0-725.0-0.0","0","0","44755","","1100","","","68","80","","","2","80","training","adjacent","ED","5","4","M.jpg","O.jpg","0","0","1","",""
"","feedback","","html-keyboard-response","522","682042","0.0-1.0-726.0-0.0","0","0","44755","","null","","","null","80","","","","","","","","","","","","","","","",""
"","ITI","","html-keyboard-response","523","683051","0.0-1.0-729.0","0","0","44755","","null","","","null","80","","","","","","","","","","","","","","","NaN",""
"","S1","","html-keyboard-response","524","683308","0.0-1.0-731.0","0","0","44755","","null","","","null","81","","","","","","","","","","","","","","","",""
"","ISI","","html-keyboard-response","525","684316","0.0-1.0-732.0","0","0","44755","","null","","","null","81","NaN","","","","","","","","","","","","","","",""
"","S2","","html-keyboard-response","526","684577","0.0-1.0-733.0","0","0","44755","","null","","","null","81","","NaN","","","","","","","","","","","","","",""
"","response","","html-keyboard-response","527","685222","0.0-1.0-734.0-0.0","0","0","44755","","642","","","75","81","","","2","81","training","adjacent","DC","4","3","O.jpg","R.jpg","1","0","0","",""
"","feedback","","html-keyboard-response","528","686226","0.0-1.0-735.0-0.0","0","0","44755","","null","","","null","81","","","","","","","","","","","","","","","",""
"","time_out","","html-keyboard-response","529","688230","0.0-1.0-737.0-0.0","0","0","44755","","null","","","null","81","","","","","","","","","","","","","","","",""
"","ITI","","html-keyboard-response","530","689234","0.0-1.0-738.0","0","0","44755","","null","","","null","81","","","","","","","","","","","","","","","NaN",""
"","S1","","html-keyboard-response","531","689501","0.0-1.0-740.0","0","0","44755","","null","","","null","82","","","","","","","","","","","","","","","",""
"","ISI","","html-keyboard-response","532","690508","0.0-1.0-741.0","0","0","44755","","null","","","null","82","NaN","","","","","","","","","","","","","","",""
"","S2","","html-keyboard-response","533","690766","0.0-1.0-742.0","0","0","44755","","null","","","null","82","","NaN","","","","","","","","","","","","","",""
"","response","","html-keyboard-response","534","691154","0.0-1.0-743.0-0.0","0","0","44755","","385","","","75","82","","","2","82","training","adjacent","FG","6","7","L.jpg","N.jpg","1","1","1","",""
"","feedback","","html-keyboard-response","535","692161","0.0-1.0-744.0-0.0","0","0","44755","","null","","","null","82","","","","","","","","","","","","","","","",""
"","ITI","","html-keyboard-response","536","693170","0.0-1.0-747.0","0","0","44755","","null","","","null","82","","","","","","","","","","","","","","","NaN",""
"","S1","","html-keyboard-response","537","693428","0.0-1.0-749.0","0","0","44755","","null","","","null","83","","","","","","","","","","","","","","","",""
"","ISI","","html-keyboard-response","538","694435","0.0-1.0-750.0","0","0","44755","","null","","","null","83","NaN","","","","","","","","","","","","","","",""
"","S2","","html-keyboard-response","539","694695","0.0-1.0-751.0","0","0","44755","","null","","","null","83","","NaN","","","","","","","","","","","","","",""
"","response","","html-keyboard-response","540","695037","0.0-1.0-752.0-0.0","0","0","44755","","339","","","75","83","","","2","83","training","adjacent","DE","4","5","O.jpg","M.jpg","1","1","1","",""
"","feedback","","html-keyboard-response","541","696042","0.0-1.0-753.0-0.0","0","0","44755","","null","","","null","83","","","","","","","","","","","","","","","",""
"","ITI","","html-keyboard-response","542","697052","0.0-1.0-756.0","0","0","44755","","null","","","null","83","","","","","","","","","","","","","","","NaN",""
"","S1","","html-keyboard-response","543","697310","0.0-1.0-758.0","0","0","44755","","null","","","null","84","","","","","","","","","","","","","","","",""
"","ISI","","html-keyboard-response","544","698317","0.0-1.0-759.0","0","0","44755","","null","","","null","84","NaN","","","","","","","","","","","","","","",""
"","S2","","html-keyboard-response","545","698571","0.0-1.0-760.0","0","0","44755","","null","","","null","84","","NaN","","","","","","","","","","","","","",""
"","response","","html-keyboard-response","546","699055","0.0-1.0-761.0-0.0","0","0","44755","","480","","","75","84","","","2","84","training","adjacent","BA","2","1","Q.jpg","P.jpg","1","0","0","",""
"","feedback","","html-keyboard-response","547","700061","0.0-1.0-762.0-0.0","0","0","44755","","null","","","null","84","","","","","","","","","","","","","","","",""
"","time_out","","html-keyboard-response","548","702068","0.0-1.0-764.0-0.0","0","0","44755","","null","","","null","84","","","","","","","","","","","","","","","",""
"","ITI","","html-keyboard-response","549","703079","0.0-1.0-765.0","0","0","44755","","null","","","null","84","","","","","","","","","","","","","","","NaN",""
"","S1","","html-keyboard-response","550","703337","0.0-1.0-767.0","0","0","44755","","null","","","null","85","","","","","","","","","","","","","","","",""
"","ISI","","html-keyboard-response","551","704344","0.0-1.0-768.0","0","0","44755","","null","","","null","85","NaN","","","","","","","","","","","","","","",""
"","S2","","html-keyboard-response","552","704603","0.0-1.0-769.0","0","0","44755","","null","","","null","85","","NaN","","","","","","","","","","","","","",""
"","response","","html-keyboard-response","553","705136","0.0-1.0-770.0-0.0","0","0","44755","","530","","","68","85","","","2","85","training","adjacent","FE","6","5","L.jpg","M.jpg","0","0","1","",""
"","feedback","","html-keyboard-response","554","706141","0.0-1.0-771.0-0.0","0","0","44755","","null","","","null","85","","","","","","","","","","","","","","","",""
"","ITI","","html-keyboard-response","555","707146","0.0-1.0-774.0","0","0","44755","","null","","","null","85","","","","","","","","","","","","","","","NaN",""
"","S1","","html-keyboard-response","556","707404","0.0-1.0-776.0","0","0","44755","","null","","","null","86","","","","","","","","","","","","","","","",""
"","ISI","","html-keyboard-response","557","708413","0.0-1.0-777.0","0","0","44755","","null","","","null","86","NaN","","","","","","","","","","","","","","",""
"","S2","","html-keyboard-response","558","708670","0.0-1.0-778.0","0","0","44755","","null","","","null","86","","NaN","","","","","","","","","","","","","",""
"","response","","html-keyboard-response","559","709384","0.0-1.0-779.0-0.0","0","0","44755","","712","","","68","86","","","2","86","training","adjacent","CD","3","4","R.jpg","O.jpg","0","1","0","",""
"","feedback","","html-keyboard-response","560","710391","0.0-1.0-780.0-0.0","0","0","44755","","null","","","null","86","","","","","","","","","","","","","","","",""
"","time_out","","html-keyboard-response","561","712402","0.0-1.0-782.0-0.0","0","0","44755","","null","","","null","86","","","","","","","","","","","","","","","",""
"","ITI","","html-keyboard-response","562","713413","0.0-1.0-783.0","0","0","44755","","null","","","null","86","","","","","","","","","","","","","","","NaN",""
"","S1","","html-keyboard-response","563","713670","0.0-1.0-785.0","0","0","44755","","null","","","null","87","","","","","","","","","","","","","","","",""
"","ISI","","html-keyboard-response","564","714680","0.0-1.0-786.0","0","0","44755","","null","","","null","87","NaN","","","","","","","","","","","","","","",""
"","S2","","html-keyboard-response","565","714938","0.0-1.0-787.0","0","0","44755","","null","","","null","87","","NaN","","","","","","","","","","","","","",""
"","response","","html-keyboard-response","566","715662","0.0-1.0-788.0-0.0","0","0","44755","","721","","","68","87","","","2","87","training","adjacent","CD","3","4","R.jpg","O.jpg","0","1","0","",""
"","feedback","","html-keyboard-response","567","716670","0.0-1.0-789.0-0.0","0","0","44755","","null","","","null","87","","","","","","","","","","","","","","","",""
"","time_out","","html-keyboard-response","568","718680","0.0-1.0-791.0-0.0","0","0","44755","","null","","","null","87","","","","","","","","","","","","","","","",""
"","ITI","","html-keyboard-response","569","719688","0.0-1.0-792.0","0","0","44755","","966","","","68","87","","","","","","","","","","","","","","","d",""
"","S1","","html-keyboard-response","570","719946","0.0-1.0-794.0","0","0","44755","","null","","","null","88","","","","","","","","","","","","","","","",""
"","ISI","","html-keyboard-response","571","720954","0.0-1.0-795.0","0","0","44755","","null","","","null","88","NaN","","","","","","","","","","","","","","",""
"","S2","","html-keyboard-response","572","721214","0.0-1.0-796.0","0","0","44755","","null","","","null","88","","NaN","","","","","","","","","","","","","",""
"","response","","html-keyboard-response","573","721721","0.0-1.0-797.0-0.0","0","0","44755","","505","","","68","88","","","2","88","training","adjacent","BA","2","1","Q.jpg","P.jpg","0","0","1","",""
"","feedback","","html-keyboard-response","574","722728","0.0-1.0-798.0-0.0","0","0","44755","","null","","","null","88","","","","","","","","","","","","","","","",""
"","ITI","","html-keyboard-response","575","723737","0.0-1.0-801.0","0","0","44755","","null","","","null","88","","","","","","","","","","","","","","","NaN",""
"","S1","","html-keyboard-response","576","723997","0.0-1.0-803.0","0","0","44755","","null","","","null","89","","","","","","","","","","","","","","","",""
"","ISI","","html-keyboard-response","577","725005","0.0-1.0-804.0","0","0","44755","","null","","","null","89","NaN","","","","","","","","","","","","","","",""
"","S2","","html-keyboard-response","578","725263","0.0-1.0-805.0","0","0","44755","","null","","","null","89","","NaN","","","","","","","","","","","","","",""
"","response","","html-keyboard-response","579","725911","0.0-1.0-806.0-0.0","0","0","44755","","645","","","68","89","","","2","89","training","adjacent","BC","2","3","Q.jpg","R.jpg","0","1","0","",""
"","feedback","","html-keyboard-response","580","726915","0.0-1.0-807.0-0.0","0","0","44755","","null","","","null","89","","","","","","","","","","","","","","","",""
"","time_out","","html-keyboard-response","581","728918","0.0-1.0-809.0-0.0","0","0","44755","","null","","","null","89","","","","","","","","","","","","","","","",""
"","ITI","","html-keyboard-response","582","729922","0.0-1.0-810.0","0","0","44755","","760","","","68","89","","","","","","","","","","","","","","","d",""
