"success","ttype","start_time","trial_type","trial_index","time_elapsed","internal_node_id","warning","missed_checkup","PID","view_history","rt","responses","repeat_instructions","key_press","index","keypress_isi","keypress_S2","block","trial_num","phase","group_type","pair_type","S1_stim","S2_stim","S1_img","S2_img","S1_chosen","S1_higher","accuracy","keypress_iti","total_bonus_tally"
"true","full_screen","d04142023hr2052","fullscreen","0","10443","0.0-0.0","0","0","85054","","","","","","","","","","","","","","","","","","","","","",""
"","instructions","","instructions","1","33045","0.0-1.0-0.0-0.0","0","0","85054","[{""page_index"":0,""viewing_time"":2751},{""page_index"":1,""viewing_time"":12978},{""page_index"":2,""viewing_time"":5600},{""page_index"":3,""viewing_time"":1270}]","22599","","","","","","","","","","","","","","","","","","","",""
"","comprehension_check","","survey-multi-choice","2","51903","0.0-1.0-0.0-1.0","0","0","85054","","18855","{""Q0"":""True"",""Q1"":""D"",""Q2"":""Once the second image appears and while the screen 'MAKE A CHOICE' is shown"",""Q3"":""Green mark"",""Q4"":""either D or K""}","0","","","","","","","","","","","","","","","","","",""
"","start_exp","","html-keyboard-response","3","54150","0.0-1.0-1.0","0","0","85054","","2244","","","32","","","","","","","","","","","","","","","","",""
"","S1","","html-keyboard-response","4","54405","0.0-1.0-2.0","0","0","85054","","null","","","null","0","","","","","","","","","","","","","","","",""
"","ISI","","html-keyboard-response","5","55409","0.0-1.0-3.0","0","0","85054","","null","","","null","0","NaN","","","","","","","","","","","","","","",""
"","S2","","html-keyboard-response","6","55661","0.0-1.0-4.0","0","0","85054","","null","","","null","0","","NaN","","","","","","","","","","","","","",""
"","response","","html-keyboard-response","7","56191","0.0-1.0-5.0-0.0","0","0","85054","","528","","","75","0","","","1","0","training","adjacent","DC","4","3","N.jpg","M.jpg","0","0","1","",""
"","feedback","","html-keyboard-response","8","57194","0.0-1.0-6.0-0.0","0","0","85054","","null","","","null","0","","","","","","","","","","","","","","","",""
"","ITI","","html-keyboard-response","9","58196","0.0-1.0-9.0","0","0","85054","","null","","","null","0","","","","","","","","","","","","","","","NaN",""
"","S1","","html-keyboard-response","10","58449","0.0-1.0-11.0","0","0","85054","","null","","","null","1","","","","","","","","","","","","","","","",""
"","ISI","","html-keyboard-response","11","59452","0.0-1.0-12.0","0","0","85054","","null","","","null","1","NaN","","","","","","","","","","","","","","",""
"","S2","","html-keyboard-response","12","59704","0.0-1.0-13.0","0","0","85054","","null","","","null","1","","NaN","","","","","","","","","","","","","",""
"","response","","html-keyboard-response","13","60401","0.0-1.0-14.0-0.0","0","0","85054","","695","","","75","1","","","1","1","training","adjacent","EF","5","6","O.jpg","Q.jpg","0","1","0","",""
"","feedback","","html-keyboard-response","14","61406","0.0-1.0-15.0-0.0","0","0","85054","","null","","","null","1","","","","","","","","","","","","","","","",""
"","time_out","","html-keyboard-response","15","63408","0.0-1.0-17.0-0.0","0","0","85054","","null","","","null","1","","","","","","","","","","","","","","","",""
"","ITI","","html-keyboard-response","16","64411","0.0-1.0-18.0","0","0","85054","","null","","","null","1","","","","","","","","","","","","","","","NaN",""
"","S1","","html-keyboard-response","17","64665","0.0-1.0-20.0","0","0","85054","","null","","","null","2","","","","","","","","","","","","","","","",""
"","ISI","","html-keyboard-response","18","65667","0.0-1.0-21.0","0","0","85054","","null","","","null","2","NaN","","","","","","","","","","","","","","",""
"","S2","","html-keyboard-response","19","65919","0.0-1.0-22.0","0","0","85054","","null","","","null","2","","NaN","","","","","","","","","","","","","",""
"","response","","html-keyboard-response","20","66859","0.0-1.0-23.0-0.0","0","0","85054","","939","","","75","2","","","1","2","training","adjacent","DE","4","5","N.jpg","O.jpg","0","1","0","",""
"","feedback","","html-keyboard-response","21","67861","0.0-1.0-24.0-0.0","0","0","85054","","null","","","null","2","","","","","","","","","","","","","","","",""
"","time_out","","html-keyboard-response","22","69863","0.0-1.0-26.0-0.0","0","0","85054","","null","","","null","2","","","","","","","","","","","","","","","",""
"","ITI","","html-keyboard-response","23","70867","0.0-1.0-27.0","0","0","85054","","null","","","null","2","","","","","","","","","","","","","","","NaN",""
"","S1","","html-keyboard-response","24","71121","0.0-1.0-29.0","0","0","85054","","null","","","null","3","","","","","","","","","","","","","","","",""
"","ISI","","html-keyboard-response","25","72125","0.0-1.0-30.0","0","0","85054","","null","","","null","3","NaN","","","","","","","","","","","","","","",""
"","S2","","html-keyboard-response","26","72380","0.0-1.0-31.0","0","0","85054","","null","","","null","3","","NaN","","","","","","","","","","","","","",""
"","response","","html-keyboard-response","27","72913","0.0-1.0-32.0-0.0","0","0","85054","","531","","","68","3","","","1","3","training","adjacent","CB","3","2","M.jpg","P.jpg","1","0","0","",""
"","feedback","","html-keyboard-response","28","73917","0.0-1.0-33.0-0.0","0","0","85054","","null","","","null","3","","","","","","","","","","","","","","","",""
"","time_out","","html-keyboard-response","29","75920","0.0-1.0-35.0-0.0","0","0","85054","","null","","","null","3","","","","","","","","","","","","","","","",""
"","ITI","","html-keyboard-response","30","76922","0.0-1.0-36.0","0","0","85054","","null","","","null","3","","","","","","","","","","","","","","","NaN",""
"","S1","","html-keyboard-response","31","77176","0.0-1.0-38.0","0","0","85054","","null","","","null","4","","","","","","","","","","","","","","","",""
"","ISI","","html-keyboard-response","32","78179","0.0-1.0-39.0","0","0","85054","","null","","","null","4","NaN","","","","","","","","","","","","","","",""
"","S2","","html-keyboard-response","33","78434","0.0-1.0-40.0","0","0","85054","","null","","","null","4","","NaN","","","","","","","","","","","","","",""
"","response","","html-keyboard-response","34","78880","0.0-1.0-41.0-0.0","0","0","85054","","443","","","68","4","","","1","4","training","adjacent","ED","5","4","O.jpg","N.jpg","1","0","0","",""
"","feedback","","html-keyboard-response","35","79885","0.0-1.0-42.0-0.0","0","0","85054","","null","","","null","4","","","","","","","","","","","","","","","",""
"","time_out","","html-keyboard-response","36","81889","0.0-1.0-44.0-0.0","0","0","85054","","null","","","null","4","","","","","","","","","","","","","","","",""
"","ITI","","html-keyboard-response","37","82892","0.0-1.0-45.0","0","0","85054","","null","","","null","4","","","","","","","","","","","","","","","NaN",""
"","S1","","html-keyboard-response","38","83144","0.0-1.0-47.0","0","0","85054","","null","","","null","5","","","","","","","","","","","","","","","",""
"","ISI","","html-keyboard-response","39","84148","0.0-1.0-48.0","0","0","85054","","null","","","null","5","NaN","","","","","","","","","","","","","","",""
"","S2","","html-keyboard-response","40","84403","0.0-1.0-49.0","0","0","85054","","null","","","null","5","","NaN","","","","","","","","","","","","","",""
"","response","","html-keyboard-response","41","85204","0.0-1.0-50.0-0.0","0","0","85054","","800","","","75","5","","","1","5","training","adjacent","FE","6","5","Q.jpg","O.jpg","0","0","1","",""
"","feedback","","html-keyboard-response","42","86222","0.0-1.0-51.0-0.0","0","0","85054","","null","","","null","5","","","","","","","","","","","","","","","",""
"","ITI","","html-keyboard-response","43","87236","0.0-1.0-54.0","0","0","85054","","null","","","null","5","","","","","","","","","","","","","","","NaN",""
"","S1","","html-keyboard-response","44","87489","0.0-1.0-56.0","0","0","85054","","null","","","null","6","","","","","","","","","","","","","","","",""
"","ISI","","html-keyboard-response","45","88491","0.0-1.0-57.0","0","0","85054","","null","","","null","6","NaN","","","","","","","","","","","","","","",""
"","S2","","html-keyboard-response","46","88745","0.0-1.0-58.0","0","0","85054","","null","","","null","6","","NaN","","","","","","","","","","","","","",""
"","response","","html-keyboard-response","47","89214","0.0-1.0-59.0-0.0","0","0","85054","","465","","","68","6","","","1","6","training","adjacent","DE","4","5","N.jpg","O.jpg","1","1","1","",""
"","feedback","","html-keyboard-response","48","90218","0.0-1.0-60.0-0.0","0","0","85054","","null","","","null","6","","","","","","","","","","","","","","","",""
"","ITI","","html-keyboard-response","49","91223","0.0-1.0-63.0","0","0","85054","","null","","","null","6","","","","","","","","","","","","","","","NaN",""
"","S1","","html-keyboard-response","50","91491","0.0-1.0-65.0","0","0","85054","","null","","","null","7","","","","","","","","","","","","","","","",""
"","ISI","","html-keyboard-response","51","92494","0.0-1.0-66.0","0","0","85054","","null","","","null","7","NaN","","","","","","","","","","","","","","",""
"","S2","","html-keyboard-response","52","92749","0.0-1.0-67.0","0","0","85054","","null","","","null","7","","NaN","","","","","","","","","","","","","",""
"","response","","html-keyboard-response","53","93259","0.0-1.0-68.0-0.0","0","0","85054","","508","","","75","7","","","1","7","training","adjacent","AB","1","2","L.jpg","P.jpg","0","1","0","",""
"","feedback","","html-keyboard-response","54","94262","0.0-1.0-69.0-0.0","0","0","85054","","null","","","null","7","","","","","","","","","","","","","","","",""
"","time_out","","html-keyboard-response","55","96265","0.0-1.0-71.0-0.0","0","0","85054","","null","","","null","7","","","","","","","","","","","","","","","",""
"","ITI","","html-keyboard-response","56","97269","0.0-1.0-72.0","0","0","85054","","null","","","null","7","","","","","","","","","","","","","","","NaN",""
"","S1","","html-keyboard-response","57","97522","0.0-1.0-74.0","0","0","85054","","null","","","null","8","","","","","","","","","","","","","","","",""
"","ISI","","html-keyboard-response","58","98526","0.0-1.0-75.0","0","0","85054","","null","","","null","8","NaN","","","","","","","","","","","","","","",""
"","S2","","html-keyboard-response","59","98779","0.0-1.0-76.0","0","0","85054","","null","","","null","8","","NaN","","","","","","","","","","","","","",""
"","response","","html-keyboard-response","60","99433","0.0-1.0-77.0-0.0","0","0","85054","","653","","","68","8","","","1","8","training","adjacent","BA","2","1","P.jpg","L.jpg","1","0","0","",""
"","feedback","","html-keyboard-response","61","100435","0.0-1.0-78.0-0.0","0","0","85054","","null","","","null","8","","","","","","","","","","","","","","","",""
"","time_out","","html-keyboard-response","62","102438","0.0-1.0-80.0-0.0","0","0","85054","","null","","","null","8","","","","","","","","","","","","","","","",""
"","ITI","","html-keyboard-response","63","103441","0.0-1.0-81.0","0","0","85054","","null","","","null","8","","","","","","","","","","","","","","","NaN",""
"","S1","","html-keyboard-response","64","103694","0.0-1.0-83.0","0","0","85054","","null","","","null","9","","","","","","","","","","","","","","","",""
"","ISI","","html-keyboard-response","65","104698","0.0-1.0-84.0","0","0","85054","","null","","","null","9","NaN","","","","","","","","","","","","","","",""
"","S2","","html-keyboard-response","66","104951","0.0-1.0-85.0","0","0","85054","","null","","","null","9","","NaN","","","","","","","","","","","","","",""
"","response","","html-keyboard-response","67","105551","0.0-1.0-86.0-0.0","0","0","85054","","598","","","75","9","","","1","9","training","adjacent","CD","3","4","M.jpg","N.jpg","0","1","0","",""
"","feedback","","html-keyboard-response","68","106553","0.0-1.0-87.0-0.0","0","0","85054","","null","","","null","9","","","","","","","","","","","","","","","",""
"","time_out","","html-keyboard-response","69","108556","0.0-1.0-89.0-0.0","0","0","85054","","null","","","null","9","","","","","","","","","","","","","","","",""
"","ITI","","html-keyboard-response","70","109559","0.0-1.0-90.0","0","0","85054","","null","","","null","9","","","","","","","","","","","","","","","NaN",""
"","S1","","html-keyboard-response","71","109811","0.0-1.0-92.0","0","0","85054","","null","","","null","10","","","","","","","","","","","","","","","",""
"","ISI","","html-keyboard-response","72","110815","0.0-1.0-93.0","0","0","85054","","null","","","null","10","NaN","","","","","","","","","","","","","","",""
"","S2","","html-keyboard-response","73","111070","0.0-1.0-94.0","0","0","85054","","null","","","null","10","","NaN","","","","","","","","","","","","","",""
"","response","","html-keyboard-response","74","111601","0.0-1.0-95.0-0.0","0","0","85054","","530","","","75","10","","","1","10","training","adjacent","GF","7","6","R.jpg","Q.jpg","0","0","1","",""
"","feedback","","html-keyboard-response","75","112605","0.0-1.0-96.0-0.0","0","0","85054","","null","","","null","10","","","","","","","","","","","","","","","",""
"","ITI","","html-keyboard-response","76","113609","0.0-1.0-99.0","0","0","85054","","null","","","null","10","","","","","","","","","","","","","","","NaN",""
"","S1","","html-keyboard-response","77","113864","0.0-1.0-101.0","0","0","85054","","null","","","null","11","","","","","","","","","","","","","","","",""
"","ISI","","html-keyboard-response","78","114868","0.0-1.0-102.0","0","0","85054","","null","","","null","11","NaN","","","","","","","","","","","","","","",""
"","S2","","html-keyboard-response","79","115121","0.0-1.0-103.0","0","0","85054","","null","","","null","11","","NaN","","","","","","","","","","","","","",""
"","response","","html-keyboard-response","80","115486","0.0-1.0-104.0-0.0","0","0","85054","","361","","","68","11","","","1","11","training","adjacent","FG","6","7","Q.jpg","R.jpg","1","1","1","",""
"","feedback","","html-keyboard-response","81","116488","0.0-1.0-105.0-0.0","0","0","85054","","null","","","null","11","","","","","","","","","","","","","","","",""
"","ITI","","html-keyboard-response","82","117492","0.0-1.0-108.0","0","0","85054","","null","","","null","11","","","","","","","","","","","","","","","NaN",""
"","S1","","html-keyboard-response","83","117745","0.0-1.0-110.0","0","0","85054","","null","","","null","12","","","","","","","","","","","","","","","",""
"","ISI","","html-keyboard-response","84","118748","0.0-1.0-111.0","0","0","85054","","null","","","null","12","NaN","","","","","","","","","","","","","","",""
"","S2","","html-keyboard-response","85","119000","0.0-1.0-112.0","0","0","85054","","null","","","null","12","","NaN","","","","","","","","","","","","","",""
"","response","","html-keyboard-response","86","119933","0.0-1.0-113.0-0.0","0","0","85054","","930","","","68","12","","","1","12","training","adjacent","GF","7","6","R.jpg","Q.jpg","1","0","0","",""
"","feedback","","html-keyboard-response","87","120937","0.0-1.0-114.0-0.0","0","0","85054","","null","","","null","12","","","","","","","","","","","","","","","",""
"","time_out","","html-keyboard-response","88","122939","0.0-1.0-116.0-0.0","0","0","85054","","null","","","null","12","","","","","","","","","","","","","","","",""
"","ITI","","html-keyboard-response","89","123941","0.0-1.0-117.0","0","0","85054","","null","","","null","12","","","","","","","","","","","","","","","NaN",""
"","S1","","html-keyboard-response","90","124193","0.0-1.0-119.0","0","0","85054","","null","","","null","13","","","","","","","","","","","","","","","",""
"","ISI","","html-keyboard-response","91","125196","0.0-1.0-120.0","0","0","85054","","null","","","null","13","NaN","","","","","","","","","","","","","","",""
"","S2","","html-keyboard-response","92","125450","0.0-1.0-121.0","0","0","85054","","null","","","null","13","","NaN","","","","","","","","","","","","","",""
"","response","","html-keyboard-response","93","125900","0.0-1.0-122.0-0.0","0","0","85054","","449","","","75","13","","","1","13","training","adjacent","CD","3","4","M.jpg","N.jpg","0","1","0","",""
"","feedback","","html-keyboard-response","94","126904","0.0-1.0-123.0-0.0","0","0","85054","","null","","","null","13","","","","","","","","","","","","","","","",""
"","time_out","","html-keyboard-response","95","128907","0.0-1.0-125.0-0.0","0","0","85054","","null","","","null","13","","","","","","","","","","","","","","","",""
"","ITI","","html-keyboard-response","96","129911","0.0-1.0-126.0","0","0","85054","","null","","","null","13","","","","","","","","","","","","","","","NaN",""
"","S1","","html-keyboard-response","97","130163","0.0-1.0-128.0","0","0","85054","","null","","","null","14","","","","","","","","","","","","","","","",""
"","ISI","","html-keyboard-response","98","131167","0.0-1.0-129.0","0","0","85054","","null","","","null","14","NaN","","","","","","","","","","","","","","",""
"","S2","","html-keyboard-response","99","131421","0.0-1.0-130.0","0","0","85054","","null","","","null","14","","NaN","","","","","","","","","","","","","",""
"","response","","html-keyboard-response","100","131796","0.0-1.0-131.0-0.0","0","0","85054","","373","","","68","14","","","1","14","training","adjacent","DC","4","3","N.jpg","M.jpg","1","0","0","",""
"","feedback","","html-keyboard-response","101","132798","0.0-1.0-132.0-0.0","0","0","85054","","null","","","null","14","","","","","","","","","","","","","","","",""
"","time_out","","html-keyboard-response","102","134801","0.0-1.0-134.0-0.0","0","0","85054","","null","","","null","14","","","","","","","","","","","","","","","",""
"","ITI","","html-keyboard-response","103","135805","0.0-1.0-135.0","0","0","85054","","null","","","null","14","","","","","","","","","","","","","","","NaN",""
"","S1","","html-keyboard-response","104","136058","0.0-1.0-137.0","0","0","85054","","null","","","null","15","","","","","","","","","","","","","","","",""
"","ISI","","html-keyboard-response","105","137061","0.0-1.0-138.0","0","0","85054","","null","","","null","15","NaN","","","","","","","","","","","","","","",""
"","S2","","html-keyboard-response","106","137315","0.0-1.0-139.0","0","0","85054","","null","","","null","15","","NaN","","","","","","","","","","","","","",""
"","response","","html-keyboard-response","107","137676","0.0-1.0-140.0-0.0","0","0","85054","","359","","","68","15","","","1","15","training","adjacent","FG","6","7","Q.jpg","R.jpg","1","1","1","",""
"","feedback","","html-keyboard-response","108","138679","0.0-1.0-141.0-0.0","0","0","85054","","null","","","null","15","","","","","","","","","","","","","","","",""
"","ITI","","html-keyboard-response","109","139682","0.0-1.0-144.0","0","0","85054","","null","","","null","15","","","","","","","","","","","","","","","NaN",""
"","S1","","html-keyboard-response","110","139937","0.0-1.0-146.0","0","0","85054","","null","","","null","16","","","","","","","","","","","","","","","",""
"","ISI","","html-keyboard-response","111","140939","0.0-1.0-147.0","0","0","85054","","null","","","null","16","NaN","","","","","","","","","","","","","","",""
"","S2","","html-keyboard-response","112","141191","0.0-1.0-148.0","0","0","85054","","null","","","null","16","","NaN","","","","","","","","","","","","","",""
"","response","","html-keyboard-response","113","141540","0.0-1.0-149.0-0.0","0","0","85054","","348","","","68","16","","","1","16","training","adjacent","CB","3","2","M.jpg","P.jpg","1","0","0","",""
"","feedback","","html-keyboard-response","114","142544","0.0-1.0-150.0-0.0","0","0","85054","","null","","","null","16","","","","","","","","","","","","","","","",""
"","time_out","","html-keyboard-response","115","144546","0.0-1.0-152.0-0.0","0","0","85054","","null","","","null","16","","","","","","","","","","","","","","","",""
"","ITI","","html-keyboard-response","116","145549","0.0-1.0-153.0","0","0","85054","","null","","","null","16","","","","","","","","","","","","","","","NaN",""
"","S1","","html-keyboard-response","117","145802","0.0-1.0-155.0","0","0","85054","","null","","","null","17","","","","","","","","","","","","","","","",""
"","ISI","","html-keyboard-response","118","146806","0.0-1.0-156.0","0","0","85054","","null","","","null","17","NaN","","","","","","","","","","","","","","",""
"","S2","","html-keyboard-response","119","147060","0.0-1.0-157.0","0","0","85054","","null","","","null","17","","NaN","","","","","","","","","","","","","",""
"","response","","html-keyboard-response","120","147575","0.0-1.0-158.0-0.0","0","0","85054","","513","","","75","17","","","1","17","training","adjacent","ED","5","4","O.jpg","N.jpg","0","0","1","",""
"","feedback","","html-keyboard-response","121","148580","0.0-1.0-159.0-0.0","0","0","85054","","null","","","null","17","","","","","","","","","","","","","","","",""
"","ITI","","html-keyboard-response","122","149584","0.0-1.0-162.0","0","0","85054","","null","","","null","17","","","","","","","","","","","","","","","NaN",""
"","S1","","html-keyboard-response","123","149838","0.0-1.0-164.0","0","0","85054","","null","","","null","18","","","","","","","","","","","","","","","",""
"","ISI","","html-keyboard-response","124","150841","0.0-1.0-165.0","0","0","85054","","null","","","null","18","NaN","","","","","","","","","","","","","","",""
"","S2","","html-keyboard-response","125","151095","0.0-1.0-166.0","0","0","85054","","null","","","null","18","","NaN","","","","","","","","","","","","","",""
"","response","","html-keyboard-response","126","151408","0.0-1.0-167.0-0.0","0","0","85054","","311","","","68","18","","","1","18","training","adjacent","BA","2","1","P.jpg","L.jpg","1","0","0","",""
"","feedback","","html-keyboard-response","127","152410","0.0-1.0-168.0-0.0","0","0","85054","","null","","","null","18","","","","","","","","","","","","","","","",""
"","time_out","","html-keyboard-response","128","154413","0.0-1.0-170.0-0.0","0","0","85054","","null","","","null","18","","","","","","","","","","","","","","","",""
"","ITI","","html-keyboard-response","129","155415","0.0-1.0-171.0","0","0","85054","","null","","","null","18","","","","","","","","","","","","","","","NaN",""
"","S1","","html-keyboard-response","130","155669","0.0-1.0-173.0","0","0","85054","","null","","","null","19","","","","","","","","","","","","","","","",""
"","ISI","","html-keyboard-response","131","156672","0.0-1.0-174.0","0","0","85054","","null","","","null","19","NaN","","","","","","","","","","","","","","",""
"","S2","","html-keyboard-response","132","156927","0.0-1.0-175.0","0","0","85054","","null","","","null","19","","NaN","","","","","","","","","","","","","",""
"","response","","html-keyboard-response","133","157371","0.0-1.0-176.0-0.0","0","0","85054","","442","","","75","19","","","1","19","training","adjacent","BC","2","3","P.jpg","M.jpg","0","1","0","",""
"","feedback","","html-keyboard-response","134","158374","0.0-1.0-177.0-0.0","0","0","85054","","null","","","null","19","","","","","","","","","","","","","","","",""
"","time_out","","html-keyboard-response","135","160378","0.0-1.0-179.0-0.0","0","0","85054","","null","","","null","19","","","","","","","","","","","","","","","",""
"","ITI","","html-keyboard-response","136","161381","0.0-1.0-180.0","0","0","85054","","null","","","null","19","","","","","","","","","","","","","","","NaN",""
"","S1","","html-keyboard-response","137","161633","0.0-1.0-182.0","0","0","85054","","null","","","null","20","","","","","","","","","","","","","","","",""
"","ISI","","html-keyboard-response","138","162636","0.0-1.0-183.0","0","0","85054","","null","","","null","20","NaN","","","","","","","","","","","","","","",""
"","S2","","html-keyboard-response","139","162891","0.0-1.0-184.0","0","0","85054","","null","","","null","20","","NaN","","","","","","","","","","","","","",""
"","response","","html-keyboard-response","140","163454","0.0-1.0-185.0-0.0","0","0","85054","","560","","","68","20","","","1","20","training","adjacent","BC","2","3","P.jpg","M.jpg","1","1","1","",""
"","feedback","","html-keyboard-response","141","164459","0.0-1.0-186.0-0.0","0","0","85054","","null","","","null","20","","","","","","","","","","","","","","","",""
"","ITI","","html-keyboard-response","142","165461","0.0-1.0-189.0","0","0","85054","","null","","","null","20","","","","","","","","","","","","","","","NaN",""
"","S1","","html-keyboard-response","143","165714","0.0-1.0-191.0","0","0","85054","","null","","","null","21","","","","","","","","","","","","","","","",""
"","ISI","","html-keyboard-response","144","166717","0.0-1.0-192.0","0","0","85054","","null","","","null","21","NaN","","","","","","","","","","","","","","",""
"","S2","","html-keyboard-response","145","166972","0.0-1.0-193.0","0","0","85054","","null","","","null","21","","NaN","","","","","","","","","","","","","",""
"","response","","html-keyboard-response","146","167318","0.0-1.0-194.0-0.0","0","0","85054","","345","","","68","21","","","1","21","training","adjacent","FE","6","5","Q.jpg","O.jpg","1","0","0","",""
"","feedback","","html-keyboard-response","147","168323","0.0-1.0-195.0-0.0","0","0","85054","","null","","","null","21","","","","","","","","","","","","","","","",""
"","time_out","","html-keyboard-response","148","170325","0.0-1.0-197.0-0.0","0","0","85054","","null","","","null","21","","","","","","","","","","","","","","","",""
"","ITI","","html-keyboard-response","149","171329","0.0-1.0-198.0","0","0","85054","","null","","","null","21","","","","","","","","","","","","","","","NaN",""
"","S1","","html-keyboard-response","150","171583","0.0-1.0-200.0","0","0","85054","","null","","","null","22","","","","","","","","","","","","","","","",""
"","ISI","","html-keyboard-response","151","172586","0.0-1.0-201.0","0","0","85054","","null","","","null","22","NaN","","","","","","","","","","","","","","",""
"","S2","","html-keyboard-response","152","172838","0.0-1.0-202.0","0","0","85054","","null","","","null","22","","NaN","","","","","","","","","","","","","",""
"","response","","html-keyboard-response","153","173421","0.0-1.0-203.0-0.0","0","0","85054","","580","","","68","22","","","1","22","training","adjacent","BC","2","3","P.jpg","M.jpg","1","1","1","",""
"","feedback","","html-keyboard-response","154","174427","0.0-1.0-204.0-0.0","0","0","85054","","null","","","null","22","","","","","","","","","","","","","","","",""
"","ITI","","html-keyboard-response","155","175432","0.0-1.0-207.0","0","0","85054","","null","","","null","22","","","","","","","","","","","","","","","NaN",""
"","S1","","html-keyboard-response","156","175685","0.0-1.0-209.0","0","0","85054","","null","","","null","23","","","","","","","","","","","","","","","",""
"","ISI","","html-keyboard-response","157","176689","0.0-1.0-210.0","0","0","85054","","null","","","null","23","NaN","","","","","","","","","","","","","","",""
"","S2","","html-keyboard-response","158","176944","0.0-1.0-211.0","0","0","85054","","null","","","null","23","","NaN","","","","","","","","","","","","","",""
"","response","","html-keyboard-response","159","177660","0.0-1.0-212.0-0.0","0","0","85054","","714","","","75","23","","","1","23","training","adjacent","AB","1","2","L.jpg","P.jpg","0","1","0","",""
"","feedback","","html-keyboard-response","160","178663","0.0-1.0-213.0-0.0","0","0","85054","","null","","","null","23","","","","","","","","","","","","","","","",""
"","time_out","","html-keyboard-response","161","180666","0.0-1.0-215.0-0.0","0","0","85054","","null","","","null","23","","","","","","","","","","","","","","","",""
"","ITI","","html-keyboard-response","162","181670","0.0-1.0-216.0","0","0","85054","","null","","","null","23","","","","","","","","","","","","","","","NaN",""
"","S1","","html-keyboard-response","163","181922","0.0-1.0-218.0","0","0","85054","","null","","","null","24","","","","","","","","","","","","","","","",""
"","ISI","","html-keyboard-response","164","182926","0.0-1.0-219.0","0","0","85054","","null","","","null","24","NaN","","","","","","","","","","","","","","",""
"","S2","","html-keyboard-response","165","183179","0.0-1.0-220.0","0","0","85054","","null","","","null","24","","NaN","","","","","","","","","","","","","",""
"","response","","html-keyboard-response","166","183497","0.0-1.0-221.0-0.0","0","0","85054","","316","","","68","24","","","1","24","training","adjacent","DC","4","3","N.jpg","M.jpg","1","0","0","",""
"","feedback","","html-keyboard-response","167","184502","0.0-1.0-222.0-0.0","0","0","85054","","null","","","null","24","","","","","","","","","","","","","","","",""
"","time_out","","html-keyboard-response","168","186515","0.0-1.0-224.0-0.0","0","0","85054","","null","","","null","24","","","","","","","","","","","","","","","",""
"","ITI","","html-keyboard-response","169","187519","0.0-1.0-225.0","0","0","85054","","null","","","null","24","","","","","","","","","","","","","","","NaN",""
"","S1","","html-keyboard-response","170","187772","0.0-1.0-227.0","0","0","85054","","null","","","null","25","","","","","","","","","","","","","","","",""
"","ISI","","html-keyboard-response","171","188774","0.0-1.0-228.0","0","0","85054","","null","","","null","25","NaN","","","","","","","","","","","","","","",""
"","S2","","html-keyboard-response","172","189027","0.0-1.0-229.0","0","0","85054","","null","","","null","25","","NaN","","","","","","","","","","","","","",""
"","response","","html-keyboard-response","173","189716","0.0-1.0-230.0-0.0","0","0","85054","","688","","","68","25","","","1","25","training","adjacent","FE","6","5","Q.jpg","O.jpg","1","0","0","",""
"","feedback","","html-keyboard-response","174","190720","0.0-1.0-231.0-0.0","0","0","85054","","null","","","null","25","","","","","","","","","","","","","","","",""
"","time_out","","html-keyboard-response","175","192723","0.0-1.0-233.0-0.0","0","0","85054","","null","","","null","25","","","","","","","","","","","","","","","",""
"","ITI","","html-keyboard-response","176","193724","0.0-1.0-234.0","0","0","85054","","null","","","null","25","","","","","","","","","","","","","","","NaN",""
"","S1","","html-keyboard-response","177","193977","0.0-1.0-236.0","0","0","85054","","null","","","null","26","","","","","","","","","","","","","","","",""
"","ISI","","html-keyboard-response","178","194980","0.0-1.0-237.0","0","0","85054","","null","","","null","26","NaN","","","","","","","","","","","","","","",""
"","S2","","html-keyboard-response","179","195233","0.0-1.0-238.0","0","0","85054","","null","","","null","26","","NaN","","","","","","","","","","","","","",""
"","response","","html-keyboard-response","180","195803","0.0-1.0-239.0-0.0","0","0","85054","","568","","","68","26","","","1","26","training","adjacent","FG","6","7","Q.jpg","R.jpg","1","1","1","",""
"","feedback","","html-keyboard-response","181","196807","0.0-1.0-240.0-0.0","0","0","85054","","null","","","null","26","","","","","","","","","","","","","","","",""
"","ITI","","html-keyboard-response","182","197810","0.0-1.0-243.0","0","0","85054","","null","","","null","26","","","","","","","","","","","","","","","NaN",""
"","S1","","html-keyboard-response","183","198063","0.0-1.0-245.0","0","0","85054","","null","","","null","27","","","","","","","","","","","","","","","",""
"","ISI","","html-keyboard-response","184","199067","0.0-1.0-246.0","0","0","85054","","null","","","null","27","NaN","","","","","","","","","","","","","","",""
"","S2","","html-keyboard-response","185","199320","0.0-1.0-247.0","0","0","85054","","null","","","null","27","","NaN","","","","","","","","","","","","","",""
"","response","","html-keyboard-response","186","199949","0.0-1.0-248.0-0.0","0","0","85054","","626","","","75","27","","","1","27","training","adjacent","DE","4","5","N.jpg","O.jpg","0","1","0","",""
"","feedback","","html-keyboard-response","187","200954","0.0-1.0-249.0-0.0","0","0","85054","","null","","","null","27","","","","","","","","","","","","","","","",""
"","time_out","","html-keyboard-response","188","202957","0.0-1.0-251.0-0.0","0","0","85054","","null","","","null","27","","","","","","","","","","","","","","","",""
"","ITI","","html-keyboard-response","189","203959","0.0-1.0-252.0","0","0","85054","","null","","","null","27","","","","","","","","","","","","","","","NaN",""
"","S1","","html-keyboard-response","190","204211","0.0-1.0-254.0","0","0","85054","","null","","","null","28","","","","","","","","","","","","","","","",""
"","ISI","","html-keyboard-response","191","205213","0.0-1.0-255.0","0","0","85054","","null","","","null","28","NaN","","","","","","","","","","","","","","",""
"","S2","","html-keyboard-response","192","205467","0.0-1.0-256.0","0","0","85054","","null","","","null","28","","NaN","","","","","","","","","","","","","",""
"","response","","html-keyboard-response","193","206296","0.0-1.0-257.0-0.0","0","0","85054","","827","","","68","28","","","1","28","training","adjacent","DC","4","3","N.jpg","M.jpg","1","0","0","",""
"","feedback","","html-keyboard-response","194","207298","0.0-1.0-258.0-0.0","0","0","85054","","null","","","null","28","","","","","","","","","","","","","","","",""
"","time_out","","html-keyboard-response","195","209301","0.0-1.0-260.0-0.0","0","0","85054","","null","","","null","28","","","","","","","","","","","","","","","",""
"","ITI","","html-keyboard-response","196","210305","0.0-1.0-261.0","0","0","85054","","null","","","null","28","","","","","","","","","","","","","","","NaN",""
"","S1","","html-keyboard-response","197","210558","0.0-1.0-263.0","0","0","85054","","null","","","null","29","","","","","","","","","","","","","","","",""
"","ISI","","html-keyboard-response","198","211561","0.0-1.0-264.0","0","0","85054","","null","","","null","29","NaN","","","","","","","","","","","","","","",""
"","S2","","html-keyboard-response","199","211814","0.0-1.0-265.0","0","0","85054","","null","","","null","29","","NaN","","","","","","","","","","","","","",""
"","response","","html-keyboard-response","200","212473","0.0-1.0-266.0-0.0","0","0","85054","","657","","","75","29","","","1","29","training","adjacent","EF","5","6","O.jpg","Q.jpg","0","1","0","",""
"","feedback","","html-keyboard-response","201","213478","0.0-1.0-267.0-0.0","0","0","85054","","null","","","null","29","","","","","","","","","","","","","","","",""
"","time_out","","html-keyboard-response","202","215480","0.0-1.0-269.0-0.0","0","0","85054","","null","","","null","29","","","","","","","","","","","","","","","",""
"","ITI","","html-keyboard-response","203","216482","0.0-1.0-270.0","0","0","85054","","null","","","null","29","","","","","","","","","","","","","","","NaN",""
"","S1","","html-keyboard-response","204","216734","0.0-1.0-272.0","0","0","85054","","null","","","null","30","","","","","","","","","","","","","","","",""
"","ISI","","html-keyboard-response","205","217737","0.0-1.0-273.0","0","0","85054","","null","","","null","30","NaN","","","","","","","","","","","","","","",""
"","S2","","html-keyboard-response","206","217991","0.0-1.0-274.0","0","0","85054","","null","","","null","30","","NaN","","","","","","","","","","","","","",""
"","response","","html-keyboard-response","207","218638","0.0-1.0-275.0-0.0","0","0","85054","","644","","","75","30","","","1","30","training","adjacent","ED","5","4","O.jpg","N.jpg","0","0","1","",""
"","feedback","","html-keyboard-response","208","219641","0.0-1.0-276.0-0.0","0","0","85054","","null","","","null","30","","","","","","","","","","","","","","","",""
"","ITI","","html-keyboard-response","209","220644","0.0-1.0-279.0","0","0","85054","","null","","","null","30","","","","","","","","","","","","","","","NaN",""
"","S1","","html-keyboard-response","210","220899","0.0-1.0-281.0","0","0","85054","","null","","","null","31","","","","","","","","","","","","","","","",""
"","ISI","","html-keyboard-response","211","221903","0.0-1.0-282.0","0","0","85054","","null","","","null","31","NaN","","","","","","","","","","","","","","",""
"","S2","","html-keyboard-response","212","222156","0.0-1.0-283.0","0","0","85054","","null","","","null","31","","NaN","","","","","","","","","","","","","",""
"","response","","html-keyboard-response","213","223329","0.0-1.0-284.0-0.0","0","0","85054","","1172","","","75","31","","","1","31","training","adjacent","BA","2","1","P.jpg","L.jpg","0","0","1","",""
"","feedback","","html-keyboard-response","214","224331","0.0-1.0-285.0-0.0","0","0","85054","","null","","","null","31","","","","","","","","","","","","","","","",""
"","ITI","","html-keyboard-response","215","225344","0.0-1.0-288.0","0","0","85054","","null","","","null","31","","","","","","","","","","","","","","","NaN",""
"","S1","","html-keyboard-response","216","225598","0.0-1.0-290.0","0","0","85054","","null","","","null","32","","","","","","","","","","","","","","","",""
"","ISI","","html-keyboard-response","217","226600","0.0-1.0-291.0","0","0","85054","","null","","","null","32","NaN","","","","","","","","","","","","","","",""
"","S2","","html-keyboard-response","218","226853","0.0-1.0-292.0","0","0","85054","","null","","","null","32","","NaN","","","","","","","","","","","","","",""
"","response","","html-keyboard-response","219","227953","0.0-1.0-293.0-0.0","0","0","85054","","1099","","","68","32","","","1","32","training","adjacent","BC","2","3","P.jpg","M.jpg","1","1","1","",""
"","feedback","","html-keyboard-response","220","228958","0.0-1.0-294.0-0.0","0","0","85054","","null","","","null","32","","","","","","","","","","","","","","","",""
"","ITI","","html-keyboard-response","221","229962","0.0-1.0-297.0","0","0","85054","","null","","","null","32","","","","","","","","","","","","","","","NaN",""
"","S1","","html-keyboard-response","222","230228","0.0-1.0-299.0","0","0","85054","","null","","","null","33","","","","","","","","","","","","","","","",""
"","ISI","","html-keyboard-response","223","231231","0.0-1.0-300.0","0","0","85054","","null","","","null","33","NaN","","","","","","","","","","","","","","",""
"","S2","","html-keyboard-response","224","231486","0.0-1.0-301.0","0","0","85054","","null","","","null","33","","NaN","","","","","","","","","","","","","",""
"","response","","html-keyboard-response","225","232327","0.0-1.0-302.0-0.0","0","0","85054","","839","","","68","33","","","1","33","training","adjacent","CD","3","4","M.jpg","N.jpg","1","1","1","",""
"","feedback","","html-keyboard-response","226","233330","0.0-1.0-303.0-0.0","0","0","85054","","null","","","null","33","","","","","","","","","","","","","","","",""
"","ITI","","html-keyboard-response","227","234331","0.0-1.0-306.0","0","0","85054","","null","","","null","33","","","","","","","","","","","","","","","NaN",""
"","S1","","html-keyboard-response","228","234584","0.0-1.0-308.0","0","0","85054","","null","","","null","34","","","","","","","","","","","","","","","",""
"","ISI","","html-keyboard-response","229","235587","0.0-1.0-309.0","0","0","85054","","null","","","null","34","NaN","","","","","","","","","","","","","","",""
"","S2","","html-keyboard-response","230","235840","0.0-1.0-310.0","0","0","85054","","null","","","null","34","","NaN","","","","","","","","","","","","","",""
"","response","","html-keyboard-response","231","236764","0.0-1.0-311.0-0.0","0","0","85054","","923","","","75","34","","","1","34","training","adjacent","DE","4","5","N.jpg","O.jpg","0","1","0","",""
"","feedback","","html-keyboard-response","232","237768","0.0-1.0-312.0-0.0","0","0","85054","","null","","","null","34","","","","","","","","","","","","","","","",""
"","time_out","","html-keyboard-response","233","239770","0.0-1.0-314.0-0.0","0","0","85054","","null","","","null","34","","","","","","","","","","","","","","","",""
"","ITI","","html-keyboard-response","234","240772","0.0-1.0-315.0","0","0","85054","","null","","","null","34","","","","","","","","","","","","","","","NaN",""
"","S1","","html-keyboard-response","235","241026","0.0-1.0-317.0","0","0","85054","","null","","","null","35","","","","","","","","","","","","","","","",""
"","ISI","","html-keyboard-response","236","242029","0.0-1.0-318.0","0","0","85054","","null","","","null","35","NaN","","","","","","","","","","","","","","",""
"","S2","","html-keyboard-response","237","242282","0.0-1.0-319.0","0","0","85054","","null","","","null","35","","NaN","","","","","","","","","","","","","",""
"","response","","html-keyboard-response","238","243000","0.0-1.0-320.0-0.0","0","0","85054","","716","","","68","35","","","1","35","training","adjacent","EF","5","6","O.jpg","Q.jpg","1","1","1","",""
"","feedback","","html-keyboard-response","239","244004","0.0-1.0-321.0-0.0","0","0","85054","","null","","","null","35","","","","","","","","","","","","","","","",""
"","ITI","","html-keyboard-response","240","245008","0.0-1.0-324.0","0","0","85054","","null","","","null","35","","","","","","","","","","","","","","","NaN",""
"","S1","","html-keyboard-response","241","245261","0.0-1.0-326.0","0","0","85054","","null","","","null","36","","","","","","","","","","","","","","","",""
"","ISI","","html-keyboard-response","242","246263","0.0-1.0-327.0","0","0","85054","","null","","","null","36","NaN","","","","","","","","","","","","","","",""
"","S2","","html-keyboard-response","243","246516","0.0-1.0-328.0","0","0","85054","","null","","","null","36","","NaN","","","","","","","","","","","","","",""
"","response","","html-keyboard-response","244","247253","0.0-1.0-329.0-0.0","0","0","85054","","734","","","68","36","","","1","36","training","adjacent","FG","6","7","Q.jpg","R.jpg","1","1","1","",""
"","feedback","","html-keyboard-response","245","248258","0.0-1.0-330.0-0.0","0","0","85054","","null","","","null","36","","","","","","","","","","","","","","","",""
"","ITI","","html-keyboard-response","246","249262","0.0-1.0-333.0","0","0","85054","","null","","","null","36","","","","","","","","","","","","","","","NaN",""
"","S1","","html-keyboard-response","247","249516","0.0-1.0-335.0","0","0","85054","","null","","","null","37","","","","","","","","","","","","","","","",""
"","ISI","","html-keyboard-response","248","250520","0.0-1.0-336.0","0","0","85054","","null","","","null","37","NaN","","","","","","","","","","","","","","",""
"","S2","","html-keyboard-response","249","250774","0.0-1.0-337.0","0","0","85054","","null","","","null","37","","NaN","","","","","","","","","","","","","",""
"","response","","html-keyboard-response","250","251243","0.0-1.0-338.0-0.0","0","0","85054","","467","","","68","37","","","1","37","training","adjacent","EF","5","6","O.jpg","Q.jpg","1","1","1","",""
"","feedback","","html-keyboard-response","251","252247","0.0-1.0-339.0-0.0","0","0","85054","","null","","","null","37","","","","","","","","","","","","","","","",""
"","ITI","","html-keyboard-response","252","253258","0.0-1.0-342.0","0","0","85054","","null","","","null","37","","","","","","","","","","","","","","","NaN",""
"","S1","","html-keyboard-response","253","253510","0.0-1.0-344.0","0","0","85054","","null","","","null","38","","","","","","","","","","","","","","","",""
"","ISI","","html-keyboard-response","254","254512","0.0-1.0-345.0","0","0","85054","","null","","","null","38","NaN","","","","","","","","","","","","","","",""
"","S2","","html-keyboard-response","255","254763","0.0-1.0-346.0","0","0","85054","","null","","","null","38","","NaN","","","","","","","","","","","","","",""
"","response","","html-keyboard-response","256","255431","0.0-1.0-347.0-0.0","0","0","85054","","666","","","68","38","","","1","38","training","adjacent","CD","3","4","M.jpg","N.jpg","1","1","1","",""
"","feedback","","html-keyboard-response","257","256435","0.0-1.0-348.0-0.0","0","0","85054","","null","","","null","38","","","","","","","","","","","","","","","",""
"","ITI","","html-keyboard-response","258","257440","0.0-1.0-351.0","0","0","85054","","null","","","null","38","","","","","","","","","","","","","","","NaN",""
"","S1","","html-keyboard-response","259","257697","0.0-1.0-353.0","0","0","85054","","null","","","null","39","","","","","","","","","","","","","","","",""
"","ISI","","html-keyboard-response","260","258699","0.0-1.0-354.0","0","0","85054","","null","","","null","39","NaN","","","","","","","","","","","","","","",""
"","S2","","html-keyboard-response","261","258952","0.0-1.0-355.0","0","0","85054","","null","","","null","39","","NaN","","","","","","","","","","","","","",""
"","response","","html-keyboard-response","262","259508","0.0-1.0-356.0-0.0","0","0","85054","","554","","","75","39","","","1","39","training","adjacent","GF","7","6","R.jpg","Q.jpg","0","0","1","",""
"","feedback","","html-keyboard-response","263","260511","0.0-1.0-357.0-0.0","0","0","85054","","null","","","null","39","","","","","","","","","","","","","","","",""
"","ITI","","html-keyboard-response","264","261515","0.0-1.0-360.0","0","0","85054","","null","","","null","39","","","","","","","","","","","","","","","NaN",""
"","S1","","html-keyboard-response","265","261768","0.0-1.0-362.0","0","0","85054","","null","","","null","40","","","","","","","","","","","","","","","",""
"","ISI","","html-keyboard-response","266","262771","0.0-1.0-363.0","0","0","85054","","null","","","null","40","NaN","","","","","","","","","","","","","","",""
"","S2","","html-keyboard-response","267","263024","0.0-1.0-364.0","0","0","85054","","null","","","null","40","","NaN","","","","","","","","","","","","","",""
"","response","","html-keyboard-response","268","264303","0.0-1.0-365.0-0.0","0","0","85054","","1277","","","68","40","","","1","40","training","adjacent","CB","3","2","M.jpg","P.jpg","1","0","0","",""
"","feedback","","html-keyboard-response","269","265307","0.0-1.0-366.0-0.0","0","0","85054","","null","","","null","40","","","","","","","","","","","","","","","",""
"","time_out","","html-keyboard-response","270","267309","0.0-1.0-368.0-0.0","0","0","85054","","null","","","null","40","","","","","","","","","","","","","","","",""
"","ITI","","html-keyboard-response","271","268311","0.0-1.0-369.0","0","0","85054","","null","","","null","40","","","","","","","","","","","","","","","NaN",""
"","S1","","html-keyboard-response","272","268564","0.0-1.0-371.0","0","0","85054","","null","","","null","41","","","","","","","","","","","","","","","",""
"","ISI","","html-keyboard-response","273","269569","0.0-1.0-372.0","0","0","85054","","null","","","null","41","NaN","","","","","","","","","","","","","","",""
"","S2","","html-keyboard-response","274","269823","0.0-1.0-373.0","0","0","85054","","null","","","null","41","","NaN","","","","","","","","","","","","","",""
"","response","","html-keyboard-response","275","270432","0.0-1.0-374.0-0.0","0","0","85054","","607","","","68","41","","","1","41","training","adjacent","AB","1","2","L.jpg","P.jpg","1","1","1","",""
"","feedback","","html-keyboard-response","276","271434","0.0-1.0-375.0-0.0","0","0","85054","","null","","","null","41","","","","","","","","","","","","","","","",""
"","ITI","","html-keyboard-response","277","272437","0.0-1.0-378.0","0","0","85054","","null","","","null","41","","","","","","","","","","","","","","","NaN",""
"","S1","","html-keyboard-response","278","272691","0.0-1.0-380.0","0","0","85054","","null","","","null","42","","","","","","","","","","","","","","","",""
"","ISI","","html-keyboard-response","279","273694","0.0-1.0-381.0","0","0","85054","","null","","","null","42","NaN","","","","","","","","","","","","","","",""
"","S2","","html-keyboard-response","280","273948","0.0-1.0-382.0","0","0","85054","","null","","","null","42","","NaN","","","","","","","","","","","","","",""
"","response","","html-keyboard-response","281","274998","0.0-1.0-383.0-0.0","0","0","85054","","1048","","","75","42","","","1","42","training","adjacent","FE","6","5","Q.jpg","O.jpg","0","0","1","",""
"","feedback","","html-keyboard-response","282","276001","0.0-1.0-384.0-0.0","0","0","85054","","null","","","null","42","","","","","","","","","","","","","","","",""
"","ITI","","html-keyboard-response","283","277004","0.0-1.0-387.0","0","0","85054","","null","","","null","42","","","","","","","","","","","","","","","NaN",""
"","S1","","html-keyboard-response","284","277258","0.0-1.0-389.0","0","0","85054","","null","","","null","43","","","","","","","","","","","","","","","",""
"","ISI","","html-keyboard-response","285","278261","0.0-1.0-390.0","0","0","85054","","null","","","null","43","NaN","","","","","","","","","","","","","","",""
"","S2","","html-keyboard-response","286","278515","0.0-1.0-391.0","0","0","85054","","null","","","null","43","","NaN","","","","","","","","","","","","","",""
"","response","","html-keyboard-response","287","278954","0.0-1.0-392.0-0.0","0","0","85054","","435","","","75","43","","","1","43","training","adjacent","GF","7","6","R.jpg","Q.jpg","0","0","1","",""
"","feedback","","html-keyboard-response","288","279958","0.0-1.0-393.0-0.0","0","0","85054","","null","","","null","43","","","","","","","","","","","","","","","",""
"","ITI","","html-keyboard-response","289","280962","0.0-1.0-396.0","0","0","85054","","null","","","null","43","","","","","","","","","","","","","","","NaN",""
"","S1","","html-keyboard-response","290","281221","0.0-1.0-398.0","0","0","85054","","null","","","null","44","","","","","","","","","","","","","","","",""
"","ISI","","html-keyboard-response","291","282226","0.0-1.0-399.0","0","0","85054","","null","","","null","44","NaN","","","","","","","","","","","","","","",""
"","S2","","html-keyboard-response","292","282479","0.0-1.0-400.0","0","0","85054","","null","","","null","44","","NaN","","","","","","","","","","","","","",""
"","response","","html-keyboard-response","293","283005","0.0-1.0-401.0-0.0","0","0","85054","","524","","","75","44","","","1","44","training","adjacent","CB","3","2","M.jpg","P.jpg","0","0","1","",""
"","feedback","","html-keyboard-response","294","284006","0.0-1.0-402.0-0.0","0","0","85054","","null","","","null","44","","","","","","","","","","","","","","","",""
"","ITI","","html-keyboard-response","295","285009","0.0-1.0-405.0","0","0","85054","","null","","","null","44","","","","","","","","","","","","","","","NaN",""
"","S1","","html-keyboard-response","296","285263","0.0-1.0-407.0","0","0","85054","","null","","","null","45","","","","","","","","","","","","","","","",""
"","ISI","","html-keyboard-response","297","286267","0.0-1.0-408.0","0","0","85054","","null","","","null","45","NaN","","","","","","","","","","","","","","",""
"","S2","","html-keyboard-response","298","286519","0.0-1.0-409.0","0","0","85054","","null","","","null","45","","NaN","","","","","","","","","","","","","",""
"","response","","html-keyboard-response","299","287175","0.0-1.0-410.0-0.0","0","0","85054","","654","","","75","45","","","1","45","training","adjacent","ED","5","4","O.jpg","N.jpg","0","0","1","",""
"","feedback","","html-keyboard-response","300","288179","0.0-1.0-411.0-0.0","0","0","85054","","null","","","null","45","","","","","","","","","","","","","","","",""
"","ITI","","html-keyboard-response","301","289183","0.0-1.0-414.0","0","0","85054","","null","","","null","45","","","","","","","","","","","","","","","NaN",""
"","S1","","html-keyboard-response","302","289437","0.0-1.0-416.0","0","0","85054","","null","","","null","46","","","","","","","","","","","","","","","",""
"","ISI","","html-keyboard-response","303","290439","0.0-1.0-417.0","0","0","85054","","null","","","null","46","NaN","","","","","","","","","","","","","","",""
"","S2","","html-keyboard-response","304","290692","0.0-1.0-418.0","0","0","85054","","null","","","null","46","","NaN","","","","","","","","","","","","","",""
"","response","","html-keyboard-response","305","291111","0.0-1.0-419.0-0.0","0","0","85054","","417","","","75","46","","","1","46","training","adjacent","BA","2","1","P.jpg","L.jpg","0","0","1","",""
"","feedback","","html-keyboard-response","306","292113","0.0-1.0-420.0-0.0","0","0","85054","","null","","","null","46","","","","","","","","","","","","","","","",""
"","ITI","","html-keyboard-response","307","293115","0.0-1.0-423.0","0","0","85054","","null","","","null","46","","","","","","","","","","","","","","","NaN",""
"","S1","","html-keyboard-response","308","293368","0.0-1.0-425.0","0","0","85054","","null","","","null","47","","","","","","","","","","","","","","","",""
"","ISI","","html-keyboard-response","309","294371","0.0-1.0-426.0","0","0","85054","","null","","","null","47","NaN","","","","","","","","","","","","","","",""
"","S2","","html-keyboard-response","310","294625","0.0-1.0-427.0","0","0","85054","","null","","","null","47","","NaN","","","","","","","","","","","","","",""
"","response","","html-keyboard-response","311","294861","0.0-1.0-428.0-0.0","0","0","85054","","234","","","68","47","","","1","47","training","adjacent","AB","1","2","L.jpg","P.jpg","1","1","1","",""
"","feedback","","html-keyboard-response","312","295865","0.0-1.0-429.0-0.0","0","0","85054","","null","","","null","47","","","","","","","","","","","","","","","",""
"","ITI","","html-keyboard-response","313","296867","0.0-1.0-432.0","0","0","85054","","null","","","null","47","","","","","","","","","","","","","","","NaN",""
"","block_over","","html-keyboard-response","314","298924","0.0-1.0-433.0-0.0","0","0","85054","","2055","","","32","47","","","","","","","","","","","","","","","",""
"","S1","","html-keyboard-response","315","299177","0.0-1.0-434.0","0","0","85054","","null","","","null","48","","","","","","","","","","","","","","","",""
"","ISI","","html-keyboard-response","316","300185","0.0-1.0-435.0","0","0","85054","","null","","","null","48","NaN","","","","","","","","","","","","","","",""
"","S2","","html-keyboard-response","317","300440","0.0-1.0-436.0","0","0","85054","","null","","","null","48","","NaN","","","","","","","","","","","","","",""
"","response","","html-keyboard-response","318","300911","0.0-1.0-437.0-0.0","0","0","85054","","469","","","75","48","","","2","48","training","adjacent","BA","2","1","P.jpg","L.jpg","0","0","1","",""
"","feedback","","html-keyboard-response","319","301914","0.0-1.0-438.0-0.0","0","0","85054","","null","","","null","48","","","","","","","","","","","","","","","",""
"","ITI","","html-keyboard-response","320","302917","0.0-1.0-441.0","0","0","85054","","null","","","null","48","","","","","","","","","","","","","","","NaN",""
"","S1","","html-keyboard-response","321","303171","0.0-1.0-443.0","0","0","85054","","null","","","null","49","","","","","","","","","","","","","","","",""
"","ISI","","html-keyboard-response","322","304176","0.0-1.0-444.0","0","0","85054","","null","","","null","49","NaN","","","","","","","","","","","","","","",""
"","S2","","html-keyboard-response","323","304429","0.0-1.0-445.0","0","0","85054","","null","","","null","49","","NaN","","","","","","","","","","","","","",""
"","response","","html-keyboard-response","324","304952","0.0-1.0-446.0-0.0","0","0","85054","","521","","","68","49","","","2","49","training","adjacent","AB","1","2","L.jpg","P.jpg","1","1","1","",""
"","feedback","","html-keyboard-response","325","305955","0.0-1.0-447.0-0.0","0","0","85054","","null","","","null","49","","","","","","","","","","","","","","","",""
"","ITI","","html-keyboard-response","326","306959","0.0-1.0-450.0","0","0","85054","","null","","","null","49","","","","","","","","","","","","","","","NaN",""
"","S1","","html-keyboard-response","327","307213","0.0-1.0-452.0","0","0","85054","","null","","","null","50","","","","","","","","","","","","","","","",""
"","ISI","","html-keyboard-response","328","308215","0.0-1.0-453.0","0","0","85054","","null","","","null","50","NaN","","","","","","","","","","","","","","",""
"","S2","","html-keyboard-response","329","308469","0.0-1.0-454.0","0","0","85054","","null","","","null","50","","NaN","","","","","","","","","","","","","",""
"","response","","html-keyboard-response","330","308817","0.0-1.0-455.0-0.0","0","0","85054","","345","","","68","50","","","2","50","training","adjacent","FG","6","7","Q.jpg","R.jpg","1","1","1","",""
"","feedback","","html-keyboard-response","331","309832","0.0-1.0-456.0-0.0","0","0","85054","","null","","","null","50","","","","","","","","","","","","","","","",""
"","ITI","","html-keyboard-response","332","310835","0.0-1.0-459.0","0","0","85054","","null","","","null","50","","","","","","","","","","","","","","","NaN",""
"","S1","","html-keyboard-response","333","311088","0.0-1.0-461.0","0","0","85054","","null","","","null","51","","","","","","","","","","","","","","","",""
"","ISI","","html-keyboard-response","334","312092","0.0-1.0-462.0","0","0","85054","","null","","","null","51","NaN","","","","","","","","","","","","","","",""
"","S2","","html-keyboard-response","335","312347","0.0-1.0-463.0","0","0","85054","","null","","","null","51","","NaN","","","","","","","","","","","","","",""
"","response","","html-keyboard-response","336","312675","0.0-1.0-464.0-0.0","0","0","85054","","326","","","75","51","","","2","51","training","adjacent","DE","4","5","N.jpg","O.jpg","0","1","0","",""
"","feedback","","html-keyboard-response","337","313679","0.0-1.0-465.0-0.0","0","0","85054","","null","","","null","51","","","","","","","","","","","","","","","",""
"","time_out","","html-keyboard-response","338","315683","0.0-1.0-467.0-0.0","0","0","85054","","null","","","null","51","","","","","","","","","","","","","","","",""
"","ITI","","html-keyboard-response","339","316686","0.0-1.0-468.0","0","0","85054","","null","","","null","51","","","","","","","","","","","","","","","NaN",""
"","S1","","html-keyboard-response","340","316940","0.0-1.0-470.0","0","0","85054","","null","","","null","52","","","","","","","","","","","","","","","",""
"","ISI","","html-keyboard-response","341","317943","0.0-1.0-471.0","0","0","85054","","null","","","null","52","NaN","","","","","","","","","","","","","","",""
"","S2","","html-keyboard-response","342","318197","0.0-1.0-472.0","0","0","85054","","null","","","null","52","","NaN","","","","","","","","","","","","","",""
"","response","","html-keyboard-response","343","319025","0.0-1.0-473.0-0.0","0","0","85054","","826","","","75","52","","","2","52","training","adjacent","FE","6","5","Q.jpg","O.jpg","0","0","1","",""
"","feedback","","html-keyboard-response","344","320029","0.0-1.0-474.0-0.0","0","0","85054","","null","","","null","52","","","","","","","","","","","","","","","",""
"","ITI","","html-keyboard-response","345","321032","0.0-1.0-477.0","0","0","85054","","null","","","null","52","","","","","","","","","","","","","","","NaN",""
"","S1","","html-keyboard-response","346","321286","0.0-1.0-479.0","0","0","85054","","null","","","null","53","","","","","","","","","","","","","","","",""
"","ISI","","html-keyboard-response","347","322290","0.0-1.0-480.0","0","0","85054","","null","","","null","53","NaN","","","","","","","","","","","","","","",""
"","S2","","html-keyboard-response","348","322545","0.0-1.0-481.0","0","0","85054","","null","","","null","53","","NaN","","","","","","","","","","","","","",""
"","response","","html-keyboard-response","349","322784","0.0-1.0-482.0-0.0","0","0","85054","","236","","","68","53","","","2","53","training","adjacent","CD","3","4","M.jpg","N.jpg","1","1","1","",""
"","feedback","","html-keyboard-response","350","323787","0.0-1.0-483.0-0.0","0","0","85054","","null","","","null","53","","","","","","","","","","","","","","","",""
"","ITI","","html-keyboard-response","351","324790","0.0-1.0-486.0","0","0","85054","","null","","","null","53","","","","","","","","","","","","","","","NaN",""
"","S1","","html-keyboard-response","352","325043","0.0-1.0-488.0","0","0","85054","","null","","","null","54","","","","","","","","","","","","","","","",""
"","ISI","","html-keyboard-response","353","326045","0.0-1.0-489.0","0","0","85054","","null","","","null","54","NaN","","","","","","","","","","","","","","",""
"","S2","","html-keyboard-response","354","326298","0.0-1.0-490.0","0","0","85054","","null","","","null","54","","NaN","","","","","","","","","","","","","",""
"","response","","html-keyboard-response","355","326586","0.0-1.0-491.0-0.0","0","0","85054","","288","","","68","54","","","2","54","training","adjacent","FE","6","5","Q.jpg","O.jpg","1","0","0","",""
"","feedback","","html-keyboard-response","356","327591","0.0-1.0-492.0-0.0","0","0","85054","","null","","","null","54","","","","","","","","","","","","","","","",""
"","time_out","","html-keyboard-response","357","329594","0.0-1.0-494.0-0.0","0","0","85054","","null","","","null","54","","","","","","","","","","","","","","","",""
"","ITI","","html-keyboard-response","358","330595","0.0-1.0-495.0","0","0","85054","","null","","","null","54","","","","","","","","","","","","","","","NaN",""
"","S1","","html-keyboard-response","359","330847","0.0-1.0-497.0","0","0","85054","","null","","","null","55","","","","","","","","","","","","","","","",""
"","ISI","","html-keyboard-response","360","331850","0.0-1.0-498.0","0","0","85054","","null","","","null","55","NaN","","","","","","","","","","","","","","",""
"","S2","","html-keyboard-response","361","332103","0.0-1.0-499.0","0","0","85054","","null","","","null","55","","NaN","","","","","","","","","","","","","",""
"","response","","html-keyboard-response","362","332713","0.0-1.0-500.0-0.0","0","0","85054","","607","","","75","55","","","2","55","training","adjacent","BC","2","3","P.jpg","M.jpg","0","1","0","",""
"","feedback","","html-keyboard-response","363","333717","0.0-1.0-501.0-0.0","0","0","85054","","null","","","null","55","","","","","","","","","","","","","","","",""
"","time_out","","html-keyboard-response","364","335721","0.0-1.0-503.0-0.0","0","0","85054","","null","","","null","55","","","","","","","","","","","","","","","",""
"","ITI","","html-keyboard-response","365","336724","0.0-1.0-504.0","0","0","85054","","null","","","null","55","","","","","","","","","","","","","","","NaN",""
"","S1","","html-keyboard-response","366","336975","0.0-1.0-506.0","0","0","85054","","null","","","null","56","","","","","","","","","","","","","","","",""
"","ISI","","html-keyboard-response","367","337979","0.0-1.0-507.0","0","0","85054","","null","","","null","56","NaN","","","","","","","","","","","","","","",""
"","S2","","html-keyboard-response","368","338233","0.0-1.0-508.0","0","0","85054","","null","","","null","56","","NaN","","","","","","","","","","","","","",""
"","response","","html-keyboard-response","369","339071","0.0-1.0-509.0-0.0","0","0","85054","","837","","","75","56","","","2","56","training","adjacent","ED","5","4","O.jpg","N.jpg","0","0","1","",""
"","feedback","","html-keyboard-response","370","340076","0.0-1.0-510.0-0.0","0","0","85054","","null","","","null","56","","","","","","","","","","","","","","","",""
"","ITI","","html-keyboard-response","371","341078","0.0-1.0-513.0","0","0","85054","","null","","","null","56","","","","","","","","","","","","","","","NaN",""
"","S1","","html-keyboard-response","372","341331","0.0-1.0-515.0","0","0","85054","","null","","","null","57","","","","","","","","","","","","","","","",""
"","ISI","","html-keyboard-response","373","342335","0.0-1.0-516.0","0","0","85054","","null","","","null","57","NaN","","","","","","","","","","","","","","",""
"","S2","","html-keyboard-response","374","342587","0.0-1.0-517.0","0","0","85054","","null","","","null","57","","NaN","","","","","","","","","","","","","",""
"","response","","html-keyboard-response","375","342848","0.0-1.0-518.0-0.0","0","0","85054","","259","","","68","57","","","2","57","training","adjacent","AB","1","2","L.jpg","P.jpg","1","1","1","",""
"","feedback","","html-keyboard-response","376","343852","0.0-1.0-519.0-0.0","0","0","85054","","null","","","null","57","","","","","","","","","","","","","","","",""
"","ITI","","html-keyboard-response","377","344856","0.0-1.0-522.0","0","0","85054","","null","","","null","57","","","","","","","","","","","","","","","NaN",""
"","S1","","html-keyboard-response","378","345109","0.0-1.0-524.0","0","0","85054","","null","","","null","58","","","","","","","","","","","","","","","",""
"","ISI","","html-keyboard-response","379","346113","0.0-1.0-525.0","0","0","85054","","null","","","null","58","NaN","","","","","","","","","","","","","","",""
"","S2","","html-keyboard-response","380","346380","0.0-1.0-526.0","0","0","85054","","null","","","null","58","","NaN","","","","","","","","","","","","","",""
"","response","","html-keyboard-response","381","346463","0.0-1.0-527.0-0.0","0","0","85054","","81","","","75","58","","","2","58","training","adjacent","GF","7","6","R.jpg","Q.jpg","0","0","1","",""
"","feedback","","html-keyboard-response","382","347467","0.0-1.0-528.0-0.0","0","0","85054","","null","","","null","58","","","","","","","","","","","","","","","",""
"","ITI","","html-keyboard-response","383","348470","0.0-1.0-531.0","0","0","85054","","null","","","null","58","","","","","","","","","","","","","","","NaN",""
"","S1","","html-keyboard-response","384","348724","0.0-1.0-533.0","0","0","85054","","null","","","null","59","","","","","","","","","","","","","","","",""
"","ISI","","html-keyboard-response","385","349741","0.0-1.0-534.0","0","0","85054","","null","","","null","59","NaN","","","","","","","","","","","","","","",""
"","S2","","html-keyboard-response","386","349995","0.0-1.0-535.0","0","0","85054","","null","","","null","59","","NaN","","","","","","","","","","","","","",""
"","response","","html-keyboard-response","387","350202","0.0-1.0-536.0-0.0","0","0","85054","","205","","","68","59","","","2","59","training","adjacent","DC","4","3","N.jpg","M.jpg","1","0","0","",""
"","feedback","","html-keyboard-response","388","351205","0.0-1.0-537.0-0.0","0","0","85054","","null","","","null","59","","","","","","","","","","","","","","","",""
"","time_out","","html-keyboard-response","389","353210","0.0-1.0-539.0-0.0","0","0","85054","","null","","","null","59","","","","","","","","","","","","","","","",""
"","ITI","","html-keyboard-response","390","354214","0.0-1.0-540.0","0","0","85054","","null","","","null","59","","","","","","","","","","","","","","","NaN",""
"","S1","","html-keyboard-response","391","354467","0.0-1.0-542.0","0","0","85054","","null","","","null","60","","","","","","","","","","","","","","","",""
"","ISI","","html-keyboard-response","392","355471","0.0-1.0-543.0","0","0","85054","","null","","","null","60","NaN","","","","","","","","","","","","","","",""
"","S2","","html-keyboard-response","393","355724","0.0-1.0-544.0","0","0","85054","","null","","","null","60","","NaN","","","","","","","","","","","","","",""
"","response","","html-keyboard-response","394","355977","0.0-1.0-545.0-0.0","0","0","85054","","251","","","75","60","","","2","60","training","adjacent","BA","2","1","P.jpg","L.jpg","0","0","1","",""
"","feedback","","html-keyboard-response","395","356983","0.0-1.0-546.0-0.0","0","0","85054","","null","","","null","60","","","","","","","","","","","","","","","",""
"","ITI","","html-keyboard-response","396","357987","0.0-1.0-549.0","0","0","85054","","null","","","null","60","","","","","","","","","","","","","","","NaN",""
"","S1","","html-keyboard-response","397","358240","0.0-1.0-551.0","0","0","85054","","null","","","null","61","","","","","","","","","","","","","","","",""
"","ISI","","html-keyboard-response","398","359243","0.0-1.0-552.0","0","0","85054","","null","","","null","61","NaN","","","","","","","","","","","","","","",""
"","S2","","html-keyboard-response","399","359497","0.0-1.0-553.0","0","0","85054","","null","","","null","61","","NaN","","","","","","","","","","","","","",""
"","response","","html-keyboard-response","400","359924","0.0-1.0-554.0-0.0","0","0","85054","","424","","","75","61","","","2","61","training","adjacent","DC","4","3","N.jpg","M.jpg","0","0","1","",""
"","feedback","","html-keyboard-response","401","360929","0.0-1.0-555.0-0.0","0","0","85054","","null","","","null","61","","","","","","","","","","","","","","","",""
"","ITI","","html-keyboard-response","402","361934","0.0-1.0-558.0","0","0","85054","","null","","","null","61","","","","","","","","","","","","","","","NaN",""
"","S1","","html-keyboard-response","403","362188","0.0-1.0-560.0","0","0","85054","","null","","","null","62","","","","","","","","","","","","","","","",""
"","ISI","","html-keyboard-response","404","363192","0.0-1.0-561.0","0","0","85054","","null","","","null","62","NaN","","","","","","","","","","","","","","",""
"","S2","","html-keyboard-response","405","363456","0.0-1.0-562.0","0","0","85054","","null","","","null","62","","NaN","","","","","","","","","","","","","",""
"","response","","html-keyboard-response","406","363691","0.0-1.0-563.0-0.0","0","0","85054","","234","","","68","62","","","2","62","training","adjacent","FG","6","7","Q.jpg","R.jpg","1","1","1","",""
"","feedback","","html-keyboard-response","407","364701","0.0-1.0-564.0-0.0","0","0","85054","","null","","","null","62","","","","","","","","","","","","","","","",""
"","ITI","","html-keyboard-response","408","365704","0.0-1.0-567.0","0","0","85054","","null","","","null","62","","","","","","","","","","","","","","","NaN",""
"","S1","","html-keyboard-response","409","365958","0.0-1.0-569.0","0","0","85054","","null","","","null","63","","","","","","","","","","","","","","","",""
"","ISI","","html-keyboard-response","410","366960","0.0-1.0-570.0","0","0","85054","","null","","","null","63","NaN","","","","","","","","","","","","","","",""
"","S2","","html-keyboard-response","411","367214","0.0-1.0-571.0","0","0","85054","","null","","","null","63","","NaN","","","","","","","","","","","","","",""
"","response","","html-keyboard-response","412","367453","0.0-1.0-572.0-0.0","0","0","85054","","236","","","68","63","","","2","63","training","adjacent","CD","3","4","M.jpg","N.jpg","1","1","1","",""
"","feedback","","html-keyboard-response","413","368458","0.0-1.0-573.0-0.0","0","0","85054","","null","","","null","63","","","","","","","","","","","","","","","",""
"","ITI","","html-keyboard-response","414","369461","0.0-1.0-576.0","0","0","85054","","null","","","null","63","","","","","","","","","","","","","","","NaN",""
"","S1","","html-keyboard-response","415","369712","0.0-1.0-578.0","0","0","85054","","null","","","null","64","","","","","","","","","","","","","","","",""
"","ISI","","html-keyboard-response","416","370714","0.0-1.0-579.0","0","0","85054","","null","","","null","64","NaN","","","","","","","","","","","","","","",""
"","S2","","html-keyboard-response","417","370966","0.0-1.0-580.0","0","0","85054","","null","","","null","64","","NaN","","","","","","","","","","","","","",""
"","response","","html-keyboard-response","418","371071","0.0-1.0-581.0-0.0","0","0","85054","","104","","","75","64","","","2","64","training","adjacent","BA","2","1","P.jpg","L.jpg","0","0","1","",""
"","feedback","","html-keyboard-response","419","372076","0.0-1.0-582.0-0.0","0","0","85054","","null","","","null","64","","","","","","","","","","","","","","","",""
"","ITI","","html-keyboard-response","420","373080","0.0-1.0-585.0","0","0","85054","","null","","","null","64","","","","","","","","","","","","","","","NaN",""
"","S1","","html-keyboard-response","421","373333","0.0-1.0-587.0","0","0","85054","","null","","","null","65","","","","","","","","","","","","","","","",""
"","ISI","","html-keyboard-response","422","374337","0.0-1.0-588.0","0","0","85054","","null","","","null","65","NaN","","","","","","","","","","","","","","",""
"","S2","","html-keyboard-response","423","374591","0.0-1.0-589.0","0","0","85054","","null","","","null","65","","NaN","","","","","","","","","","","","","",""
"","response","","html-keyboard-response","424","374826","0.0-1.0-590.0-0.0","0","0","85054","","231","","","68","65","","","2","65","training","adjacent","AB","1","2","L.jpg","P.jpg","1","1","1","",""
"","feedback","","html-keyboard-response","425","375830","0.0-1.0-591.0-0.0","0","0","85054","","null","","","null","65","","","","","","","","","","","","","","","",""
"","ITI","","html-keyboard-response","426","376833","0.0-1.0-594.0","0","0","85054","","null","","","null","65","","","","","","","","","","","","","","","NaN",""
"","S1","","html-keyboard-response","427","377087","0.0-1.0-596.0","0","0","85054","","null","","","null","66","","","","","","","","","","","","","","","",""
"","ISI","","html-keyboard-response","428","378090","0.0-1.0-597.0","0","0","85054","","null","","","null","66","NaN","","","","","","","","","","","","","","",""
"","S2","","html-keyboard-response","429","378345","0.0-1.0-598.0","0","0","85054","","null","","","null","66","","NaN","","","","","","","","","","","","","",""
"","response","","html-keyboard-response","430","378657","0.0-1.0-599.0-0.0","0","0","85054","","308","","","68","66","","","2","66","training","adjacent","CB","3","2","M.jpg","P.jpg","1","0","0","",""
"","feedback","","html-keyboard-response","431","379661","0.0-1.0-600.0-0.0","0","0","85054","","null","","","null","66","","","","","","","","","","","","","","","",""
"","time_out","","html-keyboard-response","432","381665","0.0-1.0-602.0-0.0","0","0","85054","","null","","","null","66","","","","","","","","","","","","","","","",""
"","ITI","","html-keyboard-response","433","382667","0.0-1.0-603.0","0","0","85054","","null","","","null","66","","","","","","","","","","","","","","","NaN",""
"","S1","","html-keyboard-response","434","382921","0.0-1.0-605.0","0","0","85054","","null","","","null","67","","","","","","","","","","","","","","","",""
"","ISI","","html-keyboard-response","435","383925","0.0-1.0-606.0","0","0","85054","","null","","","null","67","NaN","","","","","","","","","","","","","","",""
"","S2","","html-keyboard-response","436","384178","0.0-1.0-607.0","0","0","85054","","null","","","null","67","","NaN","","","","","","","","","","","","","",""
"","response","","html-keyboard-response","437","384859","0.0-1.0-608.0-0.0","0","0","85054","","679","","","75","67","","","2","67","training","adjacent","ED","5","4","O.jpg","N.jpg","0","0","1","",""
"","feedback","","html-keyboard-response","438","385861","0.0-1.0-609.0-0.0","0","0","85054","","null","","","null","67","","","","","","","","","","","","","","","",""
"","ITI","","html-keyboard-response","439","386865","0.0-1.0-612.0","0","0","85054","","null","","","null","67","","","","","","","","","","","","","","","NaN",""
"","S1","","html-keyboard-response","440","387119","0.0-1.0-614.0","0","0","85054","","null","","","null","68","","","","","","","","","","","","","","","",""
"","ISI","","html-keyboard-response","441","388123","0.0-1.0-615.0","0","0","85054","","null","","","null","68","NaN","","","","","","","","","","","","","","",""
"","S2","","html-keyboard-response","442","388376","0.0-1.0-616.0","0","0","85054","","null","","","null","68","","NaN","","","","","","","","","","","","","",""
"","response","","html-keyboard-response","443","388988","0.0-1.0-617.0-0.0","0","0","85054","","611","","","68","68","","","2","68","training","adjacent","ED","5","4","O.jpg","N.jpg","1","0","0","",""
"","feedback","","html-keyboard-response","444","389990","0.0-1.0-618.0-0.0","0","0","85054","","null","","","null","68","","","","","","","","","","","","","","","",""
"","time_out","","html-keyboard-response","445","391993","0.0-1.0-620.0-0.0","0","0","85054","","null","","","null","68","","","","","","","","","","","","","","","",""
"","ITI","","html-keyboard-response","446","392996","0.0-1.0-621.0","0","0","85054","","null","","","null","68","","","","","","","","","","","","","","","NaN",""
"","S1","","html-keyboard-response","447","393249","0.0-1.0-623.0","0","0","85054","","null","","","null","69","","","","","","","","","","","","","","","",""
"","ISI","","html-keyboard-response","448","394251","0.0-1.0-624.0","0","0","85054","","null","","","null","69","NaN","","","","","","","","","","","","","","",""
"","S2","","html-keyboard-response","449","394503","0.0-1.0-625.0","0","0","85054","","null","","","null","69","","NaN","","","","","","","","","","","","","",""
"","response","","html-keyboard-response","450","394891","0.0-1.0-626.0-0.0","0","0","85054","","387","","","68","69","","","2","69","training","adjacent","EF","5","6","O.jpg","Q.jpg","1","1","1","",""
"","feedback","","html-keyboard-response","451","395892","0.0-1.0-627.0-0.0","0","0","85054","","null","","","null","69","","","","","","","","","","","","","","","",""
"","ITI","","html-keyboard-response","452","396895","0.0-1.0-630.0","0","0","85054","","null","","","null","69","","","","","","","","","","","","","","","NaN",""
"","S1","","html-keyboard-response","453","397149","0.0-1.0-632.0","0","0","85054","","null","","","null","70","","","","","","","","","","","","","","","",""
"","ISI","","html-keyboard-response","454","398152","0.0-1.0-633.0","0","0","85054","","null","","","null","70","NaN","","","","","","","","","","","","","","",""
"","S2","","html-keyboard-response","455","398404","0.0-1.0-634.0","0","0","85054","","null","","","null","70","","NaN","","","","","","","","","","","","","",""
"","response","","html-keyboard-response","456","399298","0.0-1.0-635.0-0.0","0","0","85054","","892","","","68","70","","","2","70","training","adjacent","DE","4","5","N.jpg","O.jpg","1","1","1","",""
"","feedback","","html-keyboard-response","457","400300","0.0-1.0-636.0-0.0","0","0","85054","","null","","","null","70","","","","","","","","","","","","","","","",""
"","ITI","","html-keyboard-response","458","401303","0.0-1.0-639.0","0","0","85054","","null","","","null","70","","","","","","","","","","","","","","","NaN",""
"","S1","","html-keyboard-response","459","401569","0.0-1.0-641.0","0","0","85054","","null","","","null","71","","","","","","","","","","","","","","","",""
"","ISI","","html-keyboard-response","460","402573","0.0-1.0-642.0","0","0","85054","","null","","","null","71","NaN","","","","","","","","","","","","","","",""
"","S2","","html-keyboard-response","461","402827","0.0-1.0-643.0","0","0","85054","","null","","","null","71","","NaN","","","","","","","","","","","","","",""
"","response","","html-keyboard-response","462","403117","0.0-1.0-644.0-0.0","0","0","85054","","288","","","68","71","","","2","71","training","adjacent","FE","6","5","Q.jpg","O.jpg","1","0","0","",""
"","feedback","","html-keyboard-response","463","404123","0.0-1.0-645.0-0.0","0","0","85054","","null","","","null","71","","","","","","","","","","","","","","","",""
"","time_out","","html-keyboard-response","464","406127","0.0-1.0-647.0-0.0","0","0","85054","","null","","","null","71","","","","","","","","","","","","","","","",""
"","ITI","","html-keyboard-response","465","407129","0.0-1.0-648.0","0","0","85054","","null","","","null","71","","","","","","","","","","","","","","","NaN",""
"","S1","","html-keyboard-response","466","407383","0.0-1.0-650.0","0","0","85054","","null","","","null","72","","","","","","","","","","","","","","","",""
"","ISI","","html-keyboard-response","467","408387","0.0-1.0-651.0","0","0","85054","","null","","","null","72","NaN","","","","","","","","","","","","","","",""
"","S2","","html-keyboard-response","468","408641","0.0-1.0-652.0","0","0","85054","","null","","","null","72","","NaN","","","","","","","","","","","","","",""
"","response","","html-keyboard-response","469","409238","0.0-1.0-653.0-0.0","0","0","85054","","596","","","75","72","","","2","72","training","adjacent","FE","6","5","Q.jpg","O.jpg","0","0","1","",""
"","feedback","","html-keyboard-response","470","410242","0.0-1.0-654.0-0.0","0","0","85054","","null","","","null","72","","","","","","","","","","","","","","","",""
"","ITI","","html-keyboard-response","471","411247","0.0-1.0-657.0","0","0","85054","","null","","","null","72","","","","","","","","","","","","","","","NaN",""
"","S1","","html-keyboard-response","472","411501","0.0-1.0-659.0","0","0","85054","","null","","","null","73","","","","","","","","","","","","","","","",""
"","ISI","","html-keyboard-response","473","412510","0.0-1.0-660.0","0","0","85054","","null","","","null","73","NaN","","","","","","","","","","","","","","",""
"","S2","","html-keyboard-response","474","412762","0.0-1.0-661.0","0","0","85054","","null","","","null","73","","NaN","","","","","","","","","","","","","",""
"","response","","html-keyboard-response","475","413600","0.0-1.0-662.0-0.0","0","0","85054","","837","","","68","73","","","2","73","training","adjacent","BC","2","3","P.jpg","M.jpg","1","1","1","",""
"","feedback","","html-keyboard-response","476","414603","0.0-1.0-663.0-0.0","0","0","85054","","null","","","null","73","","","","","","","","","","","","","","","",""
"","ITI","","html-keyboard-response","477","415606","0.0-1.0-666.0","0","0","85054","","null","","","null","73","","","","","","","","","","","","","","","NaN",""
"","S1","","html-keyboard-response","478","415859","0.0-1.0-668.0","0","0","85054","","null","","","null","74","","","","","","","","","","","","","","","",""
"","ISI","","html-keyboard-response","479","416863","0.0-1.0-669.0","0","0","85054","","null","","","null","74","NaN","","","","","","","","","","","","","","",""
"","S2","","html-keyboard-response","480","417115","0.0-1.0-670.0","0","0","85054","","null","","","null","74","","NaN","","","","","","","","","","","","","",""
"","response","","html-keyboard-response","481","417627","0.0-1.0-671.0-0.0","0","0","85054","","511","","","68","74","","","2","74","training","adjacent","BC","2","3","P.jpg","M.jpg","1","1","1","",""
"","feedback","","html-keyboard-response","482","418631","0.0-1.0-672.0-0.0","0","0","85054","","null","","","null","74","","","","","","","","","","","","","","","",""
"","ITI","","html-keyboard-response","483","419636","0.0-1.0-675.0","0","0","85054","","null","","","null","74","","","","","","","","","","","","","","","NaN",""
"","S1","","html-keyboard-response","484","419889","0.0-1.0-677.0","0","0","85054","","null","","","null","75","","","","","","","","","","","","","","","",""
"","ISI","","html-keyboard-response","485","420893","0.0-1.0-678.0","0","0","85054","","null","","","null","75","NaN","","","","","","","","","","","","","","",""
"","S2","","html-keyboard-response","486","421148","0.0-1.0-679.0","0","0","85054","","null","","","null","75","","NaN","","","","","","","","","","","","","",""
"","response","","html-keyboard-response","487","421426","0.0-1.0-680.0-0.0","0","0","85054","","275","","","75","75","","","2","75","training","adjacent","AB","1","2","L.jpg","P.jpg","0","1","0","",""
"","feedback","","html-keyboard-response","488","422440","0.0-1.0-681.0-0.0","0","0","85054","","null","","","null","75","","","","","","","","","","","","","","","",""
"","time_out","","html-keyboard-response","489","424444","0.0-1.0-683.0-0.0","0","0","85054","","null","","","null","75","","","","","","","","","","","","","","","",""
"","ITI","","html-keyboard-response","490","425448","0.0-1.0-684.0","0","0","85054","","null","","","null","75","","","","","","","","","","","","","","","NaN",""
"","S1","","html-keyboard-response","491","425701","0.0-1.0-686.0","0","0","85054","","null","","","null","76","","","","","","","","","","","","","","","",""
"","ISI","","html-keyboard-response","492","426705","0.0-1.0-687.0","0","0","85054","","null","","","null","76","NaN","","","","","","","","","","","","","","",""
"","S2","","html-keyboard-response","493","426960","0.0-1.0-688.0","0","0","85054","","null","","","null","76","","NaN","","","","","","","","","","","","","",""
"","response","","html-keyboard-response","494","427413","0.0-1.0-689.0-0.0","0","0","85054","","451","","","75","76","","","2","76","training","adjacent","GF","7","6","R.jpg","Q.jpg","0","0","1","",""
"","feedback","","html-keyboard-response","495","428418","0.0-1.0-690.0-0.0","0","0","85054","","null","","","null","76","","","","","","","","","","","","","","","",""
"","ITI","","html-keyboard-response","496","429422","0.0-1.0-693.0","0","0","85054","","null","","","null","76","","","","","","","","","","","","","","","NaN",""
"","S1","","html-keyboard-response","497","429674","0.0-1.0-695.0","0","0","85054","","null","","","null","77","","","","","","","","","","","","","","","",""
"","ISI","","html-keyboard-response","498","430676","0.0-1.0-696.0","0","0","85054","","null","","","null","77","NaN","","","","","","","","","","","","","","",""
"","S2","","html-keyboard-response","499","430928","0.0-1.0-697.0","0","0","85054","","null","","","null","77","","NaN","","","","","","","","","","","","","",""
"","response","","html-keyboard-response","500","431774","0.0-1.0-698.0-0.0","0","0","85054","","842","","","68","77","","","2","77","training","adjacent","FG","6","7","Q.jpg","R.jpg","1","1","1","",""
"","feedback","","html-keyboard-response","501","432780","0.0-1.0-699.0-0.0","0","0","85054","","null","","","null","77","","","","","","","","","","","","","","","",""
"","ITI","","html-keyboard-response","502","433785","0.0-1.0-702.0","0","0","85054","","null","","","null","77","","","","","","","","","","","","","","","NaN",""
"","S1","","html-keyboard-response","503","434039","0.0-1.0-704.0","0","0","85054","","null","","","null","78","","","","","","","","","","","","","","","",""
"","ISI","","html-keyboard-response","504","435043","0.0-1.0-705.0","0","0","85054","","null","","","null","78","NaN","","","","","","","","","","","","","","",""
"","S2","","html-keyboard-response","505","435298","0.0-1.0-706.0","0","0","85054","","null","","","null","78","","NaN","","","","","","","","","","","","","",""
"","response","","html-keyboard-response","506","435881","0.0-1.0-707.0-0.0","0","0","85054","","580","","","75","78","","","2","78","training","adjacent","EF","5","6","O.jpg","Q.jpg","0","1","0","",""
"","feedback","","html-keyboard-response","507","436886","0.0-1.0-708.0-0.0","0","0","85054","","null","","","null","78","","","","","","","","","","","","","","","",""
"","time_out","","html-keyboard-response","508","438891","0.0-1.0-710.0-0.0","0","0","85054","","null","","","null","78","","","","","","","","","","","","","","","",""
"","ITI","","html-keyboard-response","509","439894","0.0-1.0-711.0","0","0","85054","","null","","","null","78","","","","","","","","","","","","","","","NaN",""
"","S1","","html-keyboard-response","510","440147","0.0-1.0-713.0","0","0","85054","","null","","","null","79","","","","","","","","","","","","","","","",""
"","ISI","","html-keyboard-response","511","441150","0.0-1.0-714.0","0","0","85054","","null","","","null","79","NaN","","","","","","","","","","","","","","",""
"","S2","","html-keyboard-response","512","441405","0.0-1.0-715.0","0","0","85054","","null","","","null","79","","NaN","","","","","","","","","","","","","",""
"","response","","html-keyboard-response","513","441780","0.0-1.0-716.0-0.0","0","0","85054","","373","","","68","79","","","2","79","training","adjacent","ED","5","4","O.jpg","N.jpg","1","0","0","",""
"","feedback","","html-keyboard-response","514","442783","0.0-1.0-717.0-0.0","0","0","85054","","null","","","null","79","","","","","","","","","","","","","","","",""
"","time_out","","html-keyboard-response","515","444785","0.0-1.0-719.0-0.0","0","0","85054","","null","","","null","79","","","","","","","","","","","","","","","",""
"","ITI","","html-keyboard-response","516","445790","0.0-1.0-720.0","0","0","85054","","null","","","null","79","","","","","","","","","","","","","","","NaN",""
"","S1","","html-keyboard-response","517","446044","0.0-1.0-722.0","0","0","85054","","null","","","null","80","","","","","","","","","","","","","","","",""
"","ISI","","html-keyboard-response","518","447048","0.0-1.0-723.0","0","0","85054","","null","","","null","80","NaN","","","","","","","","","","","","","","",""
"","S2","","html-keyboard-response","519","447301","0.0-1.0-724.0","0","0","85054","","null","","","null","80","","NaN","","","","","","","","","","","","","",""
"","response","","html-keyboard-response","520","447982","0.0-1.0-725.0-0.0","0","0","85054","","677","","","75","80","","","2","80","training","adjacent","CB","3","2","M.jpg","P.jpg","0","0","1","",""
"","feedback","","html-keyboard-response","521","448986","0.0-1.0-726.0-0.0","0","0","85054","","null","","","null","80","","","","","","","","","","","","","","","",""
"","ITI","","html-keyboard-response","522","449988","0.0-1.0-729.0","0","0","85054","","null","","","null","80","","","","","","","","","","","","","","","NaN",""
"","S1","","html-keyboard-response","523","450240","0.0-1.0-731.0","0","0","85054","","null","","","null","81","","","","","","","","","","","","","","","",""
"","ISI","","html-keyboard-response","524","451242","0.0-1.0-732.0","0","0","85054","","null","","","null","81","NaN","","","","","","","","","","","","","","",""
"","S2","","html-keyboard-response","525","451496","0.0-1.0-733.0","0","0","85054","","null","","","null","81","","NaN","","","","","","","","","","","","","",""
"","response","","html-keyboard-response","526","452190","0.0-1.0-734.0-0.0","0","0","85054","","690","","","68","81","","","2","81","training","adjacent","BC","2","3","P.jpg","M.jpg","1","1","1","",""
"","feedback","","html-keyboard-response","527","453194","0.0-1.0-735.0-0.0","0","0","85054","","null","","","null","81","","","","","","","","","","","","","","","",""
"","ITI","","html-keyboard-response","528","454196","0.0-1.0-738.0","0","0","85054","","null","","","null","81","","","","","","","","","","","","","","","NaN",""
"","S1","","html-keyboard-response","529","454450","0.0-1.0-740.0","0","0","85054","","null","","","null","82","","","","","","","","","","","","","","","",""
"","ISI","","html-keyboard-response","530","455454","0.0-1.0-741.0","0","0","85054","","null","","","null","82","NaN","","","","","","","","","","","","","","",""
"","S2","","html-keyboard-response","531","455707","0.0-1.0-742.0","0","0","85054","","null","","","null","82","","NaN","","","","","","","","","","","","","",""
"","response","","html-keyboard-response","532","456121","0.0-1.0-743.0-0.0","0","0","85054","","411","","","68","82","","","2","82","training","adjacent","CD","3","4","M.jpg","N.jpg","1","1","1","",""
"","feedback","","html-keyboard-response","533","457126","0.0-1.0-744.0-0.0","0","0","85054","","null","","","null","82","","","","","","","","","","","","","","","",""
"","ITI","","html-keyboard-response","534","458129","0.0-1.0-747.0","0","0","85054","","null","","","null","82","","","","","","","","","","","","","","","NaN",""
"","S1","","html-keyboard-response","535","458383","0.0-1.0-749.0","0","0","85054","","null","","","null","83","","","","","","","","","","","","","","","",""
"","ISI","","html-keyboard-response","536","459387","0.0-1.0-750.0","0","0","85054","","null","","","null","83","NaN","","","","","","","","","","","","","","",""
"","S2","","html-keyboard-response","537","459643","0.0-1.0-751.0","0","0","85054","","null","","","null","83","","NaN","","","","","","","","","","","","","",""
"","response","","html-keyboard-response","538","460098","0.0-1.0-752.0-0.0","0","0","85054","","451","","","75","83","","","2","83","training","adjacent","EF","5","6","O.jpg","Q.jpg","0","1","0","",""
"","feedback","","html-keyboard-response","539","461102","0.0-1.0-753.0-0.0","0","0","85054","","null","","","null","83","","","","","","","","","","","","","","","",""
"","time_out","","html-keyboard-response","540","463106","0.0-1.0-755.0-0.0","0","0","85054","","null","","","null","83","","","","","","","","","","","","","","","",""
"","ITI","","html-keyboard-response","541","464109","0.0-1.0-756.0","0","0","85054","","null","","","null","83","","","","","","","","","","","","","","","NaN",""
"","S1","","html-keyboard-response","542","464362","0.0-1.0-758.0","0","0","85054","","null","","","null","84","","","","","","","","","","","","","","","",""
"","ISI","","html-keyboard-response","543","465367","0.0-1.0-759.0","0","0","85054","","null","","","null","84","NaN","","","","","","","","","","","","","","",""
"","S2","","html-keyboard-response","544","465620","0.0-1.0-760.0","0","0","85054","","null","","","null","84","","NaN","","","","","","","","","","","","","",""
"","response","","html-keyboard-response","545","465908","0.0-1.0-761.0-0.0","0","0","85054","","288","","","68","84","","","2","84","training","adjacent","EF","5","6","O.jpg","Q.jpg","1","1","1","",""
"","feedback","","html-keyboard-response","546","466913","0.0-1.0-762.0-0.0","0","0","85054","","null","","","null","84","","","","","","","","","","","","","","","",""
"","ITI","","html-keyboard-response","547","467915","0.0-1.0-765.0","0","0","85054","","null","","","null","84","","","","","","","","","","","","","","","NaN",""
"","S1","","html-keyboard-response","548","468168","0.0-1.0-767.0","0","0","85054","","null","","","null","85","","","","","","","","","","","","","","","",""
"","ISI","","html-keyboard-response","549","469171","0.0-1.0-768.0","0","0","85054","","null","","","null","85","NaN","","","","","","","","","","","","","","",""
"","S2","","html-keyboard-response","550","469426","0.0-1.0-769.0","0","0","85054","","null","","","null","85","","NaN","","","","","","","","","","","","","",""
"","response","","html-keyboard-response","551","469944","0.0-1.0-770.0-0.0","0","0","85054","","516","","","68","85","","","2","85","training","adjacent","CB","3","2","M.jpg","P.jpg","1","0","0","",""
"","feedback","","html-keyboard-response","552","470946","0.0-1.0-771.0-0.0","0","0","85054","","null","","","null","85","","","","","","","","","","","","","","","",""
"","time_out","","html-keyboard-response","553","472949","0.0-1.0-773.0-0.0","0","0","85054","","null","","","null","85","","","","","","","","","","","","","","","",""
"","ITI","","html-keyboard-response","554","473950","0.0-1.0-774.0","0","0","85054","","null","","","null","85","","","","","","","","","","","","","","","NaN",""
"","S1","","html-keyboard-response","555","474204","0.0-1.0-776.0","0","0","85054","","null","","","null","86","","","","","","","","","","","","","","","",""
"","ISI","","html-keyboard-response","556","475206","0.0-1.0-777.0","0","0","85054","","null","","","null","86","NaN","","","","","","","","","","","","","","",""
"","S2","","html-keyboard-response","557","475460","0.0-1.0-778.0","0","0","85054","","null","","","null","86","","NaN","","","","","","","","","","","","","",""
"","response","","html-keyboard-response","558","475893","0.0-1.0-779.0-0.0","0","0","85054","","431","","","75","86","","","2","86","training","adjacent","DE","4","5","N.jpg","O.jpg","0","1","0","",""
"","feedback","","html-keyboard-response","559","476895","0.0-1.0-780.0-0.0","0","0","85054","","null","","","null","86","","","","","","","","","","","","","","","",""
"","time_out","","html-keyboard-response","560","478899","0.0-1.0-782.0-0.0","0","0","85054","","null","","","null","86","","","","","","","","","","","","","","","",""
"","ITI","","html-keyboard-response","561","479902","0.0-1.0-783.0","0","0","85054","","null","","","null","86","","","","","","","","","","","","","","","NaN",""
"","S1","","html-keyboard-response","562","480155","0.0-1.0-785.0","0","0","85054","","null","","","null","87","","","","","","","","","","","","","","","",""
"","ISI","","html-keyboard-response","563","481157","0.0-1.0-786.0","0","0","85054","","null","","","null","87","NaN","","","","","","","","","","","","","","",""
"","S2","","html-keyboard-response","564","481412","0.0-1.0-787.0","0","0","85054","","null","","","null","87","","NaN","","","","","","","","","","","","","",""
"","response","","html-keyboard-response","565","481758","0.0-1.0-788.0-0.0","0","0","85054","","343","","","68","87","","","2","87","training","adjacent","FG","6","7","Q.jpg","R.jpg","1","1","1","",""
"","feedback","","html-keyboard-response","566","482762","0.0-1.0-789.0-0.0","0","0","85054","","null","","","null","87","","","","","","","","","","","","","","","",""
"","ITI","","html-keyboard-response","567","483778","0.0-1.0-792.0","0","0","85054","","null","","","null","87","","","","","","","","","","","","","","","NaN",""
"","S1","","html-keyboard-response","568","484044","0.0-1.0-794.0","0","0","85054","","null","","","null","88","","","","","","","","","","","","","","","",""
"","ISI","","html-keyboard-response","569","485048","0.0-1.0-795.0","0","0","85054","","null","","","null","88","NaN","","","","","","","","","","","","","","",""
"","S2","","html-keyboard-response","570","485302","0.0-1.0-796.0","0","0","85054","","null","","","null","88","","NaN","","","","","","","","","","","","","",""
"","response","","html-keyboard-response","571","486281","0.0-1.0-797.0-0.0","0","0","85054","","976","","","75","88","","","2","88","training","adjacent","DC","4","3","N.jpg","M.jpg","0","0","1","",""
"","feedback","","html-keyboard-response","572","487287","0.0-1.0-798.0-0.0","0","0","85054","","null","","","null","88","","","","","","","","","","","","","","","",""
"","ITI","","html-keyboard-response","573","488293","0.0-1.0-801.0","0","0","85054","","null","","","null","88","","","","","","","","","","","","","","","NaN",""
"","S1","","html-keyboard-response","574","488547","0.0-1.0-803.0","0","0","85054","","null","","","null","89","","","","","","","","","","","","","","","",""
"","ISI","","html-keyboard-response","575","489551","0.0-1.0-804.0","0","0","85054","","null","","","null","89","NaN","","","","","","","","","","","","","","",""
"","S2","","html-keyboard-response","576","489804","0.0-1.0-805.0","0","0","85054","","null","","","null","89","","NaN","","","","","","","","","","","","","",""
"","response","","html-keyboard-response","577","490141","0.0-1.0-806.0-0.0","0","0","85054","","334","","","68","89","","","2","89","training","adjacent","BA","2","1","P.jpg","L.jpg","1","0","0","",""
"","feedback","","html-keyboard-response","578","491146","0.0-1.0-807.0-0.0","0","0","85054","","null","","","null","89","","","","","","","","","","","","","","","",""
"","time_out","","html-keyboard-response","579","493149","0.0-1.0-809.0-0.0","0","0","85054","","null","","","null","89","","","","","","","","","","","","","","","",""
"","ITI","","html-keyboard-response","580","494151","0.0-1.0-810.0","0","0","85054","","null","","","null","89","","","","","","","","","","","","","","","NaN",""
"","S1","","html-keyboard-response","581","494405","0.0-1.0-812.0","0","0","85054","","null","","","null","90","","","","","","","","","","","","","","","",""
"","ISI","","html-keyboard-response","582","495409","0.0-1.0-813.0","0","0","85054","","null","","","null","90","NaN","","","","","","","","","","","","","","",""
"","S2","","html-keyboard-response","583","495662","0.0-1.0-814.0","0","0","85054","","null","","","null","90","","NaN","","","","","","","","","","","","","",""
