"success","ttype","start_time","trial_type","trial_index","time_elapsed","internal_node_id","warning","missed_checkup","PID","view_history","rt","responses","repeat_instructions","key_press","index","keypress_isi","keypress_S2","block","trial_num","phase","group_type","pair_type","S1_stim","S2_stim","S1_img","S2_img","S1_chosen","S1_higher","accuracy","keypress_iti","total_bonus_tally"
"true","full_screen","d03082023hr1539","fullscreen","0","13026","0.0-0.0","0","0","48668","","","","","","","","","","","","","","","","","","","","","",""
"","instructions","","instructions","1","50986","0.0-1.0-0.0-0.0","0","0","48668","[{""page_index"":0,""viewing_time"":4423},{""page_index"":1,""viewing_time"":21544},{""page_index"":2,""viewing_time"":9877},{""page_index"":3,""viewing_time"":2115}]","37959","","","","","","","","","","","","","","","","","","","",""
"","comprehension_check","","survey-multi-choice","2","79465","0.0-1.0-0.0-1.0","0","0","48668","","28472","{""Q0"":""True"",""Q1"":""D"",""Q2"":""Only when the screen 'MAKE A CHOICE' is shown"",""Q3"":""Green mark"",""Q4"":""either D or K""}","1","","","","","","","","","","","","","","","","","",""
"","missed_instruction_checkup","","html-keyboard-response","3","81983","0.0-1.0-0.0-2.0-0.0","0","1","48668","","2511","","","32","","","","","","","","","","","","","","","","",""
"","instructions","","instructions","4","106391","0.0-1.0-0.1-0.1","0","0","48668","[{""page_index"":0,""viewing_time"":4101},{""page_index"":1,""viewing_time"":12656},{""page_index"":2,""viewing_time"":6188},{""page_index"":3,""viewing_time"":1462}]","24407","","","","","","","","","","","","","","","","","","","",""
"","comprehension_check","","survey-multi-choice","5","117259","0.0-1.0-0.1-1.1","0","0","48668","","10863","{""Q0"":""True"",""Q1"":""D"",""Q2"":""Once the second image appears and while the screen 'MAKE A CHOICE' is shown"",""Q3"":""Green mark"",""Q4"":""either D or K""}","0","","","","","","","","","","","","","","","","","",""
"","start_exp","","html-keyboard-response","6","119056","0.0-1.0-1.0","0","0","48668","","1794","","","32","","","","","","","","","","","","","","","","",""
"","S1","","html-keyboard-response","7","119309","0.0-1.0-2.0","0","0","48668","","null","","","null","0","","","","","","","","","","","","","","","",""
"","ISI","","html-keyboard-response","8","119462","0.0-1.0-3.0","0","0","48668","","null","","","null","0","NaN","","","","","","","","","","","","","","",""
"","S2","","html-keyboard-response","9","119716","0.0-1.0-4.0","0","0","48668","","null","","","null","0","","NaN","","","","","","","","","","","","","",""
"","response","","html-keyboard-response","10","121017","0.0-1.0-5.0-0.0","0","0","48668","","1298","","","75","0","","","1","0","training","adjacent","BC","2","3","M.jpg","Q.jpg","0","1","0","",""
"","feedback","","html-keyboard-response","11","122021","0.0-1.0-6.0-0.0","0","0","48668","","null","","","null","0","","","","","","","","","","","","","","","",""
"","time_out","","html-keyboard-response","12","124024","0.0-1.0-8.0-0.0","0","0","48668","","null","","","null","0","","","","","","","","","","","","","","","",""
"","ITI","","html-keyboard-response","13","125026","0.0-1.0-9.0","0","0","48668","","null","","","null","0","","","","","","","","","","","","","","","NaN",""
"","S1","","html-keyboard-response","14","125279","0.0-1.0-11.0","0","0","48668","","null","","","null","1","","","","","","","","","","","","","","","",""
"","ISI","","html-keyboard-response","15","125432","0.0-1.0-12.0","0","0","48668","","null","","","null","1","NaN","","","","","","","","","","","","","","",""
"","S2","","html-keyboard-response","16","125686","0.0-1.0-13.0","0","0","48668","","null","","","null","1","","NaN","","","","","","","","","","","","","",""
"","response","","html-keyboard-response","17","126423","0.0-1.0-14.0-0.0","0","0","48668","","736","","","75","1","","","1","1","training","adjacent","CD","3","4","Q.jpg","R.jpg","0","1","0","",""
"","feedback","","html-keyboard-response","18","127427","0.0-1.0-15.0-0.0","0","0","48668","","null","","","null","1","","","","","","","","","","","","","","","",""
"","time_out","","html-keyboard-response","19","129430","0.0-1.0-17.0-0.0","0","0","48668","","null","","","null","1","","","","","","","","","","","","","","","",""
"","ITI","","html-keyboard-response","20","130434","0.0-1.0-18.0","0","0","48668","","null","","","null","1","","","","","","","","","","","","","","","NaN",""
"","S1","","html-keyboard-response","21","130686","0.0-1.0-20.0","0","0","48668","","null","","","null","2","","","","","","","","","","","","","","","",""
"","ISI","","html-keyboard-response","22","130839","0.0-1.0-21.0","0","0","48668","","null","","","null","2","NaN","","","","","","","","","","","","","","",""
"","S2","","html-keyboard-response","23","131093","0.0-1.0-22.0","0","0","48668","","null","","","null","2","","NaN","","","","","","","","","","","","","",""
"","response","","html-keyboard-response","24","131585","0.0-1.0-23.0-0.0","0","0","48668","","490","","","75","2","","","1","2","training","adjacent","EF","5","6","N.jpg","L.jpg","0","1","0","",""
"","feedback","","html-keyboard-response","25","132588","0.0-1.0-24.0-0.0","0","0","48668","","null","","","null","2","","","","","","","","","","","","","","","",""
"","time_out","","html-keyboard-response","26","134591","0.0-1.0-26.0-0.0","0","0","48668","","null","","","null","2","","","","","","","","","","","","","","","",""
"","ITI","","html-keyboard-response","27","135594","0.0-1.0-27.0","0","0","48668","","null","","","null","2","","","","","","","","","","","","","","","NaN",""
"","S1","","html-keyboard-response","28","135847","0.0-1.0-29.0","0","0","48668","","null","","","null","3","","","","","","","","","","","","","","","",""
"","ISI","","html-keyboard-response","29","136000","0.0-1.0-30.0","0","0","48668","","null","","","null","3","NaN","","","","","","","","","","","","","","",""
"","S2","","html-keyboard-response","30","136253","0.0-1.0-31.0","0","0","48668","","null","","","null","3","","NaN","","","","","","","","","","","","","",""
"","response","","html-keyboard-response","31","136719","0.0-1.0-32.0-0.0","0","0","48668","","464","","","68","3","","","1","3","training","adjacent","FG","6","7","L.jpg","O.jpg","1","1","1","",""
"","feedback","","html-keyboard-response","32","137722","0.0-1.0-33.0-0.0","0","0","48668","","null","","","null","3","","","","","","","","","","","","","","","",""
"","ITI","","html-keyboard-response","33","138725","0.0-1.0-36.0","0","0","48668","","null","","","null","3","","","","","","","","","","","","","","","NaN",""
"","S1","","html-keyboard-response","34","138979","0.0-1.0-38.0","0","0","48668","","null","","","null","4","","","","","","","","","","","","","","","",""
"","ISI","","html-keyboard-response","35","139131","0.0-1.0-39.0","0","0","48668","","null","","","null","4","NaN","","","","","","","","","","","","","","",""
"","S2","","html-keyboard-response","36","139389","0.0-1.0-40.0","0","0","48668","","null","","","null","4","","NaN","","","","","","","","","","","","","",""
"","response","","html-keyboard-response","37","139768","0.0-1.0-41.0-0.0","0","0","48668","","377","","","75","4","","","1","4","training","adjacent","GF","7","6","O.jpg","L.jpg","0","0","1","",""
"","feedback","","html-keyboard-response","38","140771","0.0-1.0-42.0-0.0","0","0","48668","","null","","","null","4","","","","","","","","","","","","","","","",""
"","ITI","","html-keyboard-response","39","141775","0.0-1.0-45.0","0","0","48668","","null","","","null","4","","","","","","","","","","","","","","","NaN",""
"","S1","","html-keyboard-response","40","142028","0.0-1.0-47.0","0","0","48668","","null","","","null","5","","","","","","","","","","","","","","","",""
"","ISI","","html-keyboard-response","41","142181","0.0-1.0-48.0","0","0","48668","","null","","","null","5","NaN","","","","","","","","","","","","","","",""
"","S2","","html-keyboard-response","42","142435","0.0-1.0-49.0","0","0","48668","","null","","","null","5","","NaN","","","","","","","","","","","","","",""
"","response","","html-keyboard-response","43","142927","0.0-1.0-50.0-0.0","0","0","48668","","489","","","68","5","","","1","5","training","adjacent","CD","3","4","Q.jpg","R.jpg","1","1","1","",""
"","feedback","","html-keyboard-response","44","143930","0.0-1.0-51.0-0.0","0","0","48668","","null","","","null","5","","","","","","","","","","","","","","","",""
"","ITI","","html-keyboard-response","45","144933","0.0-1.0-54.0","0","0","48668","","null","","","null","5","","","","","","","","","","","","","","","NaN",""
"","S1","","html-keyboard-response","46","145187","0.0-1.0-56.0","0","0","48668","","null","","","null","6","","","","","","","","","","","","","","","",""
"","ISI","","html-keyboard-response","47","145340","0.0-1.0-57.0","0","0","48668","","null","","","null","6","NaN","","","","","","","","","","","","","","",""
"","S2","","html-keyboard-response","48","145605","0.0-1.0-58.0","0","0","48668","","null","","","null","6","","NaN","","","","","","","","","","","","","",""
"","response","","html-keyboard-response","49","146203","0.0-1.0-59.0-0.0","0","0","48668","","596","","","68","6","","","1","6","training","adjacent","BA","2","1","M.jpg","P.jpg","1","0","0","",""
"","feedback","","html-keyboard-response","50","147207","0.0-1.0-60.0-0.0","0","0","48668","","null","","","null","6","","","","","","","","","","","","","","","",""
"","time_out","","html-keyboard-response","51","149210","0.0-1.0-62.0-0.0","0","0","48668","","null","","","null","6","","","","","","","","","","","","","","","",""
"","ITI","","html-keyboard-response","52","150212","0.0-1.0-63.0","0","0","48668","","null","","","null","6","","","","","","","","","","","","","","","NaN",""
"","S1","","html-keyboard-response","53","150466","0.0-1.0-65.0","0","0","48668","","null","","","null","7","","","","","","","","","","","","","","","",""
"","ISI","","html-keyboard-response","54","150618","0.0-1.0-66.0","0","0","48668","","null","","","null","7","NaN","","","","","","","","","","","","","","",""
"","S2","","html-keyboard-response","55","150871","0.0-1.0-67.0","0","0","48668","","null","","","null","7","","NaN","","","","","","","","","","","","","",""
"","response","","html-keyboard-response","56","151579","0.0-1.0-68.0-0.0","0","0","48668","","705","","","68","7","","","1","7","training","adjacent","AB","1","2","P.jpg","M.jpg","1","1","1","",""
"","feedback","","html-keyboard-response","57","152583","0.0-1.0-69.0-0.0","0","0","48668","","null","","","null","7","","","","","","","","","","","","","","","",""
"","ITI","","html-keyboard-response","58","153585","0.0-1.0-72.0","0","0","48668","","null","","","null","7","","","","","","","","","","","","","","","NaN",""
"","S1","","html-keyboard-response","59","153852","0.0-1.0-74.0","0","0","48668","","null","","","null","8","","","","","","","","","","","","","","","",""
"","ISI","","html-keyboard-response","60","154005","0.0-1.0-75.0","0","0","48668","","null","","","null","8","NaN","","","","","","","","","","","","","","",""
"","S2","","html-keyboard-response","61","154258","0.0-1.0-76.0","0","0","48668","","null","","","null","8","","NaN","","","","","","","","","","","","","",""
"","response","","html-keyboard-response","62","154723","0.0-1.0-77.0-0.0","0","0","48668","","462","","","75","8","","","1","8","training","adjacent","DC","4","3","R.jpg","Q.jpg","0","0","1","",""
"","feedback","","html-keyboard-response","63","155726","0.0-1.0-78.0-0.0","0","0","48668","","null","","","null","8","","","","","","","","","","","","","","","",""
"","ITI","","html-keyboard-response","64","156734","0.0-1.0-81.0","0","0","48668","","null","","","null","8","","","","","","","","","","","","","","","NaN",""
"","S1","","html-keyboard-response","65","156987","0.0-1.0-83.0","0","0","48668","","null","","","null","9","","","","","","","","","","","","","","","",""
"","ISI","","html-keyboard-response","66","157147","0.0-1.0-84.0","0","0","48668","","null","","","null","9","NaN","","","","","","","","","","","","","","",""
"","S2","","html-keyboard-response","67","157400","0.0-1.0-85.0","0","0","48668","","null","","","null","9","","NaN","","","","","","","","","","","","","",""
"","response","","html-keyboard-response","68","158181","0.0-1.0-86.0-0.0","0","0","48668","","778","","","68","9","","","1","9","training","adjacent","ED","5","4","N.jpg","R.jpg","1","0","0","",""
"","feedback","","html-keyboard-response","69","159184","0.0-1.0-87.0-0.0","0","0","48668","","null","","","null","9","","","","","","","","","","","","","","","",""
"","time_out","","html-keyboard-response","70","161187","0.0-1.0-89.0-0.0","0","0","48668","","null","","","null","9","","","","","","","","","","","","","","","",""
"","ITI","","html-keyboard-response","71","162190","0.0-1.0-90.0","0","0","48668","","null","","","null","9","","","","","","","","","","","","","","","NaN",""
"","S1","","html-keyboard-response","72","162443","0.0-1.0-92.0","0","0","48668","","null","","","null","10","","","","","","","","","","","","","","","",""
"","ISI","","html-keyboard-response","73","162597","0.0-1.0-93.0","0","0","48668","","null","","","null","10","NaN","","","","","","","","","","","","","","",""
"","S2","","html-keyboard-response","74","162850","0.0-1.0-94.0","0","0","48668","","null","","","null","10","","NaN","","","","","","","","","","","","","",""
"","response","","html-keyboard-response","75","163290","0.0-1.0-95.0-0.0","0","0","48668","","437","","","75","10","","","1","10","training","adjacent","EF","5","6","N.jpg","L.jpg","0","1","0","",""
"","feedback","","html-keyboard-response","76","164292","0.0-1.0-96.0-0.0","0","0","48668","","null","","","null","10","","","","","","","","","","","","","","","",""
"","time_out","","html-keyboard-response","77","166295","0.0-1.0-98.0-0.0","0","0","48668","","null","","","null","10","","","","","","","","","","","","","","","",""
"","ITI","","html-keyboard-response","78","167299","0.0-1.0-99.0","0","0","48668","","null","","","null","10","","","","","","","","","","","","","","","NaN",""
"","S1","","html-keyboard-response","79","167551","0.0-1.0-101.0","0","0","48668","","null","","","null","11","","","","","","","","","","","","","","","",""
"","ISI","","html-keyboard-response","80","167704","0.0-1.0-102.0","0","0","48668","","null","","","null","11","NaN","","","","","","","","","","","","","","",""
"","S2","","html-keyboard-response","81","167957","0.0-1.0-103.0","0","0","48668","","null","","","null","11","","NaN","","","","","","","","","","","","","",""
"","response","","html-keyboard-response","82","168631","0.0-1.0-104.0-0.0","0","0","48668","","671","","","75","11","","","1","11","training","adjacent","ED","5","4","N.jpg","R.jpg","0","0","1","",""
"","feedback","","html-keyboard-response","83","169634","0.0-1.0-105.0-0.0","0","0","48668","","null","","","null","11","","","","","","","","","","","","","","","",""
"","ITI","","html-keyboard-response","84","170637","0.0-1.0-108.0","0","0","48668","","null","","","null","11","","","","","","","","","","","","","","","NaN",""
"","S1","","html-keyboard-response","85","170891","0.0-1.0-110.0","0","0","48668","","null","","","null","12","","","","","","","","","","","","","","","",""
"","ISI","","html-keyboard-response","86","171044","0.0-1.0-111.0","0","0","48668","","null","","","null","12","NaN","","","","","","","","","","","","","","",""
"","S2","","html-keyboard-response","87","171298","0.0-1.0-112.0","0","0","48668","","null","","","null","12","","NaN","","","","","","","","","","","","","",""
"","response","","html-keyboard-response","88","172349","0.0-1.0-113.0-0.0","0","0","48668","","1049","","","75","12","","","1","12","training","adjacent","DC","4","3","R.jpg","Q.jpg","0","0","1","",""
"","feedback","","html-keyboard-response","89","173354","0.0-1.0-114.0-0.0","0","0","48668","","null","","","null","12","","","","","","","","","","","","","","","",""
"","ITI","","html-keyboard-response","90","174357","0.0-1.0-117.0","0","0","48668","","null","","","null","12","","","","","","","","","","","","","","","NaN",""
"","S1","","html-keyboard-response","91","174609","0.0-1.0-119.0","0","0","48668","","null","","","null","13","","","","","","","","","","","","","","","",""
"","ISI","","html-keyboard-response","92","174762","0.0-1.0-120.0","0","0","48668","","null","","","null","13","NaN","","","","","","","","","","","","","","",""
"","S2","","html-keyboard-response","93","175016","0.0-1.0-121.0","0","0","48668","","null","","","null","13","","NaN","","","","","","","","","","","","","",""
"","response","","html-keyboard-response","94","175456","0.0-1.0-122.0-0.0","0","0","48668","","438","","","75","13","","","1","13","training","adjacent","AB","1","2","P.jpg","M.jpg","0","1","0","",""
"","feedback","","html-keyboard-response","95","176459","0.0-1.0-123.0-0.0","0","0","48668","","null","","","null","13","","","","","","","","","","","","","","","",""
"","time_out","","html-keyboard-response","96","178462","0.0-1.0-125.0-0.0","0","0","48668","","null","","","null","13","","","","","","","","","","","","","","","",""
"","ITI","","html-keyboard-response","97","179465","0.0-1.0-126.0","0","0","48668","","null","","","null","13","","","","","","","","","","","","","","","NaN",""
"","S1","","html-keyboard-response","98","179718","0.0-1.0-128.0","0","0","48668","","null","","","null","14","","","","","","","","","","","","","","","",""
"","ISI","","html-keyboard-response","99","179872","0.0-1.0-129.0","0","0","48668","","null","","","null","14","NaN","","","","","","","","","","","","","","",""
"","S2","","html-keyboard-response","100","180126","0.0-1.0-130.0","0","0","48668","","null","","","null","14","","NaN","","","","","","","","","","","","","",""
"","response","","html-keyboard-response","101","180410","0.0-1.0-131.0-0.0","0","0","48668","","281","","","68","14","","","1","14","training","adjacent","FG","6","7","L.jpg","O.jpg","1","1","1","",""
"","feedback","","html-keyboard-response","102","181413","0.0-1.0-132.0-0.0","0","0","48668","","null","","","null","14","","","","","","","","","","","","","","","",""
"","ITI","","html-keyboard-response","103","182417","0.0-1.0-135.0","0","0","48668","","null","","","null","14","","","","","","","","","","","","","","","NaN",""
"","S1","","html-keyboard-response","104","182671","0.0-1.0-137.0","0","0","48668","","null","","","null","15","","","","","","","","","","","","","","","",""
"","ISI","","html-keyboard-response","105","182824","0.0-1.0-138.0","0","0","48668","","null","","","null","15","NaN","","","","","","","","","","","","","","",""
"","S2","","html-keyboard-response","106","183088","0.0-1.0-139.0","0","0","48668","","null","","","null","15","","NaN","","","","","","","","","","","","","",""
"","response","","html-keyboard-response","107","183415","0.0-1.0-140.0-0.0","0","0","48668","","325","","","68","15","","","1","15","training","adjacent","FE","6","5","L.jpg","N.jpg","1","0","0","",""
"","feedback","","html-keyboard-response","108","184418","0.0-1.0-141.0-0.0","0","0","48668","","null","","","null","15","","","","","","","","","","","","","","","",""
"","time_out","","html-keyboard-response","109","186422","0.0-1.0-143.0-0.0","0","0","48668","","null","","","null","15","","","","","","","","","","","","","","","",""
"","ITI","","html-keyboard-response","110","187424","0.0-1.0-144.0","0","0","48668","","null","","","null","15","","","","","","","","","","","","","","","NaN",""
"","S1","","html-keyboard-response","111","187677","0.0-1.0-146.0","0","0","48668","","null","","","null","16","","","","","","","","","","","","","","","",""
"","ISI","","html-keyboard-response","112","187829","0.0-1.0-147.0","0","0","48668","","null","","","null","16","NaN","","","","","","","","","","","","","","",""
"","S2","","html-keyboard-response","113","188082","0.0-1.0-148.0","0","0","48668","","null","","","null","16","","NaN","","","","","","","","","","","","","",""
"","response","","html-keyboard-response","114","188372","0.0-1.0-149.0-0.0","0","0","48668","","288","","","68","16","","","1","16","training","adjacent","CB","3","2","Q.jpg","M.jpg","1","0","0","",""
"","feedback","","html-keyboard-response","115","189376","0.0-1.0-150.0-0.0","0","0","48668","","null","","","null","16","","","","","","","","","","","","","","","",""
"","time_out","","html-keyboard-response","116","191379","0.0-1.0-152.0-0.0","0","0","48668","","null","","","null","16","","","","","","","","","","","","","","","",""
"","ITI","","html-keyboard-response","117","192382","0.0-1.0-153.0","0","0","48668","","null","","","null","16","","","","","","","","","","","","","","","NaN",""
"","S1","","html-keyboard-response","118","192635","0.0-1.0-155.0","0","0","48668","","null","","","null","17","","","","","","","","","","","","","","","",""
"","ISI","","html-keyboard-response","119","192789","0.0-1.0-156.0","0","0","48668","","null","","","null","17","NaN","","","","","","","","","","","","","","",""
"","S2","","html-keyboard-response","120","193043","0.0-1.0-157.0","0","0","48668","","null","","","null","17","","NaN","","","","","","","","","","","","","",""
"","response","","html-keyboard-response","121","193242","0.0-1.0-158.0-0.0","0","0","48668","","197","","","75","17","","","1","17","training","adjacent","AB","1","2","P.jpg","M.jpg","0","1","0","",""
"","feedback","","html-keyboard-response","122","194245","0.0-1.0-159.0-0.0","0","0","48668","","null","","","null","17","","","","","","","","","","","","","","","",""
"","time_out","","html-keyboard-response","123","196247","0.0-1.0-161.0-0.0","0","0","48668","","null","","","null","17","","","","","","","","","","","","","","","",""
"","ITI","","html-keyboard-response","124","197250","0.0-1.0-162.0","0","0","48668","","null","","","null","17","","","","","","","","","","","","","","","NaN",""
"","S1","","html-keyboard-response","125","197503","0.0-1.0-164.0","0","0","48668","","null","","","null","18","","","","","","","","","","","","","","","",""
"","ISI","","html-keyboard-response","126","197656","0.0-1.0-165.0","0","0","48668","","null","","","null","18","NaN","","","","","","","","","","","","","","",""
"","S2","","html-keyboard-response","127","197909","0.0-1.0-166.0","0","0","48668","","null","","","null","18","","NaN","","","","","","","","","","","","","",""
"","response","","html-keyboard-response","128","198354","0.0-1.0-167.0-0.0","0","0","48668","","442","","","75","18","","","1","18","training","adjacent","CB","3","2","Q.jpg","M.jpg","0","0","1","",""
"","feedback","","html-keyboard-response","129","199357","0.0-1.0-168.0-0.0","0","0","48668","","null","","","null","18","","","","","","","","","","","","","","","",""
"","ITI","","html-keyboard-response","130","200359","0.0-1.0-171.0","0","0","48668","","null","","","null","18","","","","","","","","","","","","","","","NaN",""
"","S1","","html-keyboard-response","131","200613","0.0-1.0-173.0","0","0","48668","","null","","","null","19","","","","","","","","","","","","","","","",""
"","ISI","","html-keyboard-response","132","200766","0.0-1.0-174.0","0","0","48668","","null","","","null","19","NaN","","","","","","","","","","","","","","",""
"","S2","","html-keyboard-response","133","201019","0.0-1.0-175.0","0","0","48668","","null","","","null","19","","NaN","","","","","","","","","","","","","",""
"","response","","html-keyboard-response","134","201517","0.0-1.0-176.0-0.0","0","0","48668","","496","","","68","19","","","1","19","training","adjacent","BC","2","3","M.jpg","Q.jpg","1","1","1","",""
"","feedback","","html-keyboard-response","135","202520","0.0-1.0-177.0-0.0","0","0","48668","","null","","","null","19","","","","","","","","","","","","","","","",""
"","ITI","","html-keyboard-response","136","203523","0.0-1.0-180.0","0","0","48668","","null","","","null","19","","","","","","","","","","","","","","","NaN",""
"","S1","","html-keyboard-response","137","203776","0.0-1.0-182.0","0","0","48668","","null","","","null","20","","","","","","","","","","","","","","","",""
"","ISI","","html-keyboard-response","138","203930","0.0-1.0-183.0","0","0","48668","","null","","","null","20","NaN","","","","","","","","","","","","","","",""
"","S2","","html-keyboard-response","139","204183","0.0-1.0-184.0","0","0","48668","","null","","","null","20","","NaN","","","","","","","","","","","","","",""
"","response","","html-keyboard-response","140","204585","0.0-1.0-185.0-0.0","0","0","48668","","400","","","75","20","","","1","20","training","adjacent","EF","5","6","N.jpg","L.jpg","0","1","0","",""
"","feedback","","html-keyboard-response","141","205589","0.0-1.0-186.0-0.0","0","0","48668","","null","","","null","20","","","","","","","","","","","","","","","",""
"","time_out","","html-keyboard-response","142","207592","0.0-1.0-188.0-0.0","0","0","48668","","null","","","null","20","","","","","","","","","","","","","","","",""
"","ITI","","html-keyboard-response","143","208595","0.0-1.0-189.0","0","0","48668","","null","","","null","20","","","","","","","","","","","","","","","NaN",""
"","S1","","html-keyboard-response","144","208847","0.0-1.0-191.0","0","0","48668","","null","","","null","21","","","","","","","","","","","","","","","",""
"","ISI","","html-keyboard-response","145","209000","0.0-1.0-192.0","0","0","48668","","null","","","null","21","NaN","","","","","","","","","","","","","","",""
"","S2","","html-keyboard-response","146","209255","0.0-1.0-193.0","0","0","48668","","null","","","null","21","","NaN","","","","","","","","","","","","","",""
"","response","","html-keyboard-response","147","209935","0.0-1.0-194.0-0.0","0","0","48668","","679","","","75","21","","","1","21","training","adjacent","CD","3","4","Q.jpg","R.jpg","0","1","0","",""
"","feedback","","html-keyboard-response","148","210939","0.0-1.0-195.0-0.0","0","0","48668","","null","","","null","21","","","","","","","","","","","","","","","",""
"","time_out","","html-keyboard-response","149","212941","0.0-1.0-197.0-0.0","0","0","48668","","null","","","null","21","","","","","","","","","","","","","","","",""
"","ITI","","html-keyboard-response","150","213946","0.0-1.0-198.0","0","0","48668","","null","","","null","21","","","","","","","","","","","","","","","NaN",""
"","S1","","html-keyboard-response","151","214199","0.0-1.0-200.0","0","0","48668","","null","","","null","22","","","","","","","","","","","","","","","",""
"","ISI","","html-keyboard-response","152","214352","0.0-1.0-201.0","0","0","48668","","null","","","null","22","NaN","","","","","","","","","","","","","","",""
"","S2","","html-keyboard-response","153","214605","0.0-1.0-202.0","0","0","48668","","null","","","null","22","","NaN","","","","","","","","","","","","","",""
"","response","","html-keyboard-response","154","214827","0.0-1.0-203.0-0.0","0","0","48668","","220","","","68","22","","","1","22","training","adjacent","FE","6","5","L.jpg","N.jpg","1","0","0","",""
"","feedback","","html-keyboard-response","155","215830","0.0-1.0-204.0-0.0","0","0","48668","","null","","","null","22","","","","","","","","","","","","","","","",""
"","time_out","","html-keyboard-response","156","217833","0.0-1.0-206.0-0.0","0","0","48668","","null","","","null","22","","","","","","","","","","","","","","","",""
"","ITI","","html-keyboard-response","157","218836","0.0-1.0-207.0","0","0","48668","","null","","","null","22","","","","","","","","","","","","","","","NaN",""
"","S1","","html-keyboard-response","158","219089","0.0-1.0-209.0","0","0","48668","","null","","","null","23","","","","","","","","","","","","","","","",""
"","ISI","","html-keyboard-response","159","219242","0.0-1.0-210.0","0","0","48668","","null","","","null","23","NaN","","","","","","","","","","","","","","",""
"","S2","","html-keyboard-response","160","219495","0.0-1.0-211.0","0","0","48668","","null","","","null","23","","NaN","","","","","","","","","","","","","",""
"","response","","html-keyboard-response","161","219890","0.0-1.0-212.0-0.0","0","0","48668","","394","","","68","23","","","1","23","training","adjacent","DE","4","5","R.jpg","N.jpg","1","1","1","",""
"","feedback","","html-keyboard-response","162","220892","0.0-1.0-213.0-0.0","0","0","48668","","null","","","null","23","","","","","","","","","","","","","","","",""
"","ITI","","html-keyboard-response","163","221895","0.0-1.0-216.0","0","0","48668","","null","","","null","23","","","","","","","","","","","","","","","NaN",""
"","S1","","html-keyboard-response","164","222150","0.0-1.0-218.0","0","0","48668","","null","","","null","24","","","","","","","","","","","","","","","",""
"","ISI","","html-keyboard-response","165","222303","0.0-1.0-219.0","0","0","48668","","null","","","null","24","NaN","","","","","","","","","","","","","","",""
"","S2","","html-keyboard-response","166","222557","0.0-1.0-220.0","0","0","48668","","null","","","null","24","","NaN","","","","","","","","","","","","","",""
"","response","","html-keyboard-response","167","222928","0.0-1.0-221.0-0.0","0","0","48668","","370","","","75","24","","","1","24","training","adjacent","CB","3","2","Q.jpg","M.jpg","0","0","1","",""
"","feedback","","html-keyboard-response","168","223933","0.0-1.0-222.0-0.0","0","0","48668","","null","","","null","24","","","","","","","","","","","","","","","",""
"","ITI","","html-keyboard-response","169","224936","0.0-1.0-225.0","0","0","48668","","null","","","null","24","","","","","","","","","","","","","","","NaN",""
"","S1","","html-keyboard-response","170","225189","0.0-1.0-227.0","0","0","48668","","null","","","null","25","","","","","","","","","","","","","","","",""
"","ISI","","html-keyboard-response","171","225342","0.0-1.0-228.0","0","0","48668","","null","","","null","25","NaN","","","","","","","","","","","","","","",""
"","S2","","html-keyboard-response","172","225595","0.0-1.0-229.0","0","0","48668","","null","","","null","25","","NaN","","","","","","","","","","","","","",""
"","response","","html-keyboard-response","173","226081","0.0-1.0-230.0-0.0","0","0","48668","","483","","","68","25","","","1","25","training","adjacent","DE","4","5","R.jpg","N.jpg","1","1","1","",""
"","feedback","","html-keyboard-response","174","227084","0.0-1.0-231.0-0.0","0","0","48668","","null","","","null","25","","","","","","","","","","","","","","","",""
"","ITI","","html-keyboard-response","175","228086","0.0-1.0-234.0","0","0","48668","","null","","","null","25","","","","","","","","","","","","","","","NaN",""
"","S1","","html-keyboard-response","176","228340","0.0-1.0-236.0","0","0","48668","","null","","","null","26","","","","","","","","","","","","","","","",""
"","ISI","","html-keyboard-response","177","228493","0.0-1.0-237.0","0","0","48668","","null","","","null","26","NaN","","","","","","","","","","","","","","",""
"","S2","","html-keyboard-response","178","228747","0.0-1.0-238.0","0","0","48668","","null","","","null","26","","NaN","","","","","","","","","","","","","",""
"","response","","html-keyboard-response","179","228985","0.0-1.0-239.0-0.0","0","0","48668","","236","","","75","26","","","1","26","training","adjacent","CD","3","4","Q.jpg","R.jpg","0","1","0","",""
"","feedback","","html-keyboard-response","180","229988","0.0-1.0-240.0-0.0","0","0","48668","","null","","","null","26","","","","","","","","","","","","","","","",""
"","time_out","","html-keyboard-response","181","231993","0.0-1.0-242.0-0.0","0","0","48668","","null","","","null","26","","","","","","","","","","","","","","","",""
"","ITI","","html-keyboard-response","182","232996","0.0-1.0-243.0","0","0","48668","","null","","","null","26","","","","","","","","","","","","","","","NaN",""
"","S1","","html-keyboard-response","183","233250","0.0-1.0-245.0","0","0","48668","","null","","","null","27","","","","","","","","","","","","","","","",""
"","ISI","","html-keyboard-response","184","233403","0.0-1.0-246.0","0","0","48668","","null","","","null","27","NaN","","","","","","","","","","","","","","",""
"","S2","","html-keyboard-response","185","233655","0.0-1.0-247.0","0","0","48668","","null","","","null","27","","NaN","","","","","","","","","","","","","",""
"","response","","html-keyboard-response","186","234078","0.0-1.0-248.0-0.0","0","0","48668","","420","","","75","27","","","1","27","training","adjacent","GF","7","6","O.jpg","L.jpg","0","0","1","",""
"","feedback","","html-keyboard-response","187","235082","0.0-1.0-249.0-0.0","0","0","48668","","null","","","null","27","","","","","","","","","","","","","","","",""
"","ITI","","html-keyboard-response","188","236085","0.0-1.0-252.0","0","0","48668","","null","","","null","27","","","","","","","","","","","","","","","NaN",""
"","S1","","html-keyboard-response","189","236337","0.0-1.0-254.0","0","0","48668","","null","","","null","28","","","","","","","","","","","","","","","",""
"","ISI","","html-keyboard-response","190","236491","0.0-1.0-255.0","0","0","48668","","null","","","null","28","NaN","","","","","","","","","","","","","","",""
"","S2","","html-keyboard-response","191","236745","0.0-1.0-256.0","0","0","48668","","null","","","null","28","","NaN","","","","","","","","","","","","","",""
"","response","","html-keyboard-response","192","237457","0.0-1.0-257.0-0.0","0","0","48668","","710","","","68","28","","","1","28","training","adjacent","FE","6","5","L.jpg","N.jpg","1","0","0","",""
"","feedback","","html-keyboard-response","193","238460","0.0-1.0-258.0-0.0","0","0","48668","","null","","","null","28","","","","","","","","","","","","","","","",""
"","time_out","","html-keyboard-response","194","240462","0.0-1.0-260.0-0.0","0","0","48668","","null","","","null","28","","","","","","","","","","","","","","","",""
"","ITI","","html-keyboard-response","195","241466","0.0-1.0-261.0","0","0","48668","","null","","","null","28","","","","","","","","","","","","","","","NaN",""
"","S1","","html-keyboard-response","196","241719","0.0-1.0-263.0","0","0","48668","","null","","","null","29","","","","","","","","","","","","","","","",""
"","ISI","","html-keyboard-response","197","241872","0.0-1.0-264.0","0","0","48668","","null","","","null","29","NaN","","","","","","","","","","","","","","",""
"","S2","","html-keyboard-response","198","242125","0.0-1.0-265.0","0","0","48668","","null","","","null","29","","NaN","","","","","","","","","","","","","",""
"","response","","html-keyboard-response","199","242508","0.0-1.0-266.0-0.0","0","0","48668","","381","","","75","29","","","1","29","training","adjacent","BC","2","3","M.jpg","Q.jpg","0","1","0","",""
"","feedback","","html-keyboard-response","200","243510","0.0-1.0-267.0-0.0","0","0","48668","","null","","","null","29","","","","","","","","","","","","","","","",""
"","time_out","","html-keyboard-response","201","245513","0.0-1.0-269.0-0.0","0","0","48668","","null","","","null","29","","","","","","","","","","","","","","","",""
"","ITI","","html-keyboard-response","202","246516","0.0-1.0-270.0","0","0","48668","","null","","","null","29","","","","","","","","","","","","","","","NaN",""
"","S1","","html-keyboard-response","203","246770","0.0-1.0-272.0","0","0","48668","","null","","","null","30","","","","","","","","","","","","","","","",""
"","ISI","","html-keyboard-response","204","246923","0.0-1.0-273.0","0","0","48668","","null","","","null","30","NaN","","","","","","","","","","","","","","",""
"","S2","","html-keyboard-response","205","247176","0.0-1.0-274.0","0","0","48668","","null","","","null","30","","NaN","","","","","","","","","","","","","",""
"","response","","html-keyboard-response","206","247653","0.0-1.0-275.0-0.0","0","0","48668","","475","","","68","30","","","1","30","training","adjacent","DE","4","5","R.jpg","N.jpg","1","1","1","",""
"","feedback","","html-keyboard-response","207","248656","0.0-1.0-276.0-0.0","0","0","48668","","null","","","null","30","","","","","","","","","","","","","","","",""
"","ITI","","html-keyboard-response","208","249659","0.0-1.0-279.0","0","0","48668","","null","","","null","30","","","","","","","","","","","","","","","NaN",""
"","S1","","html-keyboard-response","209","249921","0.0-1.0-281.0","0","0","48668","","null","","","null","31","","","","","","","","","","","","","","","",""
"","ISI","","html-keyboard-response","210","250073","0.0-1.0-282.0","0","0","48668","","null","","","null","31","NaN","","","","","","","","","","","","","","",""
"","S2","","html-keyboard-response","211","250327","0.0-1.0-283.0","0","0","48668","","null","","","null","31","","NaN","","","","","","","","","","","","","",""
"","response","","html-keyboard-response","212","250672","0.0-1.0-284.0-0.0","0","0","48668","","343","","","75","31","","","1","31","training","adjacent","GF","7","6","O.jpg","L.jpg","0","0","1","",""
"","feedback","","html-keyboard-response","213","251676","0.0-1.0-285.0-0.0","0","0","48668","","null","","","null","31","","","","","","","","","","","","","","","",""
"","ITI","","html-keyboard-response","214","252678","0.0-1.0-288.0","0","0","48668","","null","","","null","31","","","","","","","","","","","","","","","NaN",""
"","S1","","html-keyboard-response","215","252932","0.0-1.0-290.0","0","0","48668","","null","","","null","32","","","","","","","","","","","","","","","",""
"","ISI","","html-keyboard-response","216","253084","0.0-1.0-291.0","0","0","48668","","null","","","null","32","NaN","","","","","","","","","","","","","","",""
"","S2","","html-keyboard-response","217","253337","0.0-1.0-292.0","0","0","48668","","null","","","null","32","","NaN","","","","","","","","","","","","","",""
"","response","","html-keyboard-response","218","254064","0.0-1.0-293.0-0.0","0","0","48668","","724","","","68","32","","","1","32","training","adjacent","DC","4","3","R.jpg","Q.jpg","1","0","0","",""
"","feedback","","html-keyboard-response","219","255068","0.0-1.0-294.0-0.0","0","0","48668","","null","","","null","32","","","","","","","","","","","","","","","",""
"","time_out","","html-keyboard-response","220","257071","0.0-1.0-296.0-0.0","0","0","48668","","null","","","null","32","","","","","","","","","","","","","","","",""
"","ITI","","html-keyboard-response","221","258074","0.0-1.0-297.0","0","0","48668","","null","","","null","32","","","","","","","","","","","","","","","NaN",""
"","S1","","html-keyboard-response","222","258327","0.0-1.0-299.0","0","0","48668","","null","","","null","33","","","","","","","","","","","","","","","",""
"","ISI","","html-keyboard-response","223","258480","0.0-1.0-300.0","0","0","48668","","null","","","null","33","NaN","","","","","","","","","","","","","","",""
"","S2","","html-keyboard-response","224","258733","0.0-1.0-301.0","0","0","48668","","null","","","null","33","","NaN","","","","","","","","","","","","","",""
"","response","","html-keyboard-response","225","259365","0.0-1.0-302.0-0.0","0","0","48668","","631","","","68","33","","","1","33","training","adjacent","DE","4","5","R.jpg","N.jpg","1","1","1","",""
"","feedback","","html-keyboard-response","226","260369","0.0-1.0-303.0-0.0","0","0","48668","","null","","","null","33","","","","","","","","","","","","","","","",""
"","ITI","","html-keyboard-response","227","261372","0.0-1.0-306.0","0","0","48668","","null","","","null","33","","","","","","","","","","","","","","","NaN",""
"","S1","","html-keyboard-response","228","261626","0.0-1.0-308.0","0","0","48668","","null","","","null","34","","","","","","","","","","","","","","","",""
"","ISI","","html-keyboard-response","229","261779","0.0-1.0-309.0","0","0","48668","","null","","","null","34","NaN","","","","","","","","","","","","","","",""
"","S2","","html-keyboard-response","230","262033","0.0-1.0-310.0","0","0","48668","","null","","","null","34","","NaN","","","","","","","","","","","","","",""
"","response","","html-keyboard-response","231","262254","0.0-1.0-311.0-0.0","0","0","48668","","218","","","75","34","","","1","34","training","adjacent","EF","5","6","N.jpg","L.jpg","0","1","0","",""
"","feedback","","html-keyboard-response","232","263258","0.0-1.0-312.0-0.0","0","0","48668","","null","","","null","34","","","","","","","","","","","","","","","",""
"","time_out","","html-keyboard-response","233","265261","0.0-1.0-314.0-0.0","0","0","48668","","null","","","null","34","","","","","","","","","","","","","","","",""
"","ITI","","html-keyboard-response","234","266264","0.0-1.0-315.0","0","0","48668","","null","","","null","34","","","","","","","","","","","","","","","NaN",""
"","S1","","html-keyboard-response","235","266517","0.0-1.0-317.0","0","0","48668","","null","","","null","35","","","","","","","","","","","","","","","",""
"","ISI","","html-keyboard-response","236","266670","0.0-1.0-318.0","0","0","48668","","null","","","null","35","NaN","","","","","","","","","","","","","","",""
"","S2","","html-keyboard-response","237","266924","0.0-1.0-319.0","0","0","48668","","null","","","null","35","","NaN","","","","","","","","","","","","","",""
"","response","","html-keyboard-response","238","267132","0.0-1.0-320.0-0.0","0","0","48668","","206","","","75","35","","","1","35","training","adjacent","CB","3","2","Q.jpg","M.jpg","0","0","1","",""
"","feedback","","html-keyboard-response","239","268136","0.0-1.0-321.0-0.0","0","0","48668","","null","","","null","35","","","","","","","","","","","","","","","",""
"","ITI","","html-keyboard-response","240","269139","0.0-1.0-324.0","0","0","48668","","null","","","null","35","","","","","","","","","","","","","","","NaN",""
"","S1","","html-keyboard-response","241","269393","0.0-1.0-326.0","0","0","48668","","null","","","null","36","","","","","","","","","","","","","","","",""
"","ISI","","html-keyboard-response","242","269545","0.0-1.0-327.0","0","0","48668","","null","","","null","36","NaN","","","","","","","","","","","","","","",""
"","S2","","html-keyboard-response","243","269798","0.0-1.0-328.0","0","0","48668","","null","","","null","36","","NaN","","","","","","","","","","","","","",""
"","response","","html-keyboard-response","244","270178","0.0-1.0-329.0-0.0","0","0","48668","","378","","","75","36","","","1","36","training","adjacent","GF","7","6","O.jpg","L.jpg","0","0","1","",""
"","feedback","","html-keyboard-response","245","271183","0.0-1.0-330.0-0.0","0","0","48668","","null","","","null","36","","","","","","","","","","","","","","","",""
"","ITI","","html-keyboard-response","246","272186","0.0-1.0-333.0","0","0","48668","","null","","","null","36","","","","","","","","","","","","","","","NaN",""
"","S1","","html-keyboard-response","247","272439","0.0-1.0-335.0","0","0","48668","","null","","","null","37","","","","","","","","","","","","","","","",""
"","ISI","","html-keyboard-response","248","272592","0.0-1.0-336.0","0","0","48668","","null","","","null","37","NaN","","","","","","","","","","","","","","",""
"","S2","","html-keyboard-response","249","272845","0.0-1.0-337.0","0","0","48668","","null","","","null","37","","NaN","","","","","","","","","","","","","",""
"","response","","html-keyboard-response","250","273097","0.0-1.0-338.0-0.0","0","0","48668","","250","","","75","37","","","1","37","training","adjacent","AB","1","2","P.jpg","M.jpg","0","1","0","",""
"","feedback","","html-keyboard-response","251","274101","0.0-1.0-339.0-0.0","0","0","48668","","null","","","null","37","","","","","","","","","","","","","","","",""
"","time_out","","html-keyboard-response","252","276104","0.0-1.0-341.0-0.0","0","0","48668","","null","","","null","37","","","","","","","","","","","","","","","",""
"","ITI","","html-keyboard-response","253","277107","0.0-1.0-342.0","0","0","48668","","null","","","null","37","","","","","","","","","","","","","","","NaN",""
"","S1","","html-keyboard-response","254","277360","0.0-1.0-344.0","0","0","48668","","null","","","null","38","","","","","","","","","","","","","","","",""
"","ISI","","html-keyboard-response","255","277514","0.0-1.0-345.0","0","0","48668","","null","","","null","38","NaN","","","","","","","","","","","","","","",""
"","S2","","html-keyboard-response","256","277767","0.0-1.0-346.0","0","0","48668","","null","","","null","38","","NaN","","","","","","","","","","","","","",""
"","response","","html-keyboard-response","257","278042","0.0-1.0-347.0-0.0","0","0","48668","","272","","","68","38","","","1","38","training","adjacent","BA","2","1","M.jpg","P.jpg","1","0","0","",""
"","feedback","","html-keyboard-response","258","279045","0.0-1.0-348.0-0.0","0","0","48668","","null","","","null","38","","","","","","","","","","","","","","","",""
"","time_out","","html-keyboard-response","259","281048","0.0-1.0-350.0-0.0","0","0","48668","","null","","","null","38","","","","","","","","","","","","","","","",""
"","ITI","","html-keyboard-response","260","282051","0.0-1.0-351.0","0","0","48668","","null","","","null","38","","","","","","","","","","","","","","","NaN",""
"","S1","","html-keyboard-response","261","282303","0.0-1.0-353.0","0","0","48668","","null","","","null","39","","","","","","","","","","","","","","","",""
"","ISI","","html-keyboard-response","262","282457","0.0-1.0-354.0","0","0","48668","","null","","","null","39","NaN","","","","","","","","","","","","","","",""
"","S2","","html-keyboard-response","263","282710","0.0-1.0-355.0","0","0","48668","","null","","","null","39","","NaN","","","","","","","","","","","","","",""
"","response","","html-keyboard-response","264","282962","0.0-1.0-356.0-0.0","0","0","48668","","250","","","68","39","","","1","39","training","adjacent","BA","2","1","M.jpg","P.jpg","1","0","0","",""
"","feedback","","html-keyboard-response","265","283966","0.0-1.0-357.0-0.0","0","0","48668","","null","","","null","39","","","","","","","","","","","","","","","",""
"","time_out","","html-keyboard-response","266","285969","0.0-1.0-359.0-0.0","0","0","48668","","null","","","null","39","","","","","","","","","","","","","","","",""
"","ITI","","html-keyboard-response","267","286971","0.0-1.0-360.0","0","0","48668","","null","","","null","39","","","","","","","","","","","","","","","NaN",""
"","S1","","html-keyboard-response","268","287225","0.0-1.0-362.0","0","0","48668","","null","","","null","40","","","","","","","","","","","","","","","",""
"","ISI","","html-keyboard-response","269","287377","0.0-1.0-363.0","0","0","48668","","null","","","null","40","NaN","","","","","","","","","","","","","","",""
"","S2","","html-keyboard-response","270","287631","0.0-1.0-364.0","0","0","48668","","null","","","null","40","","NaN","","","","","","","","","","","","","",""
"","response","","html-keyboard-response","271","287962","0.0-1.0-365.0-0.0","0","0","48668","","330","","","68","40","","","1","40","training","adjacent","BA","2","1","M.jpg","P.jpg","1","0","0","",""
"","feedback","","html-keyboard-response","272","288966","0.0-1.0-366.0-0.0","0","0","48668","","null","","","null","40","","","","","","","","","","","","","","","",""
"","time_out","","html-keyboard-response","273","290970","0.0-1.0-368.0-0.0","0","0","48668","","null","","","null","40","","","","","","","","","","","","","","","",""
"","ITI","","html-keyboard-response","274","291974","0.0-1.0-369.0","0","0","48668","","null","","","null","40","","","","","","","","","","","","","","","NaN",""
"","S1","","html-keyboard-response","275","292227","0.0-1.0-371.0","0","0","48668","","null","","","null","41","","","","","","","","","","","","","","","",""
"","ISI","","html-keyboard-response","276","292380","0.0-1.0-372.0","0","0","48668","","null","","","null","41","NaN","","","","","","","","","","","","","","",""
"","S2","","html-keyboard-response","277","292633","0.0-1.0-373.0","0","0","48668","","null","","","null","41","","NaN","","","","","","","","","","","","","",""
"","response","","html-keyboard-response","278","292933","0.0-1.0-374.0-0.0","0","0","48668","","298","","","75","41","","","1","41","training","adjacent","ED","5","4","N.jpg","R.jpg","0","0","1","",""
"","feedback","","html-keyboard-response","279","293936","0.0-1.0-375.0-0.0","0","0","48668","","null","","","null","41","","","","","","","","","","","","","","","",""
"","ITI","","html-keyboard-response","280","294940","0.0-1.0-378.0","0","0","48668","","null","","","null","41","","","","","","","","","","","","","","","NaN",""
"","S1","","html-keyboard-response","281","295193","0.0-1.0-380.0","0","0","48668","","null","","","null","42","","","","","","","","","","","","","","","",""
"","ISI","","html-keyboard-response","282","295346","0.0-1.0-381.0","0","0","48668","","null","","","null","42","NaN","","","","","","","","","","","","","","",""
"","S2","","html-keyboard-response","283","295606","0.0-1.0-382.0","0","0","48668","","null","","","null","42","","NaN","","","","","","","","","","","","","",""
"","response","","html-keyboard-response","284","296036","0.0-1.0-383.0-0.0","0","0","48668","","429","","","68","42","","","1","42","training","adjacent","FG","6","7","L.jpg","O.jpg","1","1","1","",""
"","feedback","","html-keyboard-response","285","297039","0.0-1.0-384.0-0.0","0","0","48668","","null","","","null","42","","","","","","","","","","","","","","","",""
"","ITI","","html-keyboard-response","286","298042","0.0-1.0-387.0","0","0","48668","","null","","","null","42","","","","","","","","","","","","","","","NaN",""
"","S1","","html-keyboard-response","287","298295","0.0-1.0-389.0","0","0","48668","","null","","","null","43","","","","","","","","","","","","","","","",""
"","ISI","","html-keyboard-response","288","298448","0.0-1.0-390.0","0","0","48668","","null","","","null","43","NaN","","","","","","","","","","","","","","",""
"","S2","","html-keyboard-response","289","298701","0.0-1.0-391.0","0","0","48668","","null","","","null","43","","NaN","","","","","","","","","","","","","",""
"","response","","html-keyboard-response","290","299145","0.0-1.0-392.0-0.0","0","0","48668","","441","","","68","43","","","1","43","training","adjacent","DC","4","3","R.jpg","Q.jpg","1","0","0","",""
"","feedback","","html-keyboard-response","291","300148","0.0-1.0-393.0-0.0","0","0","48668","","null","","","null","43","","","","","","","","","","","","","","","",""
"","time_out","","html-keyboard-response","292","302152","0.0-1.0-395.0-0.0","0","0","48668","","null","","","null","43","","","","","","","","","","","","","","","",""
"","ITI","","html-keyboard-response","293","303155","0.0-1.0-396.0","0","0","48668","","null","","","null","43","","","","","","","","","","","","","","","NaN",""
"","S1","","html-keyboard-response","294","303408","0.0-1.0-398.0","0","0","48668","","null","","","null","44","","","","","","","","","","","","","","","",""
"","ISI","","html-keyboard-response","295","303561","0.0-1.0-399.0","0","0","48668","","null","","","null","44","NaN","","","","","","","","","","","","","","",""
"","S2","","html-keyboard-response","296","303815","0.0-1.0-400.0","0","0","48668","","null","","","null","44","","NaN","","","","","","","","","","","","","",""
"","response","","html-keyboard-response","297","303971","0.0-1.0-401.0-0.0","0","0","48668","","153","","","75","44","","","1","44","training","adjacent","ED","5","4","N.jpg","R.jpg","0","0","1","",""
"","feedback","","html-keyboard-response","298","304974","0.0-1.0-402.0-0.0","0","0","48668","","null","","","null","44","","","","","","","","","","","","","","","",""
"","ITI","","html-keyboard-response","299","305977","0.0-1.0-405.0","0","0","48668","","null","","","null","44","","","","","","","","","","","","","","","NaN",""
"","S1","","html-keyboard-response","300","306230","0.0-1.0-407.0","0","0","48668","","null","","","null","45","","","","","","","","","","","","","","","",""
"","ISI","","html-keyboard-response","301","306382","0.0-1.0-408.0","0","0","48668","","null","","","null","45","NaN","","","","","","","","","","","","","","",""
"","S2","","html-keyboard-response","302","306636","0.0-1.0-409.0","0","0","48668","","null","","","null","45","","NaN","","","","","","","","","","","","","",""
"","response","","html-keyboard-response","303","306856","0.0-1.0-410.0-0.0","0","0","48668","","218","","","75","45","","","1","45","training","adjacent","FE","6","5","L.jpg","N.jpg","0","0","1","",""
"","feedback","","html-keyboard-response","304","307859","0.0-1.0-411.0-0.0","0","0","48668","","null","","","null","45","","","","","","","","","","","","","","","",""
"","ITI","","html-keyboard-response","305","308863","0.0-1.0-414.0","0","0","48668","","null","","","null","45","","","","","","","","","","","","","","","NaN",""
"","S1","","html-keyboard-response","306","309115","0.0-1.0-416.0","0","0","48668","","null","","","null","46","","","","","","","","","","","","","","","",""
"","ISI","","html-keyboard-response","307","309269","0.0-1.0-417.0","0","0","48668","","null","","","null","46","NaN","","","","","","","","","","","","","","",""
"","S2","","html-keyboard-response","308","309522","0.0-1.0-418.0","0","0","48668","","null","","","null","46","","NaN","","","","","","","","","","","","","",""
"","response","","html-keyboard-response","309","310001","0.0-1.0-419.0-0.0","0","0","48668","","477","","","68","46","","","1","46","training","adjacent","FG","6","7","L.jpg","O.jpg","1","1","1","",""
"","feedback","","html-keyboard-response","310","311005","0.0-1.0-420.0-0.0","0","0","48668","","null","","","null","46","","","","","","","","","","","","","","","",""
"","ITI","","html-keyboard-response","311","312008","0.0-1.0-423.0","0","0","48668","","null","","","null","46","","","","","","","","","","","","","","","NaN",""
"","S1","","html-keyboard-response","312","312261","0.0-1.0-425.0","0","0","48668","","null","","","null","47","","","","","","","","","","","","","","","",""
"","ISI","","html-keyboard-response","313","312414","0.0-1.0-426.0","0","0","48668","","null","","","null","47","NaN","","","","","","","","","","","","","","",""
"","S2","","html-keyboard-response","314","312667","0.0-1.0-427.0","0","0","48668","","null","","","null","47","","NaN","","","","","","","","","","","","","",""
"","response","","html-keyboard-response","315","313074","0.0-1.0-428.0-0.0","0","0","48668","","405","","","75","47","","","1","47","training","adjacent","BC","2","3","M.jpg","Q.jpg","0","1","0","",""
"","feedback","","html-keyboard-response","316","314077","0.0-1.0-429.0-0.0","0","0","48668","","null","","","null","47","","","","","","","","","","","","","","","",""
"","time_out","","html-keyboard-response","317","316080","0.0-1.0-431.0-0.0","0","0","48668","","null","","","null","47","","","","","","","","","","","","","","","",""
"","ITI","","html-keyboard-response","318","317084","0.0-1.0-432.0","0","0","48668","","null","","","null","47","","","","","","","","","","","","","","","NaN",""
"","block_over","","html-keyboard-response","319","326698","0.0-1.0-433.0-0.0","0","0","48668","","9612","","","32","47","","","","","","","","","","","","","","","",""
"","S1","","html-keyboard-response","320","326950","0.0-1.0-434.0","0","0","48668","","null","","","null","48","","","","","","","","","","","","","","","",""
"","ISI","","html-keyboard-response","321","327102","0.0-1.0-435.0","0","0","48668","","null","","","null","48","NaN","","","","","","","","","","","","","","",""
"","S2","","html-keyboard-response","322","327356","0.0-1.0-436.0","0","0","48668","","null","","","null","48","","NaN","","","","","","","","","","","","","",""
"","response","","html-keyboard-response","323","327701","0.0-1.0-437.0-0.0","0","0","48668","","344","","","68","48","","","2","48","training","adjacent","FE","6","5","L.jpg","N.jpg","1","0","0","",""
"","feedback","","html-keyboard-response","324","328705","0.0-1.0-438.0-0.0","0","0","48668","","null","","","null","48","","","","","","","","","","","","","","","",""
"","time_out","","html-keyboard-response","325","330709","0.0-1.0-440.0-0.0","0","0","48668","","null","","","null","48","","","","","","","","","","","","","","","",""
"","ITI","","html-keyboard-response","326","331712","0.0-1.0-441.0","0","0","48668","","null","","","null","48","","","","","","","","","","","","","","","NaN",""
"","S1","","html-keyboard-response","327","331965","0.0-1.0-443.0","0","0","48668","","null","","","null","49","","","","","","","","","","","","","","","",""
"","ISI","","html-keyboard-response","328","332119","0.0-1.0-444.0","0","0","48668","","null","","","null","49","NaN","","","","","","","","","","","","","","",""
"","S2","","html-keyboard-response","329","332372","0.0-1.0-445.0","0","0","48668","","null","","","null","49","","NaN","","","","","","","","","","","","","",""
"","response","","html-keyboard-response","330","332642","0.0-1.0-446.0-0.0","0","0","48668","","269","","","68","49","","","2","49","training","adjacent","DC","4","3","R.jpg","Q.jpg","1","0","0","",""
"","feedback","","html-keyboard-response","331","333645","0.0-1.0-447.0-0.0","0","0","48668","","null","","","null","49","","","","","","","","","","","","","","","",""
"","time_out","","html-keyboard-response","332","335648","0.0-1.0-449.0-0.0","0","0","48668","","null","","","null","49","","","","","","","","","","","","","","","",""
"","ITI","","html-keyboard-response","333","336651","0.0-1.0-450.0","0","0","48668","","null","","","null","49","","","","","","","","","","","","","","","NaN",""
"","S1","","html-keyboard-response","334","336904","0.0-1.0-452.0","0","0","48668","","null","","","null","50","","","","","","","","","","","","","","","",""
"","ISI","","html-keyboard-response","335","337057","0.0-1.0-453.0","0","0","48668","","null","","","null","50","NaN","","","","","","","","","","","","","","",""
"","S2","","html-keyboard-response","336","337311","0.0-1.0-454.0","0","0","48668","","null","","","null","50","","NaN","","","","","","","","","","","","","",""
"","response","","html-keyboard-response","337","337471","0.0-1.0-455.0-0.0","0","0","48668","","158","","","75","50","","","2","50","training","adjacent","ED","5","4","N.jpg","R.jpg","0","0","1","",""
"","feedback","","html-keyboard-response","338","338476","0.0-1.0-456.0-0.0","0","0","48668","","null","","","null","50","","","","","","","","","","","","","","","",""
"","ITI","","html-keyboard-response","339","339479","0.0-1.0-459.0","0","0","48668","","null","","","null","50","","","","","","","","","","","","","","","NaN",""
"","S1","","html-keyboard-response","340","339733","0.0-1.0-461.0","0","0","48668","","null","","","null","51","","","","","","","","","","","","","","","",""
"","ISI","","html-keyboard-response","341","339885","0.0-1.0-462.0","0","0","48668","","null","","","null","51","NaN","","","","","","","","","","","","","","",""
"","S2","","html-keyboard-response","342","340138","0.0-1.0-463.0","0","0","48668","","null","","","null","51","","NaN","","","","","","","","","","","","","",""
"","response","","html-keyboard-response","343","340353","0.0-1.0-464.0-0.0","0","0","48668","","212","","","75","51","","","2","51","training","adjacent","ED","5","4","N.jpg","R.jpg","0","0","1","",""
"","feedback","","html-keyboard-response","344","341357","0.0-1.0-465.0-0.0","0","0","48668","","null","","","null","51","","","","","","","","","","","","","","","",""
"","ITI","","html-keyboard-response","345","342360","0.0-1.0-468.0","0","0","48668","","null","","","null","51","","","","","","","","","","","","","","","NaN",""
"","S1","","html-keyboard-response","346","342613","0.0-1.0-470.0","0","0","48668","","null","","","null","52","","","","","","","","","","","","","","","",""
"","ISI","","html-keyboard-response","347","342766","0.0-1.0-471.0","0","0","48668","","null","","","null","52","NaN","","","","","","","","","","","","","","",""
"","S2","","html-keyboard-response","348","343019","0.0-1.0-472.0","0","0","48668","","null","","","null","52","","NaN","","","","","","","","","","","","","",""
"","response","","html-keyboard-response","349","343380","0.0-1.0-473.0-0.0","0","0","48668","","359","","","68","52","","","2","52","training","adjacent","DC","4","3","R.jpg","Q.jpg","1","0","0","",""
"","feedback","","html-keyboard-response","350","344385","0.0-1.0-474.0-0.0","0","0","48668","","null","","","null","52","","","","","","","","","","","","","","","",""
"","time_out","","html-keyboard-response","351","346388","0.0-1.0-476.0-0.0","0","0","48668","","null","","","null","52","","","","","","","","","","","","","","","",""
"","ITI","","html-keyboard-response","352","347392","0.0-1.0-477.0","0","0","48668","","null","","","null","52","","","","","","","","","","","","","","","NaN",""
"","S1","","html-keyboard-response","353","347646","0.0-1.0-479.0","0","0","48668","","null","","","null","53","","","","","","","","","","","","","","","",""
"","ISI","","html-keyboard-response","354","347798","0.0-1.0-480.0","0","0","48668","","null","","","null","53","NaN","","","","","","","","","","","","","","",""
"","S2","","html-keyboard-response","355","348051","0.0-1.0-481.0","0","0","48668","","null","","","null","53","","NaN","","","","","","","","","","","","","",""
"","response","","html-keyboard-response","356","348354","0.0-1.0-482.0-0.0","0","0","48668","","300","","","75","53","","","2","53","training","adjacent","EF","5","6","N.jpg","L.jpg","0","1","0","",""
"","feedback","","html-keyboard-response","357","349358","0.0-1.0-483.0-0.0","0","0","48668","","null","","","null","53","","","","","","","","","","","","","","","",""
"","time_out","","html-keyboard-response","358","351361","0.0-1.0-485.0-0.0","0","0","48668","","null","","","null","53","","","","","","","","","","","","","","","",""
"","ITI","","html-keyboard-response","359","352364","0.0-1.0-486.0","0","0","48668","","null","","","null","53","","","","","","","","","","","","","","","NaN",""
"","S1","","html-keyboard-response","360","352618","0.0-1.0-488.0","0","0","48668","","null","","","null","54","","","","","","","","","","","","","","","",""
"","ISI","","html-keyboard-response","361","352771","0.0-1.0-489.0","0","0","48668","","null","","","null","54","NaN","","","","","","","","","","","","","","",""
"","S2","","html-keyboard-response","362","353024","0.0-1.0-490.0","0","0","48668","","null","","","null","54","","NaN","","","","","","","","","","","","","",""
"","response","","html-keyboard-response","363","353414","0.0-1.0-491.0-0.0","0","0","48668","","387","","","75","54","","","2","54","training","adjacent","CB","3","2","Q.jpg","M.jpg","0","0","1","",""
"","feedback","","html-keyboard-response","364","354417","0.0-1.0-492.0-0.0","0","0","48668","","null","","","null","54","","","","","","","","","","","","","","","",""
"","ITI","","html-keyboard-response","365","355421","0.0-1.0-495.0","0","0","48668","","null","","","null","54","","","","","","","","","","","","","","","NaN",""
"","S1","","html-keyboard-response","366","355674","0.0-1.0-497.0","0","0","48668","","null","","","null","55","","","","","","","","","","","","","","","",""
"","ISI","","html-keyboard-response","367","355827","0.0-1.0-498.0","0","0","48668","","null","","","null","55","NaN","","","","","","","","","","","","","","",""
"","S2","","html-keyboard-response","368","356081","0.0-1.0-499.0","0","0","48668","","null","","","null","55","","NaN","","","","","","","","","","","","","",""
"","response","","html-keyboard-response","369","356421","0.0-1.0-500.0-0.0","0","0","48668","","337","","","75","55","","","2","55","training","adjacent","AB","1","2","P.jpg","M.jpg","0","1","0","",""
"","feedback","","html-keyboard-response","370","357425","0.0-1.0-501.0-0.0","0","0","48668","","null","","","null","55","","","","","","","","","","","","","","","",""
"","time_out","","html-keyboard-response","371","359429","0.0-1.0-503.0-0.0","0","0","48668","","null","","","null","55","","","","","","","","","","","","","","","",""
"","ITI","","html-keyboard-response","372","360432","0.0-1.0-504.0","0","0","48668","","null","","","null","55","","","","","","","","","","","","","","","NaN",""
"","S1","","html-keyboard-response","373","360686","0.0-1.0-506.0","0","0","48668","","null","","","null","56","","","","","","","","","","","","","","","",""
"","ISI","","html-keyboard-response","374","360839","0.0-1.0-507.0","0","0","48668","","null","","","null","56","NaN","","","","","","","","","","","","","","",""
"","S2","","html-keyboard-response","375","361092","0.0-1.0-508.0","0","0","48668","","null","","","null","56","","NaN","","","","","","","","","","","","","",""
"","response","","html-keyboard-response","376","361472","0.0-1.0-509.0-0.0","0","0","48668","","377","","","75","56","","","2","56","training","adjacent","CB","3","2","Q.jpg","M.jpg","0","0","1","",""
"","feedback","","html-keyboard-response","377","362475","0.0-1.0-510.0-0.0","0","0","48668","","null","","","null","56","","","","","","","","","","","","","","","",""
"","ITI","","html-keyboard-response","378","363479","0.0-1.0-513.0","0","0","48668","","null","","","null","56","","","","","","","","","","","","","","","NaN",""
"","S1","","html-keyboard-response","379","363732","0.0-1.0-515.0","0","0","48668","","null","","","null","57","","","","","","","","","","","","","","","",""
"","ISI","","html-keyboard-response","380","363885","0.0-1.0-516.0","0","0","48668","","null","","","null","57","NaN","","","","","","","","","","","","","","",""
"","S2","","html-keyboard-response","381","364139","0.0-1.0-517.0","0","0","48668","","null","","","null","57","","NaN","","","","","","","","","","","","","",""
"","response","","html-keyboard-response","382","364564","0.0-1.0-518.0-0.0","0","0","48668","","422","","","68","57","","","2","57","training","adjacent","FG","6","7","L.jpg","O.jpg","1","1","1","",""
"","feedback","","html-keyboard-response","383","365567","0.0-1.0-519.0-0.0","0","0","48668","","null","","","null","57","","","","","","","","","","","","","","","",""
"","ITI","","html-keyboard-response","384","366571","0.0-1.0-522.0","0","0","48668","","null","","","null","57","","","","","","","","","","","","","","","NaN",""
"","S1","","html-keyboard-response","385","366824","0.0-1.0-524.0","0","0","48668","","null","","","null","58","","","","","","","","","","","","","","","",""
"","ISI","","html-keyboard-response","386","366977","0.0-1.0-525.0","0","0","48668","","null","","","null","58","NaN","","","","","","","","","","","","","","",""
"","S2","","html-keyboard-response","387","367231","0.0-1.0-526.0","0","0","48668","","null","","","null","58","","NaN","","","","","","","","","","","","","",""
"","response","","html-keyboard-response","388","367721","0.0-1.0-527.0-0.0","0","0","48668","","487","","","68","58","","","2","58","training","adjacent","FE","6","5","L.jpg","N.jpg","1","0","0","",""
"","feedback","","html-keyboard-response","389","368724","0.0-1.0-528.0-0.0","0","0","48668","","null","","","null","58","","","","","","","","","","","","","","","",""
"","time_out","","html-keyboard-response","390","370727","0.0-1.0-530.0-0.0","0","0","48668","","null","","","null","58","","","","","","","","","","","","","","","",""
"","ITI","","html-keyboard-response","391","371731","0.0-1.0-531.0","0","0","48668","","null","","","null","58","","","","","","","","","","","","","","","NaN",""
"","S1","","html-keyboard-response","392","371984","0.0-1.0-533.0","0","0","48668","","null","","","null","59","","","","","","","","","","","","","","","",""
"","ISI","","html-keyboard-response","393","372137","0.0-1.0-534.0","0","0","48668","","null","","","null","59","NaN","","","","","","","","","","","","","","",""
"","S2","","html-keyboard-response","394","372391","0.0-1.0-535.0","0","0","48668","","null","","","null","59","","NaN","","","","","","","","","","","","","",""
"","response","","html-keyboard-response","395","372763","0.0-1.0-536.0-0.0","0","0","48668","","370","","","68","59","","","2","59","training","adjacent","BC","2","3","M.jpg","Q.jpg","1","1","1","",""
"","feedback","","html-keyboard-response","396","373766","0.0-1.0-537.0-0.0","0","0","48668","","null","","","null","59","","","","","","","","","","","","","","","",""
"","ITI","","html-keyboard-response","397","374770","0.0-1.0-540.0","0","0","48668","","null","","","null","59","","","","","","","","","","","","","","","NaN",""
"","S1","","html-keyboard-response","398","375023","0.0-1.0-542.0","0","0","48668","","null","","","null","60","","","","","","","","","","","","","","","",""
"","ISI","","html-keyboard-response","399","375176","0.0-1.0-543.0","0","0","48668","","null","","","null","60","NaN","","","","","","","","","","","","","","",""
"","S2","","html-keyboard-response","400","375430","0.0-1.0-544.0","0","0","48668","","null","","","null","60","","NaN","","","","","","","","","","","","","",""
"","response","","html-keyboard-response","401","375977","0.0-1.0-545.0-0.0","0","0","48668","","546","","","68","60","","","2","60","training","adjacent","EF","5","6","N.jpg","L.jpg","1","1","1","",""
"","feedback","","html-keyboard-response","402","376992","0.0-1.0-546.0-0.0","0","0","48668","","null","","","null","60","","","","","","","","","","","","","","","",""
"","ITI","","html-keyboard-response","403","377996","0.0-1.0-549.0","0","0","48668","","null","","","null","60","","","","","","","","","","","","","","","NaN",""
"","S1","","html-keyboard-response","404","378250","0.0-1.0-551.0","0","0","48668","","null","","","null","61","","","","","","","","","","","","","","","",""
"","ISI","","html-keyboard-response","405","378403","0.0-1.0-552.0","0","0","48668","","null","","","null","61","NaN","","","","","","","","","","","","","","",""
"","S2","","html-keyboard-response","406","378656","0.0-1.0-553.0","0","0","48668","","null","","","null","61","","NaN","","","","","","","","","","","","","",""
"","response","","html-keyboard-response","407","379206","0.0-1.0-554.0-0.0","0","0","48668","","548","","","68","61","","","2","61","training","adjacent","BA","2","1","M.jpg","P.jpg","1","0","0","",""
"","feedback","","html-keyboard-response","408","380211","0.0-1.0-555.0-0.0","0","0","48668","","null","","","null","61","","","","","","","","","","","","","","","",""
"","time_out","","html-keyboard-response","409","382218","0.0-1.0-557.0-0.0","0","0","48668","","null","","","null","61","","","","","","","","","","","","","","","",""
"","ITI","","html-keyboard-response","410","383221","0.0-1.0-558.0","0","0","48668","","null","","","null","61","","","","","","","","","","","","","","","NaN",""
"","S1","","html-keyboard-response","411","383474","0.0-1.0-560.0","0","0","48668","","null","","","null","62","","","","","","","","","","","","","","","",""
"","ISI","","html-keyboard-response","412","383634","0.0-1.0-561.0","0","0","48668","","null","","","null","62","NaN","","","","","","","","","","","","","","",""
"","S2","","html-keyboard-response","413","383888","0.0-1.0-562.0","0","0","48668","","null","","","null","62","","NaN","","","","","","","","","","","","","",""
"","response","","html-keyboard-response","414","384252","0.0-1.0-563.0-0.0","0","0","48668","","361","","","75","62","","","2","62","training","adjacent","BC","2","3","M.jpg","Q.jpg","0","1","0","",""
"","feedback","","html-keyboard-response","415","385267","0.0-1.0-564.0-0.0","0","0","48668","","null","","","null","62","","","","","","","","","","","","","","","",""
"","time_out","","html-keyboard-response","416","387271","0.0-1.0-566.0-0.0","0","0","48668","","null","","","null","62","","","","","","","","","","","","","","","",""
"","ITI","","html-keyboard-response","417","388274","0.0-1.0-567.0","0","0","48668","","null","","","null","62","","","","","","","","","","","","","","","NaN",""
"","S1","","html-keyboard-response","418","388528","0.0-1.0-569.0","0","0","48668","","null","","","null","63","","","","","","","","","","","","","","","",""
"","ISI","","html-keyboard-response","419","388681","0.0-1.0-570.0","0","0","48668","","null","","","null","63","NaN","","","","","","","","","","","","","","",""
"","S2","","html-keyboard-response","420","388934","0.0-1.0-571.0","0","0","48668","","null","","","null","63","","NaN","","","","","","","","","","","","","",""
"","response","","html-keyboard-response","421","389455","0.0-1.0-572.0-0.0","0","0","48668","","519","","","75","63","","","2","63","training","adjacent","BC","2","3","M.jpg","Q.jpg","0","1","0","",""
"","feedback","","html-keyboard-response","422","390457","0.0-1.0-573.0-0.0","0","0","48668","","null","","","null","63","","","","","","","","","","","","","","","",""
"","time_out","","html-keyboard-response","423","392461","0.0-1.0-575.0-0.0","0","0","48668","","null","","","null","63","","","","","","","","","","","","","","","",""
"","ITI","","html-keyboard-response","424","393464","0.0-1.0-576.0","0","0","48668","","null","","","null","63","","","","","","","","","","","","","","","NaN",""
"","S1","","html-keyboard-response","425","393718","0.0-1.0-578.0","0","0","48668","","null","","","null","64","","","","","","","","","","","","","","","",""
"","ISI","","html-keyboard-response","426","393870","0.0-1.0-579.0","0","0","48668","","null","","","null","64","NaN","","","","","","","","","","","","","","",""
"","S2","","html-keyboard-response","427","394124","0.0-1.0-580.0","0","0","48668","","null","","","null","64","","NaN","","","","","","","","","","","","","",""
"","response","","html-keyboard-response","428","394474","0.0-1.0-581.0-0.0","0","0","48668","","347","","","68","64","","","2","64","training","adjacent","DE","4","5","R.jpg","N.jpg","1","1","1","",""
"","feedback","","html-keyboard-response","429","395477","0.0-1.0-582.0-0.0","0","0","48668","","null","","","null","64","","","","","","","","","","","","","","","",""
"","ITI","","html-keyboard-response","430","396480","0.0-1.0-585.0","0","0","48668","","null","","","null","64","","","","","","","","","","","","","","","NaN",""
"","S1","","html-keyboard-response","431","396733","0.0-1.0-587.0","0","0","48668","","null","","","null","65","","","","","","","","","","","","","","","",""
"","ISI","","html-keyboard-response","432","396886","0.0-1.0-588.0","0","0","48668","","null","","","null","65","NaN","","","","","","","","","","","","","","",""
"","S2","","html-keyboard-response","433","397140","0.0-1.0-589.0","0","0","48668","","null","","","null","65","","NaN","","","","","","","","","","","","","",""
"","response","","html-keyboard-response","434","398013","0.0-1.0-590.0-0.0","0","0","48668","","871","","","75","65","","","2","65","training","adjacent","BC","2","3","M.jpg","Q.jpg","0","1","0","",""
"","feedback","","html-keyboard-response","435","399016","0.0-1.0-591.0-0.0","0","0","48668","","null","","","null","65","","","","","","","","","","","","","","","",""
"","time_out","","html-keyboard-response","436","401018","0.0-1.0-593.0-0.0","0","0","48668","","null","","","null","65","","","","","","","","","","","","","","","",""
"","ITI","","html-keyboard-response","437","402021","0.0-1.0-594.0","0","0","48668","","null","","","null","65","","","","","","","","","","","","","","","NaN",""
"","S1","","html-keyboard-response","438","402275","0.0-1.0-596.0","0","0","48668","","null","","","null","66","","","","","","","","","","","","","","","",""
"","ISI","","html-keyboard-response","439","402427","0.0-1.0-597.0","0","0","48668","","null","","","null","66","NaN","","","","","","","","","","","","","","",""
"","S2","","html-keyboard-response","440","402682","0.0-1.0-598.0","0","0","48668","","null","","","null","66","","NaN","","","","","","","","","","","","","",""
"","response","","html-keyboard-response","441","403028","0.0-1.0-599.0-0.0","0","0","48668","","343","","","75","66","","","2","66","training","adjacent","GF","7","6","O.jpg","L.jpg","0","0","1","",""
"","feedback","","html-keyboard-response","442","404032","0.0-1.0-600.0-0.0","0","0","48668","","null","","","null","66","","","","","","","","","","","","","","","",""
"","ITI","","html-keyboard-response","443","405035","0.0-1.0-603.0","0","0","48668","","null","","","null","66","","","","","","","","","","","","","","","NaN",""
"","S1","","html-keyboard-response","444","405289","0.0-1.0-605.0","0","0","48668","","null","","","null","67","","","","","","","","","","","","","","","",""
"","ISI","","html-keyboard-response","445","405442","0.0-1.0-606.0","0","0","48668","","null","","","null","67","NaN","","","","","","","","","","","","","","",""
"","S2","","html-keyboard-response","446","405696","0.0-1.0-607.0","0","0","48668","","null","","","null","67","","NaN","","","","","","","","","","","","","",""
"","response","","html-keyboard-response","447","406049","0.0-1.0-608.0-0.0","0","0","48668","","351","","","75","67","","","2","67","training","adjacent","AB","1","2","P.jpg","M.jpg","0","1","0","",""
"","feedback","","html-keyboard-response","448","407052","0.0-1.0-609.0-0.0","0","0","48668","","null","","","null","67","","","","","","","","","","","","","","","",""
"","time_out","","html-keyboard-response","449","409055","0.0-1.0-611.0-0.0","0","0","48668","","null","","","null","67","","","","","","","","","","","","","","","",""
"","ITI","","html-keyboard-response","450","410059","0.0-1.0-612.0","0","0","48668","","null","","","null","67","","","","","","","","","","","","","","","NaN",""
"","S1","","html-keyboard-response","451","410313","0.0-1.0-614.0","0","0","48668","","null","","","null","68","","","","","","","","","","","","","","","",""
"","ISI","","html-keyboard-response","452","410466","0.0-1.0-615.0","0","0","48668","","null","","","null","68","NaN","","","","","","","","","","","","","","",""
"","S2","","html-keyboard-response","453","410719","0.0-1.0-616.0","0","0","48668","","null","","","null","68","","NaN","","","","","","","","","","","","","",""
"","response","","html-keyboard-response","454","410929","0.0-1.0-617.0-0.0","0","0","48668","","207","","","75","68","","","2","68","training","adjacent","EF","5","6","N.jpg","L.jpg","0","1","0","",""
"","feedback","","html-keyboard-response","455","411933","0.0-1.0-618.0-0.0","0","0","48668","","null","","","null","68","","","","","","","","","","","","","","","",""
"","time_out","","html-keyboard-response","456","413936","0.0-1.0-620.0-0.0","0","0","48668","","null","","","null","68","","","","","","","","","","","","","","","",""
"","ITI","","html-keyboard-response","457","414938","0.0-1.0-621.0","0","0","48668","","null","","","null","68","","","","","","","","","","","","","","","NaN",""
"","S1","","html-keyboard-response","458","415192","0.0-1.0-623.0","0","0","48668","","null","","","null","69","","","","","","","","","","","","","","","",""
"","ISI","","html-keyboard-response","459","415345","0.0-1.0-624.0","0","0","48668","","null","","","null","69","NaN","","","","","","","","","","","","","","",""
"","S2","","html-keyboard-response","460","415598","0.0-1.0-625.0","0","0","48668","","null","","","null","69","","NaN","","","","","","","","","","","","","",""
"","response","","html-keyboard-response","461","415843","0.0-1.0-626.0-0.0","0","0","48668","","242","","","75","69","","","2","69","training","adjacent","GF","7","6","O.jpg","L.jpg","0","0","1","",""
"","feedback","","html-keyboard-response","462","416847","0.0-1.0-627.0-0.0","0","0","48668","","null","","","null","69","","","","","","","","","","","","","","","",""
"","ITI","","html-keyboard-response","463","417850","0.0-1.0-630.0","0","0","48668","","null","","","null","69","","","","","","","","","","","","","","","NaN",""
"","S1","","html-keyboard-response","464","418103","0.0-1.0-632.0","0","0","48668","","null","","","null","70","","","","","","","","","","","","","","","",""
"","ISI","","html-keyboard-response","465","418256","0.0-1.0-633.0","0","0","48668","","null","","","null","70","NaN","","","","","","","","","","","","","","",""
"","S2","","html-keyboard-response","466","418510","0.0-1.0-634.0","0","0","48668","","null","","","null","70","","NaN","","","","","","","","","","","","","",""
"","response","","html-keyboard-response","467","418944","0.0-1.0-635.0-0.0","0","0","48668","","432","","","68","70","","","2","70","training","adjacent","FG","6","7","L.jpg","O.jpg","1","1","1","",""
"","feedback","","html-keyboard-response","468","419948","0.0-1.0-636.0-0.0","0","0","48668","","null","","","null","70","","","","","","","","","","","","","","","",""
"","ITI","","html-keyboard-response","469","420952","0.0-1.0-639.0","0","0","48668","","null","","","null","70","","","","","","","","","","","","","","","NaN",""
"","S1","","html-keyboard-response","470","421205","0.0-1.0-641.0","0","0","48668","","null","","","null","71","","","","","","","","","","","","","","","",""
"","ISI","","html-keyboard-response","471","421358","0.0-1.0-642.0","0","0","48668","","null","","","null","71","NaN","","","","","","","","","","","","","","",""
"","S2","","html-keyboard-response","472","421611","0.0-1.0-643.0","0","0","48668","","null","","","null","71","","NaN","","","","","","","","","","","","","",""
"","response","","html-keyboard-response","473","422016","0.0-1.0-644.0-0.0","0","0","48668","","404","","","68","71","","","2","71","training","adjacent","BA","2","1","M.jpg","P.jpg","1","0","0","",""
"","feedback","","html-keyboard-response","474","423020","0.0-1.0-645.0-0.0","0","0","48668","","null","","","null","71","","","","","","","","","","","","","","","",""
"","time_out","","html-keyboard-response","475","425023","0.0-1.0-647.0-0.0","0","0","48668","","null","","","null","71","","","","","","","","","","","","","","","",""
"","ITI","","html-keyboard-response","476","426026","0.0-1.0-648.0","0","0","48668","","null","","","null","71","","","","","","","","","","","","","","","NaN",""
"","S1","","html-keyboard-response","477","426279","0.0-1.0-650.0","0","0","48668","","null","","","null","72","","","","","","","","","","","","","","","",""
"","ISI","","html-keyboard-response","478","426432","0.0-1.0-651.0","0","0","48668","","null","","","null","72","NaN","","","","","","","","","","","","","","",""
"","S2","","html-keyboard-response","479","426685","0.0-1.0-652.0","0","0","48668","","null","","","null","72","","NaN","","","","","","","","","","","","","",""
"","response","","html-keyboard-response","480","427469","0.0-1.0-653.0-0.0","0","0","48668","","781","","","75","72","","","2","72","training","adjacent","DE","4","5","R.jpg","N.jpg","0","1","0","",""
"","feedback","","html-keyboard-response","481","428472","0.0-1.0-654.0-0.0","0","0","48668","","null","","","null","72","","","","","","","","","","","","","","","",""
"","time_out","","html-keyboard-response","482","430475","0.0-1.0-656.0-0.0","0","0","48668","","null","","","null","72","","","","","","","","","","","","","","","",""
"","ITI","","html-keyboard-response","483","431478","0.0-1.0-657.0","0","0","48668","","null","","","null","72","","","","","","","","","","","","","","","NaN",""
"","S1","","html-keyboard-response","484","431731","0.0-1.0-659.0","0","0","48668","","null","","","null","73","","","","","","","","","","","","","","","",""
"","ISI","","html-keyboard-response","485","431884","0.0-1.0-660.0","0","0","48668","","null","","","null","73","NaN","","","","","","","","","","","","","","",""
"","S2","","html-keyboard-response","486","432136","0.0-1.0-661.0","0","0","48668","","null","","","null","73","","NaN","","","","","","","","","","","","","",""
"","response","","html-keyboard-response","487","432417","0.0-1.0-662.0-0.0","0","0","48668","","278","","","75","73","","","2","73","training","adjacent","CD","3","4","Q.jpg","R.jpg","0","1","0","",""
"","feedback","","html-keyboard-response","488","433420","0.0-1.0-663.0-0.0","0","0","48668","","null","","","null","73","","","","","","","","","","","","","","","",""
"","time_out","","html-keyboard-response","489","435424","0.0-1.0-665.0-0.0","0","0","48668","","null","","","null","73","","","","","","","","","","","","","","","",""
"","ITI","","html-keyboard-response","490","436427","0.0-1.0-666.0","0","0","48668","","null","","","null","73","","","","","","","","","","","","","","","NaN",""
"","S1","","html-keyboard-response","491","436680","0.0-1.0-668.0","0","0","48668","","null","","","null","74","","","","","","","","","","","","","","","",""
"","ISI","","html-keyboard-response","492","436833","0.0-1.0-669.0","0","0","48668","","null","","","null","74","NaN","","","","","","","","","","","","","","",""
"","S2","","html-keyboard-response","493","437086","0.0-1.0-670.0","0","0","48668","","null","","","null","74","","NaN","","","","","","","","","","","","","",""
"","response","","html-keyboard-response","494","437356","0.0-1.0-671.0-0.0","0","0","48668","","267","","","68","74","","","2","74","training","adjacent","DE","4","5","R.jpg","N.jpg","1","1","1","",""
"","feedback","","html-keyboard-response","495","438359","0.0-1.0-672.0-0.0","0","0","48668","","null","","","null","74","","","","","","","","","","","","","","","",""
"","ITI","","html-keyboard-response","496","439362","0.0-1.0-675.0","0","0","48668","","null","","","null","74","","","","","","","","","","","","","","","NaN",""
"","S1","","html-keyboard-response","497","439614","0.0-1.0-677.0","0","0","48668","","null","","","null","75","","","","","","","","","","","","","","","",""
"","ISI","","html-keyboard-response","498","439768","0.0-1.0-678.0","0","0","48668","","null","","","null","75","NaN","","","","","","","","","","","","","","",""
"","S2","","html-keyboard-response","499","440020","0.0-1.0-679.0","0","0","48668","","null","","","null","75","","NaN","","","","","","","","","","","","","",""
"","response","","html-keyboard-response","500","440686","0.0-1.0-680.0-0.0","0","0","48668","","663","","","75","75","","","2","75","training","adjacent","CD","3","4","Q.jpg","R.jpg","0","1","0","",""
"","feedback","","html-keyboard-response","501","441690","0.0-1.0-681.0-0.0","0","0","48668","","null","","","null","75","","","","","","","","","","","","","","","",""
"","time_out","","html-keyboard-response","502","443693","0.0-1.0-683.0-0.0","0","0","48668","","null","","","null","75","","","","","","","","","","","","","","","",""
"","ITI","","html-keyboard-response","503","444696","0.0-1.0-684.0","0","0","48668","","null","","","null","75","","","","","","","","","","","","","","","NaN",""
"","S1","","html-keyboard-response","504","444949","0.0-1.0-686.0","0","0","48668","","null","","","null","76","","","","","","","","","","","","","","","",""
"","ISI","","html-keyboard-response","505","445103","0.0-1.0-687.0","0","0","48668","","null","","","null","76","NaN","","","","","","","","","","","","","","",""
"","S2","","html-keyboard-response","506","445356","0.0-1.0-688.0","0","0","48668","","null","","","null","76","","NaN","","","","","","","","","","","","","",""
"","response","","html-keyboard-response","507","445766","0.0-1.0-689.0-0.0","0","0","48668","","407","","","75","76","","","2","76","training","adjacent","AB","1","2","P.jpg","M.jpg","0","1","0","",""
"","feedback","","html-keyboard-response","508","446781","0.0-1.0-690.0-0.0","0","0","48668","","null","","","null","76","","","","","","","","","","","","","","","",""
"","time_out","","html-keyboard-response","509","448785","0.0-1.0-692.0-0.0","0","0","48668","","null","","","null","76","","","","","","","","","","","","","","","",""
"","ITI","","html-keyboard-response","510","449789","0.0-1.0-693.0","0","0","48668","","null","","","null","76","","","","","","","","","","","","","","","NaN",""
"","S1","","html-keyboard-response","511","450055","0.0-1.0-695.0","0","0","48668","","null","","","null","77","","","","","","","","","","","","","","","",""
"","ISI","","html-keyboard-response","512","450211","0.0-1.0-696.0","0","0","48668","","null","","","null","77","NaN","","","","","","","","","","","","","","",""
"","S2","","html-keyboard-response","513","450465","0.0-1.0-697.0","0","0","48668","","null","","","null","77","","NaN","","","","","","","","","","","","","",""
"","response","","html-keyboard-response","514","451036","0.0-1.0-698.0-0.0","0","0","48668","","570","","","68","77","","","2","77","training","adjacent","BA","2","1","M.jpg","P.jpg","1","0","0","",""
"","feedback","","html-keyboard-response","515","452040","0.0-1.0-699.0-0.0","0","0","48668","","null","","","null","77","","","","","","","","","","","","","","","",""
"","time_out","","html-keyboard-response","516","454044","0.0-1.0-701.0-0.0","0","0","48668","","null","","","null","77","","","","","","","","","","","","","","","",""
"","ITI","","html-keyboard-response","517","455047","0.0-1.0-702.0","0","0","48668","","null","","","null","77","","","","","","","","","","","","","","","NaN",""
"","S1","","html-keyboard-response","518","455301","0.0-1.0-704.0","0","0","48668","","null","","","null","78","","","","","","","","","","","","","","","",""
"","ISI","","html-keyboard-response","519","455454","0.0-1.0-705.0","0","0","48668","","null","","","null","78","NaN","","","","","","","","","","","","","","",""
"","S2","","html-keyboard-response","520","455707","0.0-1.0-706.0","0","0","48668","","null","","","null","78","","NaN","","","","","","","","","","","","","",""
"","response","","html-keyboard-response","521","456302","0.0-1.0-707.0-0.0","0","0","48668","","593","","","68","78","","","2","78","training","adjacent","GF","7","6","O.jpg","L.jpg","1","0","0","",""
"","feedback","","html-keyboard-response","522","457306","0.0-1.0-708.0-0.0","0","0","48668","","null","","","null","78","","","","","","","","","","","","","","","",""
"","time_out","","html-keyboard-response","523","459309","0.0-1.0-710.0-0.0","0","0","48668","","null","","","null","78","","","","","","","","","","","","","","","",""
"","ITI","","html-keyboard-response","524","460313","0.0-1.0-711.0","0","0","48668","","null","","","null","78","","","","","","","","","","","","","","","NaN",""
"","S1","","html-keyboard-response","525","460566","0.0-1.0-713.0","0","0","48668","","null","","","null","79","","","","","","","","","","","","","","","",""
"","ISI","","html-keyboard-response","526","460720","0.0-1.0-714.0","0","0","48668","","null","","","null","79","NaN","","","","","","","","","","","","","","",""
"","S2","","html-keyboard-response","527","460973","0.0-1.0-715.0","0","0","48668","","null","","","null","79","","NaN","","","","","","","","","","","","","",""
"","response","","html-keyboard-response","528","461483","0.0-1.0-716.0-0.0","0","0","48668","","508","","","68","79","","","2","79","training","adjacent","GF","7","6","O.jpg","L.jpg","1","0","0","",""
"","feedback","","html-keyboard-response","529","462485","0.0-1.0-717.0-0.0","0","0","48668","","null","","","null","79","","","","","","","","","","","","","","","",""
"","time_out","","html-keyboard-response","530","464489","0.0-1.0-719.0-0.0","0","0","48668","","null","","","null","79","","","","","","","","","","","","","","","",""
"","ITI","","html-keyboard-response","531","465491","0.0-1.0-720.0","0","0","48668","","null","","","null","79","","","","","","","","","","","","","","","NaN",""
"","S1","","html-keyboard-response","532","465745","0.0-1.0-722.0","0","0","48668","","null","","","null","80","","","","","","","","","","","","","","","",""
"","ISI","","html-keyboard-response","533","465897","0.0-1.0-723.0","0","0","48668","","null","","","null","80","NaN","","","","","","","","","","","","","","",""
"","S2","","html-keyboard-response","534","466151","0.0-1.0-724.0","0","0","48668","","null","","","null","80","","NaN","","","","","","","","","","","","","",""
"","response","","html-keyboard-response","535","466405","0.0-1.0-725.0-0.0","0","0","48668","","251","","","75","80","","","2","80","training","adjacent","CD","3","4","Q.jpg","R.jpg","0","1","0","",""
"","feedback","","html-keyboard-response","536","467408","0.0-1.0-726.0-0.0","0","0","48668","","null","","","null","80","","","","","","","","","","","","","","","",""
"","time_out","","html-keyboard-response","537","469413","0.0-1.0-728.0-0.0","0","0","48668","","null","","","null","80","","","","","","","","","","","","","","","",""
"","ITI","","html-keyboard-response","538","470416","0.0-1.0-729.0","0","0","48668","","null","","","null","80","","","","","","","","","","","","","","","NaN",""
"","S1","","html-keyboard-response","539","470675","0.0-1.0-731.0","0","0","48668","","null","","","null","81","","","","","","","","","","","","","","","",""
"","ISI","","html-keyboard-response","540","470828","0.0-1.0-732.0","0","0","48668","","null","","","null","81","NaN","","","","","","","","","","","","","","",""
"","S2","","html-keyboard-response","541","471081","0.0-1.0-733.0","0","0","48668","","null","","","null","81","","NaN","","","","","","","","","","","","","",""
"","response","","html-keyboard-response","542","471353","0.0-1.0-734.0-0.0","0","0","48668","","269","","","68","81","","","2","81","training","adjacent","FE","6","5","L.jpg","N.jpg","1","0","0","",""
"","feedback","","html-keyboard-response","543","472357","0.0-1.0-735.0-0.0","0","0","48668","","null","","","null","81","","","","","","","","","","","","","","","",""
"","time_out","","html-keyboard-response","544","474361","0.0-1.0-737.0-0.0","0","0","48668","","null","","","null","81","","","","","","","","","","","","","","","",""
"","ITI","","html-keyboard-response","545","475364","0.0-1.0-738.0","0","0","48668","","null","","","null","81","","","","","","","","","","","","","","","NaN",""
"","S1","","html-keyboard-response","546","475618","0.0-1.0-740.0","0","0","48668","","null","","","null","82","","","","","","","","","","","","","","","",""
"","ISI","","html-keyboard-response","547","475771","0.0-1.0-741.0","0","0","48668","","null","","","null","82","NaN","","","","","","","","","","","","","","",""
"","S2","","html-keyboard-response","548","476035","0.0-1.0-742.0","0","0","48668","","null","","","null","82","","NaN","","","","","","","","","","","","","",""
"","response","","html-keyboard-response","549","476720","0.0-1.0-743.0-0.0","0","0","48668","","683","","","75","82","","","2","82","training","adjacent","FG","6","7","L.jpg","O.jpg","0","1","0","",""
"","feedback","","html-keyboard-response","550","477724","0.0-1.0-744.0-0.0","0","0","48668","","null","","","null","82","","","","","","","","","","","","","","","",""
"","time_out","","html-keyboard-response","551","479729","0.0-1.0-746.0-0.0","0","0","48668","","null","","","null","82","","","","","","","","","","","","","","","",""
"","ITI","","html-keyboard-response","552","480733","0.0-1.0-747.0","0","0","48668","","null","","","null","82","","","","","","","","","","","","","","","NaN",""
"","S1","","html-keyboard-response","553","480986","0.0-1.0-749.0","0","0","48668","","null","","","null","83","","","","","","","","","","","","","","","",""
"","ISI","","html-keyboard-response","554","481139","0.0-1.0-750.0","0","0","48668","","null","","","null","83","NaN","","","","","","","","","","","","","","",""
"","S2","","html-keyboard-response","555","481392","0.0-1.0-751.0","0","0","48668","","null","","","null","83","","NaN","","","","","","","","","","","","","",""
"","response","","html-keyboard-response","556","481679","0.0-1.0-752.0-0.0","0","0","48668","","285","","","68","83","","","2","83","training","adjacent","DC","4","3","R.jpg","Q.jpg","1","0","0","",""
"","feedback","","html-keyboard-response","557","482683","0.0-1.0-753.0-0.0","0","0","48668","","null","","","null","83","","","","","","","","","","","","","","","",""
"","time_out","","html-keyboard-response","558","484687","0.0-1.0-755.0-0.0","0","0","48668","","null","","","null","83","","","","","","","","","","","","","","","",""
"","ITI","","html-keyboard-response","559","485691","0.0-1.0-756.0","0","0","48668","","null","","","null","83","","","","","","","","","","","","","","","NaN",""
"","S1","","html-keyboard-response","560","485945","0.0-1.0-758.0","0","0","48668","","null","","","null","84","","","","","","","","","","","","","","","",""
"","ISI","","html-keyboard-response","561","486098","0.0-1.0-759.0","0","0","48668","","null","","","null","84","NaN","","","","","","","","","","","","","","",""
"","S2","","html-keyboard-response","562","486352","0.0-1.0-760.0","0","0","48668","","null","","","null","84","","NaN","","","","","","","","","","","","","",""
"","response","","html-keyboard-response","563","486923","0.0-1.0-761.0-0.0","0","0","48668","","568","","","75","84","","","2","84","training","adjacent","BA","2","1","M.jpg","P.jpg","0","0","1","",""
"","feedback","","html-keyboard-response","564","487927","0.0-1.0-762.0-0.0","0","0","48668","","null","","","null","84","","","","","","","","","","","","","","","",""
"","ITI","","html-keyboard-response","565","488931","0.0-1.0-765.0","0","0","48668","","null","","","null","84","","","","","","","","","","","","","","","NaN",""
"","S1","","html-keyboard-response","566","489184","0.0-1.0-767.0","0","0","48668","","null","","","null","85","","","","","","","","","","","","","","","",""
"","ISI","","html-keyboard-response","567","489338","0.0-1.0-768.0","0","0","48668","","null","","","null","85","NaN","","","","","","","","","","","","","","",""
"","S2","","html-keyboard-response","568","489591","0.0-1.0-769.0","0","0","48668","","null","","","null","85","","NaN","","","","","","","","","","","","","",""
"","response","","html-keyboard-response","569","490014","0.0-1.0-770.0-0.0","0","0","48668","","420","","","68","85","","","2","85","training","adjacent","ED","5","4","N.jpg","R.jpg","1","0","0","",""
"","feedback","","html-keyboard-response","570","491018","0.0-1.0-771.0-0.0","0","0","48668","","null","","","null","85","","","","","","","","","","","","","","","",""
"","time_out","","html-keyboard-response","571","493022","0.0-1.0-773.0-0.0","0","0","48668","","null","","","null","85","","","","","","","","","","","","","","","",""
"","ITI","","html-keyboard-response","572","494026","0.0-1.0-774.0","0","0","48668","","null","","","null","85","","","","","","","","","","","","","","","NaN",""
"","S1","","html-keyboard-response","573","494279","0.0-1.0-776.0","0","0","48668","","null","","","null","86","","","","","","","","","","","","","","","",""
"","ISI","","html-keyboard-response","574","494437","0.0-1.0-777.0","0","0","48668","","null","","","null","86","NaN","","","","","","","","","","","","","","",""
"","S2","","html-keyboard-response","575","494701","0.0-1.0-778.0","0","0","48668","","null","","","null","86","","NaN","","","","","","","","","","","","","",""
"","response","","html-keyboard-response","576","495255","0.0-1.0-779.0-0.0","0","0","48668","","552","","","68","86","","","2","86","training","adjacent","DE","4","5","R.jpg","N.jpg","1","1","1","",""
"","feedback","","html-keyboard-response","577","496260","0.0-1.0-780.0-0.0","0","0","48668","","null","","","null","86","","","","","","","","","","","","","","","",""
"","ITI","","html-keyboard-response","578","497263","0.0-1.0-783.0","0","0","48668","","null","","","null","86","","","","","","","","","","","","","","","NaN",""
"","S1","","html-keyboard-response","579","497517","0.0-1.0-785.0","0","0","48668","","null","","","null","87","","","","","","","","","","","","","","","",""
"","ISI","","html-keyboard-response","580","497669","0.0-1.0-786.0","0","0","48668","","null","","","null","87","NaN","","","","","","","","","","","","","","",""
"","S2","","html-keyboard-response","581","497922","0.0-1.0-787.0","0","0","48668","","null","","","null","87","","NaN","","","","","","","","","","","","","",""
