"success","ttype","start_time","trial_type","trial_index","time_elapsed","internal_node_id","warning","missed_checkup","PID","view_history","rt","responses","repeat_instructions","key_press","index","keypress_isi","keypress_S2","block","trial_num","phase","group_type","pair_type","S1_stim","S2_stim","S1_img","S2_img","S1_chosen","S1_higher","accuracy","keypress_iti","total_bonus_tally"
"true","full_screen","d04132023hr1412","fullscreen","0","8113","0.0-0.0","0","0","13259","","","","","","","","","","","","","","","","","","","","","",""
"","instructions","","instructions","1","95589","0.0-1.0-0.0-0.0","0","0","13259","[{""page_index"":0,""viewing_time"":9257},{""page_index"":1,""viewing_time"":23527},{""page_index"":2,""viewing_time"":53149},{""page_index"":3,""viewing_time"":1542}]","87475","","","","","","","","","","","","","","","","","","","",""
"","comprehension_check","","survey-multi-choice","2","113912","0.0-1.0-0.0-1.0","0","0","13259","","18319","{""Q0"":""True"",""Q1"":""D"",""Q2"":""Only when the screen 'MAKE A CHOICE' is shown"",""Q3"":""Green mark"",""Q4"":""either D or K""}","1","","","","","","","","","","","","","","","","","",""
"","missed_instruction_checkup","","html-keyboard-response","3","116098","0.0-1.0-0.0-2.0-0.0","0","1","13259","","2183","","","32","","","","","","","","","","","","","","","","",""
"","instructions","","instructions","4","128863","0.0-1.0-0.1-0.1","0","0","13259","[{""page_index"":0,""viewing_time"":4853},{""page_index"":1,""viewing_time"":5914},{""page_index"":2,""viewing_time"":984},{""page_index"":3,""viewing_time"":1012}]","12763","","","","","","","","","","","","","","","","","","","",""
"","comprehension_check","","survey-multi-choice","5","140594","0.0-1.0-0.1-1.1","0","0","13259","","11726","{""Q0"":""True"",""Q1"":""K"",""Q2"":""Only when the screen 'MAKE A CHOICE' is shown"",""Q3"":""Green mark"",""Q4"":""either D or K""}","1","","","","","","","","","","","","","","","","","",""
"","missed_instruction_checkup","","html-keyboard-response","6","143351","0.0-1.0-0.1-2.1-0.1","0","1","13259","","2756","","","32","","","","","","","","","","","","","","","","",""
"","instructions","","instructions","7","156990","0.0-1.0-0.2-0.2","0","0","13259","[{""page_index"":0,""viewing_time"":4390},{""page_index"":1,""viewing_time"":3398},{""page_index"":2,""viewing_time"":4669},{""page_index"":3,""viewing_time"":1181}]","13638","","","","","","","","","","","","","","","","","","","",""
"","comprehension_check","","survey-multi-choice","8","172769","0.0-1.0-0.2-1.2","0","0","13259","","15772","{""Q0"":""True"",""Q1"":""K"",""Q2"":""Once the second image appears and while the screen 'MAKE A CHOICE' is shown"",""Q3"":""Green mark"",""Q4"":""either D or K""}","0","","","","","","","","","","","","","","","","","",""
"","start_exp","","html-keyboard-response","9","174910","0.0-1.0-1.0","0","0","13259","","2140","","","32","","","","","","","","","","","","","","","","",""
"","S1","","html-keyboard-response","10","175161","0.0-1.0-2.0","0","0","13259","","null","","","null","0","","","","","","","","","","","","","","","",""
"","ISI","","html-keyboard-response","11","176163","0.0-1.0-3.0","0","0","13259","","null","","","null","0","NaN","","","","","","","","","","","","","","",""
"","S2","","html-keyboard-response","12","176415","0.0-1.0-4.0","0","0","13259","","null","","","null","0","","NaN","","","","","","","","","","","","","",""
"","response","","html-keyboard-response","13","178167","0.0-1.0-5.0-0.0","0","0","13259","","null","","","null","0","","","1","0","training","adjacent","CB","3","2","O.jpg","N.jpg","NaN","0","0","",""
"","too_slow_prompt","","html-keyboard-response","14","179168","0.0-1.0-7.0-0.0","1","0","13259","","null","","","null","","","","","","","","","","","","","","","","",""
"","time_out","","html-keyboard-response","15","181170","0.0-1.0-8.0-0.0","0","0","13259","","null","","","null","0","","","","","","","","","","","","","","","",""
"","ITI","","html-keyboard-response","16","182172","0.0-1.0-9.0","0","0","13259","","null","","","null","0","","","","","","","","","","","","","","","NaN",""
"","S1","","html-keyboard-response","17","182423","0.0-1.0-11.0","0","0","13259","","null","","","null","1","","","","","","","","","","","","","","","",""
"","ISI","","html-keyboard-response","18","183425","0.0-1.0-12.0","0","0","13259","","null","","","null","1","NaN","","","","","","","","","","","","","","",""
"","S2","","html-keyboard-response","19","183676","0.0-1.0-13.0","0","0","13259","","null","","","null","1","","NaN","","","","","","","","","","","","","",""
"","response","","html-keyboard-response","20","184010","0.0-1.0-14.0-0.0","0","0","13259","","332","","","75","1","","","1","1","training","adjacent","CB","3","2","O.jpg","N.jpg","1","0","0","",""
"","feedback","","html-keyboard-response","21","185012","0.0-1.0-15.0-0.0","0","0","13259","","null","","","null","1","","","","","","","","","","","","","","","",""
"","time_out","","html-keyboard-response","22","187013","0.0-1.0-17.0-0.0","0","0","13259","","null","","","null","1","","","","","","","","","","","","","","","",""
"","ITI","","html-keyboard-response","23","188015","0.0-1.0-18.0","0","0","13259","","null","","","null","1","","","","","","","","","","","","","","","NaN",""
"","S1","","html-keyboard-response","24","188265","0.0-1.0-20.0","0","0","13259","","null","","","null","2","","","","","","","","","","","","","","","",""
"","ISI","","html-keyboard-response","25","189266","0.0-1.0-21.0","0","0","13259","","null","","","null","2","NaN","","","","","","","","","","","","","","",""
"","S2","","html-keyboard-response","26","189518","0.0-1.0-22.0","0","0","13259","","null","","","null","2","","NaN","","","","","","","","","","","","","",""
"","response","","html-keyboard-response","27","191270","0.0-1.0-23.0-0.0","0","0","13259","","null","","","null","2","","","1","2","training","adjacent","DC","4","3","Q.jpg","O.jpg","NaN","0","0","",""
"","too_slow_prompt","","html-keyboard-response","28","192271","0.0-1.0-25.0-0.0","1","0","13259","","null","","","null","","","","","","","","","","","","","","","","",""
"","time_out","","html-keyboard-response","29","194273","0.0-1.0-26.0-0.0","0","0","13259","","null","","","null","2","","","","","","","","","","","","","","","",""
"","ITI","","html-keyboard-response","30","195274","0.0-1.0-27.0","0","0","13259","","null","","","null","2","","","","","","","","","","","","","","","NaN",""
"","S1","","html-keyboard-response","31","195525","0.0-1.0-29.0","0","0","13259","","null","","","null","3","","","","","","","","","","","","","","","",""
"","ISI","","html-keyboard-response","32","196528","0.0-1.0-30.0","0","0","13259","","null","","","null","3","NaN","","","","","","","","","","","","","","",""
"","S2","","html-keyboard-response","33","196779","0.0-1.0-31.0","0","0","13259","","null","","","null","3","","NaN","","","","","","","","","","","","","",""
"","response","","html-keyboard-response","34","197297","0.0-1.0-32.0-0.0","0","0","13259","","516","","","75","3","","","1","3","training","adjacent","CD","3","4","O.jpg","Q.jpg","1","1","1","",""
"","feedback","","html-keyboard-response","35","198298","0.0-1.0-33.0-0.0","0","0","13259","","null","","","null","3","","","","","","","","","","","","","","","",""
"","ITI","","html-keyboard-response","36","199300","0.0-1.0-36.0","0","0","13259","","null","","","null","3","","","","","","","","","","","","","","","NaN",""
"","S1","","html-keyboard-response","37","199551","0.0-1.0-38.0","0","0","13259","","null","","","null","4","","","","","","","","","","","","","","","",""
"","ISI","","html-keyboard-response","38","200553","0.0-1.0-39.0","0","0","13259","","null","","","null","4","NaN","","","","","","","","","","","","","","",""
"","S2","","html-keyboard-response","39","200804","0.0-1.0-40.0","0","0","13259","","null","","","null","4","","NaN","","","","","","","","","","","","","",""
"","response","","html-keyboard-response","40","201425","0.0-1.0-41.0-0.0","0","0","13259","","620","","","75","4","","","1","4","training","adjacent","CB","3","2","O.jpg","N.jpg","1","0","0","",""
"","feedback","","html-keyboard-response","41","202427","0.0-1.0-42.0-0.0","0","0","13259","","null","","","null","4","","","","","","","","","","","","","","","",""
"","time_out","","html-keyboard-response","42","204427","0.0-1.0-44.0-0.0","0","0","13259","","null","","","null","4","","","","","","","","","","","","","","","",""
"","ITI","","html-keyboard-response","43","205428","0.0-1.0-45.0","0","0","13259","","null","","","null","4","","","","","","","","","","","","","","","NaN",""
"","S1","","html-keyboard-response","44","205680","0.0-1.0-47.0","0","0","13259","","null","","","null","5","","","","","","","","","","","","","","","",""
"","ISI","","html-keyboard-response","45","206681","0.0-1.0-48.0","0","0","13259","","null","","","null","5","NaN","","","","","","","","","","","","","","",""
"","S2","","html-keyboard-response","46","206932","0.0-1.0-49.0","0","0","13259","","null","","","null","5","","NaN","","","","","","","","","","","","","",""
"","response","","html-keyboard-response","47","207122","0.0-1.0-50.0-0.0","0","0","13259","","190","","","68","5","","","1","5","training","adjacent","GF","7","6","L.jpg","R.jpg","0","0","1","",""
"","feedback","","html-keyboard-response","48","208124","0.0-1.0-51.0-0.0","0","0","13259","","null","","","null","5","","","","","","","","","","","","","","","",""
"","ITI","","html-keyboard-response","49","209125","0.0-1.0-54.0","0","0","13259","","null","","","null","5","","","","","","","","","","","","","","","NaN",""
"","S1","","html-keyboard-response","50","209377","0.0-1.0-56.0","0","0","13259","","null","","","null","6","","","","","","","","","","","","","","","",""
"","ISI","","html-keyboard-response","51","210378","0.0-1.0-57.0","0","0","13259","","null","","","null","6","NaN","","","","","","","","","","","","","","",""
"","S2","","html-keyboard-response","52","210629","0.0-1.0-58.0","0","0","13259","","null","","","null","6","","NaN","","","","","","","","","","","","","",""
"","response","","html-keyboard-response","53","210943","0.0-1.0-59.0-0.0","0","0","13259","","314","","","75","6","","","1","6","training","adjacent","BA","2","1","N.jpg","P.jpg","1","0","0","",""
"","feedback","","html-keyboard-response","54","211945","0.0-1.0-60.0-0.0","0","0","13259","","null","","","null","6","","","","","","","","","","","","","","","",""
"","time_out","","html-keyboard-response","55","213946","0.0-1.0-62.0-0.0","0","0","13259","","null","","","null","6","","","","","","","","","","","","","","","",""
"","ITI","","html-keyboard-response","56","214947","0.0-1.0-63.0","0","0","13259","","null","","","null","6","","","","","","","","","","","","","","","NaN",""
"","S1","","html-keyboard-response","57","215198","0.0-1.0-65.0","0","0","13259","","null","","","null","7","","","","","","","","","","","","","","","",""
"","ISI","","html-keyboard-response","58","216200","0.0-1.0-66.0","0","0","13259","","null","","","null","7","NaN","","","","","","","","","","","","","","",""
"","S2","","html-keyboard-response","59","216450","0.0-1.0-67.0","0","0","13259","","null","","","null","7","","NaN","","","","","","","","","","","","","",""
"","response","","html-keyboard-response","60","216867","0.0-1.0-68.0-0.0","0","0","13259","","416","","","68","7","","","1","7","training","adjacent","GF","7","6","L.jpg","R.jpg","0","0","1","",""
"","feedback","","html-keyboard-response","61","217869","0.0-1.0-69.0-0.0","0","0","13259","","null","","","null","7","","","","","","","","","","","","","","","",""
"","ITI","","html-keyboard-response","62","218870","0.0-1.0-72.0","0","0","13259","","null","","","null","7","","","","","","","","","","","","","","","NaN",""
"","S1","","html-keyboard-response","63","219120","0.0-1.0-74.0","0","0","13259","","null","","","null","8","","","","","","","","","","","","","","","",""
"","ISI","","html-keyboard-response","64","220121","0.0-1.0-75.0","0","0","13259","","null","","","null","8","NaN","","","","","","","","","","","","","","",""
"","S2","","html-keyboard-response","65","220372","0.0-1.0-76.0","0","0","13259","","null","","","null","8","","NaN","","","","","","","","","","","","","",""
"","response","","html-keyboard-response","66","220796","0.0-1.0-77.0-0.0","0","0","13259","","423","","","75","8","","","1","8","training","adjacent","BC","2","3","N.jpg","O.jpg","1","1","1","",""
"","feedback","","html-keyboard-response","67","221797","0.0-1.0-78.0-0.0","0","0","13259","","null","","","null","8","","","","","","","","","","","","","","","",""
"","ITI","","html-keyboard-response","68","222798","0.0-1.0-81.0","0","0","13259","","null","","","null","8","","","","","","","","","","","","","","","NaN",""
"","S1","","html-keyboard-response","69","223050","0.0-1.0-83.0","0","0","13259","","null","","","null","9","","","","","","","","","","","","","","","",""
"","ISI","","html-keyboard-response","70","224052","0.0-1.0-84.0","0","0","13259","","null","","","null","9","NaN","","","","","","","","","","","","","","",""
"","S2","","html-keyboard-response","71","224303","0.0-1.0-85.0","0","0","13259","","null","","","null","9","","NaN","","","","","","","","","","","","","",""
"","response","","html-keyboard-response","72","224573","0.0-1.0-86.0-0.0","0","0","13259","","269","","","68","9","","","1","9","training","adjacent","BA","2","1","N.jpg","P.jpg","0","0","1","",""
"","feedback","","html-keyboard-response","73","225574","0.0-1.0-87.0-0.0","0","0","13259","","null","","","null","9","","","","","","","","","","","","","","","",""
"","ITI","","html-keyboard-response","74","226577","0.0-1.0-90.0","0","0","13259","","null","","","null","9","","","","","","","","","","","","","","","NaN",""
"","S1","","html-keyboard-response","75","226829","0.0-1.0-92.0","0","0","13259","","null","","","null","10","","","","","","","","","","","","","","","",""
"","ISI","","html-keyboard-response","76","227830","0.0-1.0-93.0","0","0","13259","","null","","","null","10","NaN","","","","","","","","","","","","","","",""
"","S2","","html-keyboard-response","77","228083","0.0-1.0-94.0","0","0","13259","","null","","","null","10","","NaN","","","","","","","","","","","","","",""
"","response","","html-keyboard-response","78","228334","0.0-1.0-95.0-0.0","0","0","13259","","251","","","75","10","","","1","10","training","adjacent","FG","6","7","R.jpg","L.jpg","1","1","1","",""
"","feedback","","html-keyboard-response","79","229336","0.0-1.0-96.0-0.0","0","0","13259","","null","","","null","10","","","","","","","","","","","","","","","",""
"","ITI","","html-keyboard-response","80","230338","0.0-1.0-99.0","0","0","13259","","null","","","null","10","","","","","","","","","","","","","","","NaN",""
"","S1","","html-keyboard-response","81","230589","0.0-1.0-101.0","0","0","13259","","null","","","null","11","","","","","","","","","","","","","","","",""
"","ISI","","html-keyboard-response","82","231591","0.0-1.0-102.0","0","0","13259","","null","","","null","11","NaN","","","","","","","","","","","","","","",""
"","S2","","html-keyboard-response","83","231842","0.0-1.0-103.0","0","0","13259","","null","","","null","11","","NaN","","","","","","","","","","","","","",""
"","response","","html-keyboard-response","84","232128","0.0-1.0-104.0-0.0","0","0","13259","","285","","","68","11","","","1","11","training","adjacent","CD","3","4","O.jpg","Q.jpg","0","1","0","",""
"","feedback","","html-keyboard-response","85","233130","0.0-1.0-105.0-0.0","0","0","13259","","null","","","null","11","","","","","","","","","","","","","","","",""
"","time_out","","html-keyboard-response","86","235131","0.0-1.0-107.0-0.0","0","0","13259","","null","","","null","11","","","","","","","","","","","","","","","",""
"","ITI","","html-keyboard-response","87","236133","0.0-1.0-108.0","0","0","13259","","null","","","null","11","","","","","","","","","","","","","","","NaN",""
"","S1","","html-keyboard-response","88","236384","0.0-1.0-110.0","0","0","13259","","null","","","null","12","","","","","","","","","","","","","","","",""
"","ISI","","html-keyboard-response","89","237385","0.0-1.0-111.0","0","0","13259","","null","","","null","12","NaN","","","","","","","","","","","","","","",""
"","S2","","html-keyboard-response","90","237637","0.0-1.0-112.0","0","0","13259","","null","","","null","12","","NaN","","","","","","","","","","","","","",""
"","response","","html-keyboard-response","91","237985","0.0-1.0-113.0-0.0","0","0","13259","","347","","","75","12","","","1","12","training","adjacent","FE","6","5","R.jpg","M.jpg","1","0","0","",""
"","feedback","","html-keyboard-response","92","238987","0.0-1.0-114.0-0.0","0","0","13259","","null","","","null","12","","","","","","","","","","","","","","","",""
"","time_out","","html-keyboard-response","93","240989","0.0-1.0-116.0-0.0","0","0","13259","","null","","","null","12","","","","","","","","","","","","","","","",""
"","ITI","","html-keyboard-response","94","241989","0.0-1.0-117.0","0","0","13259","","null","","","null","12","","","","","","","","","","","","","","","NaN",""
"","S1","","html-keyboard-response","95","242241","0.0-1.0-119.0","0","0","13259","","null","","","null","13","","","","","","","","","","","","","","","",""
"","ISI","","html-keyboard-response","96","243242","0.0-1.0-120.0","0","0","13259","","null","","","null","13","NaN","","","","","","","","","","","","","","",""
"","S2","","html-keyboard-response","97","243492","0.0-1.0-121.0","0","0","13259","","null","","","null","13","","NaN","","","","","","","","","","","","","",""
"","response","","html-keyboard-response","98","243842","0.0-1.0-122.0-0.0","0","0","13259","","349","","","68","13","","","1","13","training","adjacent","DE","4","5","Q.jpg","M.jpg","0","1","0","",""
"","feedback","","html-keyboard-response","99","244843","0.0-1.0-123.0-0.0","0","0","13259","","null","","","null","13","","","","","","","","","","","","","","","",""
"","time_out","","html-keyboard-response","100","246844","0.0-1.0-125.0-0.0","0","0","13259","","null","","","null","13","","","","","","","","","","","","","","","",""
"","ITI","","html-keyboard-response","101","247845","0.0-1.0-126.0","0","0","13259","","null","","","null","13","","","","","","","","","","","","","","","NaN",""
"","S1","","html-keyboard-response","102","248097","0.0-1.0-128.0","0","0","13259","","null","","","null","14","","","","","","","","","","","","","","","",""
"","ISI","","html-keyboard-response","103","249098","0.0-1.0-129.0","0","0","13259","","null","","","null","14","NaN","","","","","","","","","","","","","","",""
"","S2","","html-keyboard-response","104","249350","0.0-1.0-130.0","0","0","13259","","null","","","null","14","","NaN","","","","","","","","","","","","","",""
"","response","","html-keyboard-response","105","249659","0.0-1.0-131.0-0.0","0","0","13259","","309","","","75","14","","","1","14","training","adjacent","ED","5","4","M.jpg","Q.jpg","1","0","0","",""
"","feedback","","html-keyboard-response","106","250660","0.0-1.0-132.0-0.0","0","0","13259","","null","","","null","14","","","","","","","","","","","","","","","",""
"","time_out","","html-keyboard-response","107","252661","0.0-1.0-134.0-0.0","0","0","13259","","null","","","null","14","","","","","","","","","","","","","","","",""
"","ITI","","html-keyboard-response","108","253662","0.0-1.0-135.0","0","0","13259","","null","","","null","14","","","","","","","","","","","","","","","NaN",""
"","S1","","html-keyboard-response","109","253913","0.0-1.0-137.0","0","0","13259","","null","","","null","15","","","","","","","","","","","","","","","",""
"","ISI","","html-keyboard-response","110","254915","0.0-1.0-138.0","0","0","13259","","null","","","null","15","NaN","","","","","","","","","","","","","","",""
"","S2","","html-keyboard-response","111","255166","0.0-1.0-139.0","0","0","13259","","null","","","null","15","","NaN","","","","","","","","","","","","","",""
"","response","","html-keyboard-response","112","255578","0.0-1.0-140.0-0.0","0","0","13259","","411","","","68","15","","","1","15","training","adjacent","BC","2","3","N.jpg","O.jpg","0","1","0","",""
"","feedback","","html-keyboard-response","113","256580","0.0-1.0-141.0-0.0","0","0","13259","","null","","","null","15","","","","","","","","","","","","","","","",""
"","time_out","","html-keyboard-response","114","258581","0.0-1.0-143.0-0.0","0","0","13259","","null","","","null","15","","","","","","","","","","","","","","","",""
"","ITI","","html-keyboard-response","115","259583","0.0-1.0-144.0","0","0","13259","","null","","","null","15","","","","","","","","","","","","","","","NaN",""
"","S1","","html-keyboard-response","116","259833","0.0-1.0-146.0","0","0","13259","","null","","","null","16","","","","","","","","","","","","","","","",""
"","ISI","","html-keyboard-response","117","260835","0.0-1.0-147.0","0","0","13259","","null","","","null","16","NaN","","","","","","","","","","","","","","",""
"","S2","","html-keyboard-response","118","261086","0.0-1.0-148.0","0","0","13259","","null","","","null","16","","NaN","","","","","","","","","","","","","",""
"","response","","html-keyboard-response","119","261460","0.0-1.0-149.0-0.0","0","0","13259","","373","","","75","16","","","1","16","training","adjacent","EF","5","6","M.jpg","R.jpg","1","1","1","",""
"","feedback","","html-keyboard-response","120","262461","0.0-1.0-150.0-0.0","0","0","13259","","null","","","null","16","","","","","","","","","","","","","","","",""
"","ITI","","html-keyboard-response","121","263463","0.0-1.0-153.0","0","0","13259","","null","","","null","16","","","","","","","","","","","","","","","NaN",""
"","S1","","html-keyboard-response","122","263714","0.0-1.0-155.0","0","0","13259","","null","","","null","17","","","","","","","","","","","","","","","",""
"","ISI","","html-keyboard-response","123","264715","0.0-1.0-156.0","0","0","13259","","null","","","null","17","NaN","","","","","","","","","","","","","","",""
"","S2","","html-keyboard-response","124","264966","0.0-1.0-157.0","0","0","13259","","null","","","null","17","","NaN","","","","","","","","","","","","","",""
"","response","","html-keyboard-response","125","265355","0.0-1.0-158.0-0.0","0","0","13259","","388","","","75","17","","","1","17","training","adjacent","DC","4","3","Q.jpg","O.jpg","1","0","0","",""
"","feedback","","html-keyboard-response","126","266357","0.0-1.0-159.0-0.0","0","0","13259","","null","","","null","17","","","","","","","","","","","","","","","",""
"","time_out","","html-keyboard-response","127","268359","0.0-1.0-161.0-0.0","0","0","13259","","null","","","null","17","","","","","","","","","","","","","","","",""
"","ITI","","html-keyboard-response","128","269360","0.0-1.0-162.0","0","0","13259","","null","","","null","17","","","","","","","","","","","","","","","NaN",""
"","S1","","html-keyboard-response","129","269610","0.0-1.0-164.0","0","0","13259","","null","","","null","18","","","","","","","","","","","","","","","",""
"","ISI","","html-keyboard-response","130","270612","0.0-1.0-165.0","0","0","13259","","null","","","null","18","NaN","","","","","","","","","","","","","","",""
"","S2","","html-keyboard-response","131","270863","0.0-1.0-166.0","0","0","13259","","null","","","null","18","","NaN","","","","","","","","","","","","","",""
"","response","","html-keyboard-response","132","271492","0.0-1.0-167.0-0.0","0","0","13259","","628","","","68","18","","","1","18","training","adjacent","EF","5","6","M.jpg","R.jpg","0","1","0","",""
"","feedback","","html-keyboard-response","133","272494","0.0-1.0-168.0-0.0","0","0","13259","","null","","","null","18","","","","","","","","","","","","","","","",""
"","time_out","","html-keyboard-response","134","274495","0.0-1.0-170.0-0.0","0","0","13259","","null","","","null","18","","","","","","","","","","","","","","","",""
"","ITI","","html-keyboard-response","135","275497","0.0-1.0-171.0","0","0","13259","","null","","","null","18","","","","","","","","","","","","","","","NaN",""
"","S1","","html-keyboard-response","136","275748","0.0-1.0-173.0","0","0","13259","","null","","","null","19","","","","","","","","","","","","","","","",""
"","ISI","","html-keyboard-response","137","276749","0.0-1.0-174.0","0","0","13259","","null","","","null","19","NaN","","","","","","","","","","","","","","",""
"","S2","","html-keyboard-response","138","277001","0.0-1.0-175.0","0","0","13259","","null","","","null","19","","NaN","","","","","","","","","","","","","",""
"","response","","html-keyboard-response","139","277325","0.0-1.0-176.0-0.0","0","0","13259","","323","","","75","19","","","1","19","training","adjacent","DC","4","3","Q.jpg","O.jpg","1","0","0","",""
"","feedback","","html-keyboard-response","140","278326","0.0-1.0-177.0-0.0","0","0","13259","","null","","","null","19","","","","","","","","","","","","","","","",""
"","time_out","","html-keyboard-response","141","280327","0.0-1.0-179.0-0.0","0","0","13259","","null","","","null","19","","","","","","","","","","","","","","","",""
"","ITI","","html-keyboard-response","142","281328","0.0-1.0-180.0","0","0","13259","","null","","","null","19","","","","","","","","","","","","","","","NaN",""
"","S1","","html-keyboard-response","143","281580","0.0-1.0-182.0","0","0","13259","","null","","","null","20","","","","","","","","","","","","","","","",""
"","ISI","","html-keyboard-response","144","282580","0.0-1.0-183.0","0","0","13259","","null","","","null","20","NaN","","","","","","","","","","","","","","",""
"","S2","","html-keyboard-response","145","282832","0.0-1.0-184.0","0","0","13259","","null","","","null","20","","NaN","","","","","","","","","","","","","",""
"","response","","html-keyboard-response","146","283265","0.0-1.0-185.0-0.0","0","0","13259","","433","","","68","20","","","1","20","training","adjacent","AB","1","2","P.jpg","N.jpg","0","1","0","",""
"","feedback","","html-keyboard-response","147","284267","0.0-1.0-186.0-0.0","0","0","13259","","null","","","null","20","","","","","","","","","","","","","","","",""
"","time_out","","html-keyboard-response","148","286268","0.0-1.0-188.0-0.0","0","0","13259","","null","","","null","20","","","","","","","","","","","","","","","",""
"","ITI","","html-keyboard-response","149","287270","0.0-1.0-189.0","0","0","13259","","null","","","null","20","","","","","","","","","","","","","","","NaN",""
"","S1","","html-keyboard-response","150","287521","0.0-1.0-191.0","0","0","13259","","null","","","null","21","","","","","","","","","","","","","","","",""
"","ISI","","html-keyboard-response","151","288522","0.0-1.0-192.0","0","0","13259","","null","","","null","21","NaN","","","","","","","","","","","","","","",""
"","S2","","html-keyboard-response","152","288773","0.0-1.0-193.0","0","0","13259","","null","","","null","21","","NaN","","","","","","","","","","","","","",""
"","response","","html-keyboard-response","153","289134","0.0-1.0-194.0-0.0","0","0","13259","","361","","","68","21","","","1","21","training","adjacent","DC","4","3","Q.jpg","O.jpg","0","0","1","",""
"","feedback","","html-keyboard-response","154","290136","0.0-1.0-195.0-0.0","0","0","13259","","null","","","null","21","","","","","","","","","","","","","","","",""
"","ITI","","html-keyboard-response","155","291137","0.0-1.0-198.0","0","0","13259","","null","","","null","21","","","","","","","","","","","","","","","NaN",""
"","S1","","html-keyboard-response","156","291388","0.0-1.0-200.0","0","0","13259","","null","","","null","22","","","","","","","","","","","","","","","",""
"","ISI","","html-keyboard-response","157","292389","0.0-1.0-201.0","0","0","13259","","null","","","null","22","NaN","","","","","","","","","","","","","","",""
"","S2","","html-keyboard-response","158","292640","0.0-1.0-202.0","0","0","13259","","null","","","null","22","","NaN","","","","","","","","","","","","","",""
"","response","","html-keyboard-response","159","293027","0.0-1.0-203.0-0.0","0","0","13259","","386","","","68","22","","","1","22","training","adjacent","FG","6","7","R.jpg","L.jpg","0","1","0","",""
"","feedback","","html-keyboard-response","160","294029","0.0-1.0-204.0-0.0","0","0","13259","","null","","","null","22","","","","","","","","","","","","","","","",""
"","time_out","","html-keyboard-response","161","296030","0.0-1.0-206.0-0.0","0","0","13259","","null","","","null","22","","","","","","","","","","","","","","","",""
"","ITI","","html-keyboard-response","162","297031","0.0-1.0-207.0","0","0","13259","","null","","","null","22","","","","","","","","","","","","","","","NaN",""
"","S1","","html-keyboard-response","163","297283","0.0-1.0-209.0","0","0","13259","","null","","","null","23","","","","","","","","","","","","","","","",""
"","ISI","","html-keyboard-response","164","298285","0.0-1.0-210.0","0","0","13259","","null","","","null","23","NaN","","","","","","","","","","","","","","",""
"","S2","","html-keyboard-response","165","298535","0.0-1.0-211.0","0","0","13259","","null","","","null","23","","NaN","","","","","","","","","","","","","",""
"","response","","html-keyboard-response","166","298880","0.0-1.0-212.0-0.0","0","0","13259","","344","","","75","23","","","1","23","training","adjacent","FE","6","5","R.jpg","M.jpg","1","0","0","",""
"","feedback","","html-keyboard-response","167","299881","0.0-1.0-213.0-0.0","0","0","13259","","null","","","null","23","","","","","","","","","","","","","","","",""
"","time_out","","html-keyboard-response","168","301883","0.0-1.0-215.0-0.0","0","0","13259","","null","","","null","23","","","","","","","","","","","","","","","",""
"","ITI","","html-keyboard-response","169","302883","0.0-1.0-216.0","0","0","13259","","null","","","null","23","","","","","","","","","","","","","","","NaN",""
"","S1","","html-keyboard-response","170","303135","0.0-1.0-218.0","0","0","13259","","null","","","null","24","","","","","","","","","","","","","","","",""
"","ISI","","html-keyboard-response","171","304135","0.0-1.0-219.0","0","0","13259","","null","","","null","24","NaN","","","","","","","","","","","","","","",""
"","S2","","html-keyboard-response","172","304385","0.0-1.0-220.0","0","0","13259","","null","","","null","24","","NaN","","","","","","","","","","","","","",""
"","response","","html-keyboard-response","173","304624","0.0-1.0-221.0-0.0","0","0","13259","","239","","","75","24","","","1","24","training","adjacent","GF","7","6","L.jpg","R.jpg","1","0","0","",""
"","feedback","","html-keyboard-response","174","305625","0.0-1.0-222.0-0.0","0","0","13259","","null","","","null","24","","","","","","","","","","","","","","","",""
"","time_out","","html-keyboard-response","175","307627","0.0-1.0-224.0-0.0","0","0","13259","","null","","","null","24","","","","","","","","","","","","","","","",""
"","ITI","","html-keyboard-response","176","308627","0.0-1.0-225.0","0","0","13259","","null","","","null","24","","","","","","","","","","","","","","","NaN",""
"","S1","","html-keyboard-response","177","308879","0.0-1.0-227.0","0","0","13259","","null","","","null","25","","","","","","","","","","","","","","","",""
"","ISI","","html-keyboard-response","178","309881","0.0-1.0-228.0","0","0","13259","","null","","","null","25","NaN","","","","","","","","","","","","","","",""
"","S2","","html-keyboard-response","179","310131","0.0-1.0-229.0","0","0","13259","","null","","","null","25","","NaN","","","","","","","","","","","","","",""
"","response","","html-keyboard-response","180","310138","0.0-1.0-230.0-0.0","0","0","13259","","6","","","68","25","","","1","25","training","adjacent","FE","6","5","R.jpg","M.jpg","0","0","1","",""
"","feedback","","html-keyboard-response","181","311141","0.0-1.0-231.0-0.0","0","0","13259","","null","","","null","25","","","","","","","","","","","","","","","",""
"","ITI","","html-keyboard-response","182","312142","0.0-1.0-234.0","0","0","13259","","null","","","null","25","","","","","","","","","","","","","","","NaN",""
"","S1","","html-keyboard-response","183","312393","0.0-1.0-236.0","0","0","13259","","null","","","null","26","","","","","","","","","","","","","","","",""
"","ISI","","html-keyboard-response","184","313394","0.0-1.0-237.0","0","0","13259","","null","","","null","26","NaN","","","","","","","","","","","","","","",""
"","S2","","html-keyboard-response","185","313646","0.0-1.0-238.0","0","0","13259","","null","","","null","26","","NaN","","","","","","","","","","","","","",""
"","response","","html-keyboard-response","186","313957","0.0-1.0-239.0-0.0","0","0","13259","","309","","","75","26","","","1","26","training","adjacent","DE","4","5","Q.jpg","M.jpg","1","1","1","",""
"","feedback","","html-keyboard-response","187","314959","0.0-1.0-240.0-0.0","0","0","13259","","null","","","null","26","","","","","","","","","","","","","","","",""
"","ITI","","html-keyboard-response","188","315961","0.0-1.0-243.0","0","0","13259","","null","","","null","26","","","","","","","","","","","","","","","NaN",""
"","S1","","html-keyboard-response","189","316211","0.0-1.0-245.0","0","0","13259","","null","","","null","27","","","","","","","","","","","","","","","",""
"","ISI","","html-keyboard-response","190","317213","0.0-1.0-246.0","0","0","13259","","null","","","null","27","NaN","","","","","","","","","","","","","","",""
"","S2","","html-keyboard-response","191","317463","0.0-1.0-247.0","0","0","13259","","null","","","null","27","","NaN","","","","","","","","","","","","","",""
"","response","","html-keyboard-response","192","317723","0.0-1.0-248.0-0.0","0","0","13259","","259","","","68","27","","","1","27","training","adjacent","BA","2","1","N.jpg","P.jpg","0","0","1","",""
"","feedback","","html-keyboard-response","193","318724","0.0-1.0-249.0-0.0","0","0","13259","","null","","","null","27","","","","","","","","","","","","","","","",""
"","ITI","","html-keyboard-response","194","319725","0.0-1.0-252.0","0","0","13259","","null","","","null","27","","","","","","","","","","","","","","","NaN",""
"","S1","","html-keyboard-response","195","319976","0.0-1.0-254.0","0","0","13259","","null","","","null","28","","","","","","","","","","","","","","","",""
"","ISI","","html-keyboard-response","196","320977","0.0-1.0-255.0","0","0","13259","","null","","","null","28","NaN","","","","","","","","","","","","","","",""
"","S2","","html-keyboard-response","197","321229","0.0-1.0-256.0","0","0","13259","","null","","","null","28","","NaN","","","","","","","","","","","","","",""
"","response","","html-keyboard-response","198","321566","0.0-1.0-257.0-0.0","0","0","13259","","336","","","75","28","","","1","28","training","adjacent","AB","1","2","P.jpg","N.jpg","1","1","1","",""
"","feedback","","html-keyboard-response","199","322567","0.0-1.0-258.0-0.0","0","0","13259","","null","","","null","28","","","","","","","","","","","","","","","",""
"","ITI","","html-keyboard-response","200","323569","0.0-1.0-261.0","0","0","13259","","null","","","null","28","","","","","","","","","","","","","","","NaN",""
"","S1","","html-keyboard-response","201","323819","0.0-1.0-263.0","0","0","13259","","null","","","null","29","","","","","","","","","","","","","","","",""
"","ISI","","html-keyboard-response","202","324820","0.0-1.0-264.0","0","0","13259","","null","","","null","29","NaN","","","","","","","","","","","","","","",""
"","S2","","html-keyboard-response","203","325072","0.0-1.0-265.0","0","0","13259","","null","","","null","29","","NaN","","","","","","","","","","","","","",""
"","response","","html-keyboard-response","204","325490","0.0-1.0-266.0-0.0","0","0","13259","","418","","","68","29","","","1","29","training","adjacent","CD","3","4","O.jpg","Q.jpg","0","1","0","",""
"","feedback","","html-keyboard-response","205","326492","0.0-1.0-267.0-0.0","0","0","13259","","null","","","null","29","","","","","","","","","","","","","","","",""
"","time_out","","html-keyboard-response","206","328493","0.0-1.0-269.0-0.0","0","0","13259","","null","","","null","29","","","","","","","","","","","","","","","",""
"","ITI","","html-keyboard-response","207","329495","0.0-1.0-270.0","0","0","13259","","null","","","null","29","","","","","","","","","","","","","","","NaN",""
"","S1","","html-keyboard-response","208","329746","0.0-1.0-272.0","0","0","13259","","null","","","null","30","","","","","","","","","","","","","","","",""
"","ISI","","html-keyboard-response","209","330748","0.0-1.0-273.0","0","0","13259","","null","","","null","30","NaN","","","","","","","","","","","","","","",""
"","S2","","html-keyboard-response","210","331000","0.0-1.0-274.0","0","0","13259","","null","","","null","30","","NaN","","","","","","","","","","","","","",""
"","response","","html-keyboard-response","211","331267","0.0-1.0-275.0-0.0","0","0","13259","","266","","","75","30","","","1","30","training","adjacent","BC","2","3","N.jpg","O.jpg","1","1","1","",""
"","feedback","","html-keyboard-response","212","332268","0.0-1.0-276.0-0.0","0","0","13259","","null","","","null","30","","","","","","","","","","","","","","","",""
"","ITI","","html-keyboard-response","213","333269","0.0-1.0-279.0","0","0","13259","","null","","","null","30","","","","","","","","","","","","","","","NaN",""
"","S1","","html-keyboard-response","214","333521","0.0-1.0-281.0","0","0","13259","","null","","","null","31","","","","","","","","","","","","","","","",""
"","ISI","","html-keyboard-response","215","334522","0.0-1.0-282.0","0","0","13259","","null","","","null","31","NaN","","","","","","","","","","","","","","",""
"","S2","","html-keyboard-response","216","334774","0.0-1.0-283.0","0","0","13259","","null","","","null","31","","NaN","","","","","","","","","","","","","",""
"","response","","html-keyboard-response","217","335175","0.0-1.0-284.0-0.0","0","0","13259","","400","","","68","31","","","1","31","training","adjacent","FG","6","7","R.jpg","L.jpg","0","1","0","",""
"","feedback","","html-keyboard-response","218","336176","0.0-1.0-285.0-0.0","0","0","13259","","null","","","null","31","","","","","","","","","","","","","","","",""
"","time_out","","html-keyboard-response","219","338178","0.0-1.0-287.0-0.0","0","0","13259","","null","","","null","31","","","","","","","","","","","","","","","",""
"","ITI","","html-keyboard-response","220","339178","0.0-1.0-288.0","0","0","13259","","null","","","null","31","","","","","","","","","","","","","","","NaN",""
"","S1","","html-keyboard-response","221","339431","0.0-1.0-290.0","0","0","13259","","null","","","null","32","","","","","","","","","","","","","","","",""
"","ISI","","html-keyboard-response","222","340431","0.0-1.0-291.0","0","0","13259","","null","","","null","32","NaN","","","","","","","","","","","","","","",""
"","S2","","html-keyboard-response","223","340683","0.0-1.0-292.0","0","0","13259","","null","","","null","32","","NaN","","","","","","","","","","","","","",""
"","response","","html-keyboard-response","224","341039","0.0-1.0-293.0-0.0","0","0","13259","","355","","","75","32","","","1","32","training","adjacent","CD","3","4","O.jpg","Q.jpg","1","1","1","",""
"","feedback","","html-keyboard-response","225","342040","0.0-1.0-294.0-0.0","0","0","13259","","null","","","null","32","","","","","","","","","","","","","","","",""
"","ITI","","html-keyboard-response","226","343042","0.0-1.0-297.0","0","0","13259","","null","","","null","32","","","","","","","","","","","","","","","NaN",""
"","S1","","html-keyboard-response","227","343293","0.0-1.0-299.0","0","0","13259","","null","","","null","33","","","","","","","","","","","","","","","",""
"","ISI","","html-keyboard-response","228","344295","0.0-1.0-300.0","0","0","13259","","null","","","null","33","NaN","","","","","","","","","","","","","","",""
"","S2","","html-keyboard-response","229","344545","0.0-1.0-301.0","0","0","13259","","null","","","null","33","","NaN","","","","","","","","","","","","","",""
"","response","","html-keyboard-response","230","344801","0.0-1.0-302.0-0.0","0","0","13259","","254","","","75","33","","","1","33","training","adjacent","ED","5","4","M.jpg","Q.jpg","1","0","0","",""
"","feedback","","html-keyboard-response","231","345801","0.0-1.0-303.0-0.0","0","0","13259","","null","","","null","33","","","","","","","","","","","","","","","",""
"","time_out","","html-keyboard-response","232","347802","0.0-1.0-305.0-0.0","0","0","13259","","null","","","null","33","","","","","","","","","","","","","","","",""
"","ITI","","html-keyboard-response","233","348803","0.0-1.0-306.0","0","0","13259","","null","","","null","33","","","","","","","","","","","","","","","NaN",""
"","S1","","html-keyboard-response","234","349054","0.0-1.0-308.0","0","0","13259","","null","","","null","34","","","","","","","","","","","","","","","",""
"","ISI","","html-keyboard-response","235","350056","0.0-1.0-309.0","0","0","13259","","null","","","null","34","NaN","","","","","","","","","","","","","","",""
"","S2","","html-keyboard-response","236","350306","0.0-1.0-310.0","0","0","13259","","null","","","null","34","","NaN","","","","","","","","","","","","","",""
"","response","","html-keyboard-response","237","350368","0.0-1.0-311.0-0.0","0","0","13259","","62","","","75","34","","","1","34","training","adjacent","CB","3","2","O.jpg","N.jpg","1","0","0","",""
"","feedback","","html-keyboard-response","238","351370","0.0-1.0-312.0-0.0","0","0","13259","","null","","","null","34","","","","","","","","","","","","","","","",""
"","time_out","","html-keyboard-response","239","353372","0.0-1.0-314.0-0.0","0","0","13259","","null","","","null","34","","","","","","","","","","","","","","","",""
"","ITI","","html-keyboard-response","240","354373","0.0-1.0-315.0","0","0","13259","","null","","","null","34","","","","","","","","","","","","","","","NaN",""
"","S1","","html-keyboard-response","241","354624","0.0-1.0-317.0","0","0","13259","","null","","","null","35","","","","","","","","","","","","","","","",""
"","ISI","","html-keyboard-response","242","355626","0.0-1.0-318.0","0","0","13259","","null","","","null","35","NaN","","","","","","","","","","","","","","",""
"","S2","","html-keyboard-response","243","355877","0.0-1.0-319.0","0","0","13259","","null","","","null","35","","NaN","","","","","","","","","","","","","",""
"","response","","html-keyboard-response","244","356249","0.0-1.0-320.0-0.0","0","0","13259","","371","","","68","35","","","1","35","training","adjacent","GF","7","6","L.jpg","R.jpg","0","0","1","",""
"","feedback","","html-keyboard-response","245","357252","0.0-1.0-321.0-0.0","0","0","13259","","null","","","null","35","","","","","","","","","","","","","","","",""
"","ITI","","html-keyboard-response","246","358253","0.0-1.0-324.0","0","0","13259","","null","","","null","35","","","","","","","","","","","","","","","NaN",""
"","S1","","html-keyboard-response","247","358504","0.0-1.0-326.0","0","0","13259","","null","","","null","36","","","","","","","","","","","","","","","",""
"","ISI","","html-keyboard-response","248","359505","0.0-1.0-327.0","0","0","13259","","null","","","null","36","NaN","","","","","","","","","","","","","","",""
"","S2","","html-keyboard-response","249","359756","0.0-1.0-328.0","0","0","13259","","null","","","null","36","","NaN","","","","","","","","","","","","","",""
"","response","","html-keyboard-response","250","360509","0.0-1.0-329.0-0.0","0","0","13259","","753","","","75","36","","","1","36","training","adjacent","ED","5","4","M.jpg","Q.jpg","1","0","0","",""
"","feedback","","html-keyboard-response","251","361511","0.0-1.0-330.0-0.0","0","0","13259","","null","","","null","36","","","","","","","","","","","","","","","",""
"","time_out","","html-keyboard-response","252","363512","0.0-1.0-332.0-0.0","0","0","13259","","null","","","null","36","","","","","","","","","","","","","","","",""
"","ITI","","html-keyboard-response","253","364514","0.0-1.0-333.0","0","0","13259","","null","","","null","36","","","","","","","","","","","","","","","NaN",""
"","S1","","html-keyboard-response","254","364765","0.0-1.0-335.0","0","0","13259","","null","","","null","37","","","","","","","","","","","","","","","",""
"","ISI","","html-keyboard-response","255","365766","0.0-1.0-336.0","0","0","13259","","null","","","null","37","NaN","","","","","","","","","","","","","","",""
"","S2","","html-keyboard-response","256","366017","0.0-1.0-337.0","0","0","13259","","null","","","null","37","","NaN","","","","","","","","","","","","","",""
"","response","","html-keyboard-response","257","366644","0.0-1.0-338.0-0.0","0","0","13259","","625","","","68","37","","","1","37","training","adjacent","DE","4","5","Q.jpg","M.jpg","0","1","0","",""
"","feedback","","html-keyboard-response","258","367645","0.0-1.0-339.0-0.0","0","0","13259","","null","","","null","37","","","","","","","","","","","","","","","",""
"","time_out","","html-keyboard-response","259","369647","0.0-1.0-341.0-0.0","0","0","13259","","null","","","null","37","","","","","","","","","","","","","","","",""
"","ITI","","html-keyboard-response","260","370648","0.0-1.0-342.0","0","0","13259","","null","","","null","37","","","","","","","","","","","","","","","NaN",""
"","S1","","html-keyboard-response","261","370899","0.0-1.0-344.0","0","0","13259","","null","","","null","38","","","","","","","","","","","","","","","",""
"","ISI","","html-keyboard-response","262","371901","0.0-1.0-345.0","0","0","13259","","null","","","null","38","NaN","","","","","","","","","","","","","","",""
"","S2","","html-keyboard-response","263","372153","0.0-1.0-346.0","0","0","13259","","null","","","null","38","","NaN","","","","","","","","","","","","","",""
"","response","","html-keyboard-response","264","372776","0.0-1.0-347.0-0.0","0","0","13259","","622","","","68","38","","","1","38","training","adjacent","BC","2","3","N.jpg","O.jpg","0","1","0","",""
"","feedback","","html-keyboard-response","265","373778","0.0-1.0-348.0-0.0","0","0","13259","","null","","","null","38","","","","","","","","","","","","","","","",""
"","time_out","","html-keyboard-response","266","375780","0.0-1.0-350.0-0.0","0","0","13259","","null","","","null","38","","","","","","","","","","","","","","","",""
"","ITI","","html-keyboard-response","267","376781","0.0-1.0-351.0","0","0","13259","","null","","","null","38","","","","","","","","","","","","","","","NaN",""
"","S1","","html-keyboard-response","268","377032","0.0-1.0-353.0","0","0","13259","","null","","","null","39","","","","","","","","","","","","","","","",""
"","ISI","","html-keyboard-response","269","378035","0.0-1.0-354.0","0","0","13259","","null","","","null","39","NaN","","","","","","","","","","","","","","",""
"","S2","","html-keyboard-response","270","378286","0.0-1.0-355.0","0","0","13259","","null","","","null","39","","NaN","","","","","","","","","","","","","",""
"","response","","html-keyboard-response","271","378739","0.0-1.0-356.0-0.0","0","0","13259","","453","","","68","39","","","1","39","training","adjacent","EF","5","6","M.jpg","R.jpg","0","1","0","",""
"","feedback","","html-keyboard-response","272","379741","0.0-1.0-357.0-0.0","0","0","13259","","null","","","null","39","","","","","","","","","","","","","","","",""
"","time_out","","html-keyboard-response","273","381743","0.0-1.0-359.0-0.0","0","0","13259","","null","","","null","39","","","","","","","","","","","","","","","",""
"","ITI","","html-keyboard-response","274","382745","0.0-1.0-360.0","0","0","13259","","null","","","null","39","","","","","","","","","","","","","","","NaN",""
"","S1","","html-keyboard-response","275","382995","0.0-1.0-362.0","0","0","13259","","null","","","null","40","","","","","","","","","","","","","","","",""
"","ISI","","html-keyboard-response","276","383997","0.0-1.0-363.0","0","0","13259","","null","","","null","40","NaN","","","","","","","","","","","","","","",""
"","S2","","html-keyboard-response","277","384248","0.0-1.0-364.0","0","0","13259","","null","","","null","40","","NaN","","","","","","","","","","","","","",""
"","response","","html-keyboard-response","278","384647","0.0-1.0-365.0-0.0","0","0","13259","","398","","","75","40","","","1","40","training","adjacent","FE","6","5","R.jpg","M.jpg","1","0","0","",""
"","feedback","","html-keyboard-response","279","385648","0.0-1.0-366.0-0.0","0","0","13259","","null","","","null","40","","","","","","","","","","","","","","","",""
"","time_out","","html-keyboard-response","280","387649","0.0-1.0-368.0-0.0","0","0","13259","","null","","","null","40","","","","","","","","","","","","","","","",""
"","ITI","","html-keyboard-response","281","388650","0.0-1.0-369.0","0","0","13259","","null","","","null","40","","","","","","","","","","","","","","","NaN",""
"","S1","","html-keyboard-response","282","388900","0.0-1.0-371.0","0","0","13259","","null","","","null","41","","","","","","","","","","","","","","","",""
"","ISI","","html-keyboard-response","283","389901","0.0-1.0-372.0","0","0","13259","","null","","","null","41","NaN","","","","","","","","","","","","","","",""
"","S2","","html-keyboard-response","284","390153","0.0-1.0-373.0","0","0","13259","","null","","","null","41","","NaN","","","","","","","","","","","","","",""
"","response","","html-keyboard-response","285","390190","0.0-1.0-374.0-0.0","0","0","13259","","36","","","75","41","","","1","41","training","adjacent","DE","4","5","Q.jpg","M.jpg","1","1","1","",""
"","feedback","","html-keyboard-response","286","391191","0.0-1.0-375.0-0.0","0","0","13259","","null","","","null","41","","","","","","","","","","","","","","","",""
"","ITI","","html-keyboard-response","287","392193","0.0-1.0-378.0","0","0","13259","","null","","","null","41","","","","","","","","","","","","","","","NaN",""
"","S1","","html-keyboard-response","288","392443","0.0-1.0-380.0","0","0","13259","","null","","","null","42","","","","","","","","","","","","","","","",""
"","ISI","","html-keyboard-response","289","393444","0.0-1.0-381.0","0","0","13259","","null","","","null","42","NaN","","","","","","","","","","","","","","",""
"","S2","","html-keyboard-response","290","393695","0.0-1.0-382.0","0","0","13259","","null","","","null","42","","NaN","","","","","","","","","","","","","",""
"","response","","html-keyboard-response","291","394319","0.0-1.0-383.0-0.0","0","0","13259","","623","","","75","42","","","1","42","training","adjacent","FG","6","7","R.jpg","L.jpg","1","1","1","",""
"","feedback","","html-keyboard-response","292","395320","0.0-1.0-384.0-0.0","0","0","13259","","null","","","null","42","","","","","","","","","","","","","","","",""
"","ITI","","html-keyboard-response","293","396321","0.0-1.0-387.0","0","0","13259","","null","","","null","42","","","","","","","","","","","","","","","NaN",""
"","S1","","html-keyboard-response","294","396573","0.0-1.0-389.0","0","0","13259","","null","","","null","43","","","","","","","","","","","","","","","",""
"","ISI","","html-keyboard-response","295","397573","0.0-1.0-390.0","0","0","13259","","null","","","null","43","NaN","","","","","","","","","","","","","","",""
"","S2","","html-keyboard-response","296","397824","0.0-1.0-391.0","0","0","13259","","null","","","null","43","","NaN","","","","","","","","","","","","","",""
"","response","","html-keyboard-response","297","398160","0.0-1.0-392.0-0.0","0","0","13259","","334","","","75","43","","","1","43","training","adjacent","BA","2","1","N.jpg","P.jpg","1","0","0","",""
"","feedback","","html-keyboard-response","298","399162","0.0-1.0-393.0-0.0","0","0","13259","","null","","","null","43","","","","","","","","","","","","","","","",""
"","time_out","","html-keyboard-response","299","401163","0.0-1.0-395.0-0.0","0","0","13259","","null","","","null","43","","","","","","","","","","","","","","","",""
"","ITI","","html-keyboard-response","300","402165","0.0-1.0-396.0","0","0","13259","","null","","","null","43","","","","","","","","","","","","","","","NaN",""
"","S1","","html-keyboard-response","301","402416","0.0-1.0-398.0","0","0","13259","","null","","","null","44","","","","","","","","","","","","","","","",""
"","ISI","","html-keyboard-response","302","403418","0.0-1.0-399.0","0","0","13259","","null","","","null","44","NaN","","","","","","","","","","","","","","",""
"","S2","","html-keyboard-response","303","403668","0.0-1.0-400.0","0","0","13259","","null","","","null","44","","NaN","","","","","","","","","","","","","",""
"","response","","html-keyboard-response","304","404017","0.0-1.0-401.0-0.0","0","0","13259","","347","","","75","44","","","1","44","training","adjacent","AB","1","2","P.jpg","N.jpg","1","1","1","",""
"","feedback","","html-keyboard-response","305","405018","0.0-1.0-402.0-0.0","0","0","13259","","null","","","null","44","","","","","","","","","","","","","","","",""
"","ITI","","html-keyboard-response","306","406020","0.0-1.0-405.0","0","0","13259","","null","","","null","44","","","","","","","","","","","","","","","NaN",""
"","S1","","html-keyboard-response","307","406273","0.0-1.0-407.0","0","0","13259","","null","","","null","45","","","","","","","","","","","","","","","",""
"","ISI","","html-keyboard-response","308","407273","0.0-1.0-408.0","0","0","13259","","null","","","null","45","NaN","","","","","","","","","","","","","","",""
"","S2","","html-keyboard-response","309","407523","0.0-1.0-409.0","0","0","13259","","null","","","null","45","","NaN","","","","","","","","","","","","","",""
"","response","","html-keyboard-response","310","407838","0.0-1.0-410.0-0.0","0","0","13259","","314","","","75","45","","","1","45","training","adjacent","ED","5","4","M.jpg","Q.jpg","1","0","0","",""
"","feedback","","html-keyboard-response","311","408840","0.0-1.0-411.0-0.0","0","0","13259","","null","","","null","45","","","","","","","","","","","","","","","",""
"","time_out","","html-keyboard-response","312","410841","0.0-1.0-413.0-0.0","0","0","13259","","null","","","null","45","","","","","","","","","","","","","","","",""
"","ITI","","html-keyboard-response","313","411842","0.0-1.0-414.0","0","0","13259","","null","","","null","45","","","","","","","","","","","","","","","NaN",""
"","S1","","html-keyboard-response","314","412094","0.0-1.0-416.0","0","0","13259","","null","","","null","46","","","","","","","","","","","","","","","",""
"","ISI","","html-keyboard-response","315","413095","0.0-1.0-417.0","0","0","13259","","null","","","null","46","NaN","","","","","","","","","","","","","","",""
"","S2","","html-keyboard-response","316","413346","0.0-1.0-418.0","0","0","13259","","null","","","null","46","","NaN","","","","","","","","","","","","","",""
"","response","","html-keyboard-response","317","413473","0.0-1.0-419.0-0.0","0","0","13259","","127","","","68","46","","","1","46","training","adjacent","AB","1","2","P.jpg","N.jpg","0","1","0","",""
"","feedback","","html-keyboard-response","318","414475","0.0-1.0-420.0-0.0","0","0","13259","","null","","","null","46","","","","","","","","","","","","","","","",""
"","time_out","","html-keyboard-response","319","416476","0.0-1.0-422.0-0.0","0","0","13259","","null","","","null","46","","","","","","","","","","","","","","","",""
"","ITI","","html-keyboard-response","320","417478","0.0-1.0-423.0","0","0","13259","","null","","","null","46","","","","","","","","","","","","","","","NaN",""
"","S1","","html-keyboard-response","321","417729","0.0-1.0-425.0","0","0","13259","","null","","","null","47","","","","","","","","","","","","","","","",""
"","ISI","","html-keyboard-response","322","418731","0.0-1.0-426.0","0","0","13259","","null","","","null","47","NaN","","","","","","","","","","","","","","",""
"","S2","","html-keyboard-response","323","418981","0.0-1.0-427.0","0","0","13259","","null","","","null","47","","NaN","","","","","","","","","","","","","",""
"","response","","html-keyboard-response","324","419314","0.0-1.0-428.0-0.0","0","0","13259","","332","","","75","47","","","1","47","training","adjacent","EF","5","6","M.jpg","R.jpg","1","1","1","",""
"","feedback","","html-keyboard-response","325","420315","0.0-1.0-429.0-0.0","0","0","13259","","null","","","null","47","","","","","","","","","","","","","","","",""
"","ITI","","html-keyboard-response","326","421317","0.0-1.0-432.0","0","0","13259","","null","","","null","47","","","","","","","","","","","","","","","NaN",""
"","block_over","","html-keyboard-response","327","425680","0.0-1.0-433.0-0.0","0","0","13259","","4362","","","32","47","","","","","","","","","","","","","","","",""
"","S1","","html-keyboard-response","328","425931","0.0-1.0-434.0","0","0","13259","","null","","","null","48","","","","","","","","","","","","","","","",""
"","ISI","","html-keyboard-response","329","426933","0.0-1.0-435.0","0","0","13259","","null","","","null","48","NaN","","","","","","","","","","","","","","",""
"","S2","","html-keyboard-response","330","427183","0.0-1.0-436.0","0","0","13259","","null","","","null","48","","NaN","","","","","","","","","","","","","",""
"","response","","html-keyboard-response","331","427516","0.0-1.0-437.0-0.0","0","0","13259","","332","","","75","48","","","2","48","training","adjacent","DC","4","3","Q.jpg","O.jpg","1","0","0","",""
"","feedback","","html-keyboard-response","332","428518","0.0-1.0-438.0-0.0","0","0","13259","","null","","","null","48","","","","","","","","","","","","","","","",""
"","time_out","","html-keyboard-response","333","430520","0.0-1.0-440.0-0.0","0","0","13259","","null","","","null","48","","","","","","","","","","","","","","","",""
"","ITI","","html-keyboard-response","334","431522","0.0-1.0-441.0","0","0","13259","","null","","","null","48","","","","","","","","","","","","","","","NaN",""
"","S1","","html-keyboard-response","335","431773","0.0-1.0-443.0","0","0","13259","","null","","","null","49","","","","","","","","","","","","","","","",""
"","ISI","","html-keyboard-response","336","432775","0.0-1.0-444.0","0","0","13259","","null","","","null","49","NaN","","","","","","","","","","","","","","",""
"","S2","","html-keyboard-response","337","433025","0.0-1.0-445.0","0","0","13259","","null","","","null","49","","NaN","","","","","","","","","","","","","",""
"","response","","html-keyboard-response","338","433309","0.0-1.0-446.0-0.0","0","0","13259","","283","","","68","49","","","2","49","training","adjacent","FE","6","5","R.jpg","M.jpg","0","0","1","",""
"","feedback","","html-keyboard-response","339","434310","0.0-1.0-447.0-0.0","0","0","13259","","null","","","null","49","","","","","","","","","","","","","","","",""
"","ITI","","html-keyboard-response","340","435312","0.0-1.0-450.0","0","0","13259","","null","","","null","49","","","","","","","","","","","","","","","NaN",""
"","S1","","html-keyboard-response","341","435563","0.0-1.0-452.0","0","0","13259","","null","","","null","50","","","","","","","","","","","","","","","",""
"","ISI","","html-keyboard-response","342","436565","0.0-1.0-453.0","0","0","13259","","null","","","null","50","NaN","","","","","","","","","","","","","","",""
"","S2","","html-keyboard-response","343","436816","0.0-1.0-454.0","0","0","13259","","null","","","null","50","","NaN","","","","","","","","","","","","","",""
"","response","","html-keyboard-response","344","437075","0.0-1.0-455.0-0.0","0","0","13259","","259","","","68","50","","","2","50","training","adjacent","BC","2","3","N.jpg","O.jpg","0","1","0","",""
"","feedback","","html-keyboard-response","345","438077","0.0-1.0-456.0-0.0","0","0","13259","","null","","","null","50","","","","","","","","","","","","","","","",""
"","time_out","","html-keyboard-response","346","440079","0.0-1.0-458.0-0.0","0","0","13259","","null","","","null","50","","","","","","","","","","","","","","","",""
"","ITI","","html-keyboard-response","347","441079","0.0-1.0-459.0","0","0","13259","","null","","","null","50","","","","","","","","","","","","","","","NaN",""
"","S1","","html-keyboard-response","348","441330","0.0-1.0-461.0","0","0","13259","","null","","","null","51","","","","","","","","","","","","","","","",""
"","ISI","","html-keyboard-response","349","442331","0.0-1.0-462.0","0","0","13259","","null","","","null","51","NaN","","","","","","","","","","","","","","",""
"","S2","","html-keyboard-response","350","442584","0.0-1.0-463.0","0","0","13259","","null","","","null","51","","NaN","","","","","","","","","","","","","",""
"","response","","html-keyboard-response","351","442833","0.0-1.0-464.0-0.0","0","0","13259","","248","","","68","51","","","2","51","training","adjacent","EF","5","6","M.jpg","R.jpg","0","1","0","",""
"","feedback","","html-keyboard-response","352","443835","0.0-1.0-465.0-0.0","0","0","13259","","null","","","null","51","","","","","","","","","","","","","","","",""
"","time_out","","html-keyboard-response","353","445836","0.0-1.0-467.0-0.0","0","0","13259","","null","","","null","51","","","","","","","","","","","","","","","",""
"","ITI","","html-keyboard-response","354","446838","0.0-1.0-468.0","0","0","13259","","null","","","null","51","","","","","","","","","","","","","","","NaN",""
"","S1","","html-keyboard-response","355","447090","0.0-1.0-470.0","0","0","13259","","null","","","null","52","","","","","","","","","","","","","","","",""
"","ISI","","html-keyboard-response","356","448090","0.0-1.0-471.0","0","0","13259","","null","","","null","52","NaN","","","","","","","","","","","","","","",""
"","S2","","html-keyboard-response","357","448341","0.0-1.0-472.0","0","0","13259","","null","","","null","52","","NaN","","","","","","","","","","","","","",""
"","response","","html-keyboard-response","358","448570","0.0-1.0-473.0-0.0","0","0","13259","","228","","","75","52","","","2","52","training","adjacent","DC","4","3","Q.jpg","O.jpg","1","0","0","",""
"","feedback","","html-keyboard-response","359","449571","0.0-1.0-474.0-0.0","0","0","13259","","null","","","null","52","","","","","","","","","","","","","","","",""
"","time_out","","html-keyboard-response","360","451573","0.0-1.0-476.0-0.0","0","0","13259","","null","","","null","52","","","","","","","","","","","","","","","",""
"","ITI","","html-keyboard-response","361","452575","0.0-1.0-477.0","0","0","13259","","null","","","null","52","","","","","","","","","","","","","","","NaN",""
"","S1","","html-keyboard-response","362","452826","0.0-1.0-479.0","0","0","13259","","null","","","null","53","","","","","","","","","","","","","","","",""
"","ISI","","html-keyboard-response","363","453827","0.0-1.0-480.0","0","0","13259","","null","","","null","53","NaN","","","","","","","","","","","","","","",""
"","S2","","html-keyboard-response","364","454079","0.0-1.0-481.0","0","0","13259","","null","","","null","53","","NaN","","","","","","","","","","","","","",""
"","response","","html-keyboard-response","365","454506","0.0-1.0-482.0-0.0","0","0","13259","","427","","","68","53","","","2","53","training","adjacent","BA","2","1","N.jpg","P.jpg","0","0","1","",""
"","feedback","","html-keyboard-response","366","455508","0.0-1.0-483.0-0.0","0","0","13259","","null","","","null","53","","","","","","","","","","","","","","","",""
"","ITI","","html-keyboard-response","367","456510","0.0-1.0-486.0","0","0","13259","","null","","","null","53","","","","","","","","","","","","","","","NaN",""
"","S1","","html-keyboard-response","368","456762","0.0-1.0-488.0","0","0","13259","","null","","","null","54","","","","","","","","","","","","","","","",""
"","ISI","","html-keyboard-response","369","457762","0.0-1.0-489.0","0","0","13259","","null","","","null","54","NaN","","","","","","","","","","","","","","",""
"","S2","","html-keyboard-response","370","458013","0.0-1.0-490.0","0","0","13259","","null","","","null","54","","NaN","","","","","","","","","","","","","",""
"","response","","html-keyboard-response","371","458291","0.0-1.0-491.0-0.0","0","0","13259","","277","","","68","54","","","2","54","training","adjacent","BA","2","1","N.jpg","P.jpg","0","0","1","",""
"","feedback","","html-keyboard-response","372","459292","0.0-1.0-492.0-0.0","0","0","13259","","null","","","null","54","","","","","","","","","","","","","","","",""
"","ITI","","html-keyboard-response","373","460293","0.0-1.0-495.0","0","0","13259","","null","","","null","54","","","","","","","","","","","","","","","NaN",""
"","S1","","html-keyboard-response","374","460545","0.0-1.0-497.0","0","0","13259","","null","","","null","55","","","","","","","","","","","","","","","",""
"","ISI","","html-keyboard-response","375","461546","0.0-1.0-498.0","0","0","13259","","null","","","null","55","NaN","","","","","","","","","","","","","","",""
"","S2","","html-keyboard-response","376","461798","0.0-1.0-499.0","0","0","13259","","null","","","null","55","","NaN","","","","","","","","","","","","","",""
"","response","","html-keyboard-response","377","462081","0.0-1.0-500.0-0.0","0","0","13259","","283","","","68","55","","","2","55","training","adjacent","EF","5","6","M.jpg","R.jpg","0","1","0","",""
"","feedback","","html-keyboard-response","378","463083","0.0-1.0-501.0-0.0","0","0","13259","","null","","","null","55","","","","","","","","","","","","","","","",""
"","time_out","","html-keyboard-response","379","465084","0.0-1.0-503.0-0.0","0","0","13259","","null","","","null","55","","","","","","","","","","","","","","","",""
"","ITI","","html-keyboard-response","380","466085","0.0-1.0-504.0","0","0","13259","","null","","","null","55","","","","","","","","","","","","","","","NaN",""
"","S1","","html-keyboard-response","381","466336","0.0-1.0-506.0","0","0","13259","","null","","","null","56","","","","","","","","","","","","","","","",""
"","ISI","","html-keyboard-response","382","467337","0.0-1.0-507.0","0","0","13259","","null","","","null","56","NaN","","","","","","","","","","","","","","",""
"","S2","","html-keyboard-response","383","467589","0.0-1.0-508.0","0","0","13259","","null","","","null","56","","NaN","","","","","","","","","","","","","",""
"","response","","html-keyboard-response","384","468331","0.0-1.0-509.0-0.0","0","0","13259","","741","","","75","56","","","2","56","training","adjacent","AB","1","2","P.jpg","N.jpg","1","1","1","",""
"","feedback","","html-keyboard-response","385","469332","0.0-1.0-510.0-0.0","0","0","13259","","null","","","null","56","","","","","","","","","","","","","","","",""
"","ITI","","html-keyboard-response","386","470333","0.0-1.0-513.0","0","0","13259","","null","","","null","56","","","","","","","","","","","","","","","NaN",""
"","S1","","html-keyboard-response","387","470585","0.0-1.0-515.0","0","0","13259","","null","","","null","57","","","","","","","","","","","","","","","",""
"","ISI","","html-keyboard-response","388","471586","0.0-1.0-516.0","0","0","13259","","null","","","null","57","NaN","","","","","","","","","","","","","","",""
"","S2","","html-keyboard-response","389","471837","0.0-1.0-517.0","0","0","13259","","null","","","null","57","","NaN","","","","","","","","","","","","","",""
"","response","","html-keyboard-response","390","472122","0.0-1.0-518.0-0.0","0","0","13259","","284","","","68","57","","","2","57","training","adjacent","FG","6","7","R.jpg","L.jpg","0","1","0","",""
"","feedback","","html-keyboard-response","391","473123","0.0-1.0-519.0-0.0","0","0","13259","","null","","","null","57","","","","","","","","","","","","","","","",""
"","time_out","","html-keyboard-response","392","475125","0.0-1.0-521.0-0.0","0","0","13259","","null","","","null","57","","","","","","","","","","","","","","","",""
"","ITI","","html-keyboard-response","393","476125","0.0-1.0-522.0","0","0","13259","","null","","","null","57","","","","","","","","","","","","","","","NaN",""
"","S1","","html-keyboard-response","394","476376","0.0-1.0-524.0","0","0","13259","","null","","","null","58","","","","","","","","","","","","","","","",""
"","ISI","","html-keyboard-response","395","477377","0.0-1.0-525.0","0","0","13259","","null","","","null","58","NaN","","","","","","","","","","","","","","",""
"","S2","","html-keyboard-response","396","477629","0.0-1.0-526.0","0","0","13259","","null","","","null","58","","NaN","","","","","","","","","","","","","",""
"","response","","html-keyboard-response","397","477882","0.0-1.0-527.0-0.0","0","0","13259","","251","","","75","58","","","2","58","training","adjacent","EF","5","6","M.jpg","R.jpg","1","1","1","",""
"","feedback","","html-keyboard-response","398","478884","0.0-1.0-528.0-0.0","0","0","13259","","null","","","null","58","","","","","","","","","","","","","","","",""
"","ITI","","html-keyboard-response","399","479886","0.0-1.0-531.0","0","0","13259","","null","","","null","58","","","","","","","","","","","","","","","NaN",""
"","S1","","html-keyboard-response","400","480137","0.0-1.0-533.0","0","0","13259","","null","","","null","59","","","","","","","","","","","","","","","",""
"","ISI","","html-keyboard-response","401","481139","0.0-1.0-534.0","0","0","13259","","null","","","null","59","NaN","","","","","","","","","","","","","","",""
"","S2","","html-keyboard-response","402","481390","0.0-1.0-535.0","0","0","13259","","null","","","null","59","","NaN","","","","","","","","","","","","","",""
"","response","","html-keyboard-response","403","481488","0.0-1.0-536.0-0.0","0","0","13259","","98","","","75","59","","","2","59","training","adjacent","AB","1","2","P.jpg","N.jpg","1","1","1","",""
"","feedback","","html-keyboard-response","404","482489","0.0-1.0-537.0-0.0","0","0","13259","","null","","","null","59","","","","","","","","","","","","","","","",""
"","ITI","","html-keyboard-response","405","483490","0.0-1.0-540.0","0","0","13259","","null","","","null","59","","","","","","","","","","","","","","","NaN",""
"","S1","","html-keyboard-response","406","483740","0.0-1.0-542.0","0","0","13259","","null","","","null","60","","","","","","","","","","","","","","","",""
"","ISI","","html-keyboard-response","407","484741","0.0-1.0-543.0","0","0","13259","","null","","","null","60","NaN","","","","","","","","","","","","","","",""
"","S2","","html-keyboard-response","408","484992","0.0-1.0-544.0","0","0","13259","","null","","","null","60","","NaN","","","","","","","","","","","","","",""
"","response","","html-keyboard-response","409","485269","0.0-1.0-545.0-0.0","0","0","13259","","276","","","75","60","","","2","60","training","adjacent","BC","2","3","N.jpg","O.jpg","1","1","1","",""
"","feedback","","html-keyboard-response","410","486269","0.0-1.0-546.0-0.0","0","0","13259","","null","","","null","60","","","","","","","","","","","","","","","",""
"","ITI","","html-keyboard-response","411","487270","0.0-1.0-549.0","0","0","13259","","null","","","null","60","","","","","","","","","","","","","","","NaN",""
"","S1","","html-keyboard-response","412","487522","0.0-1.0-551.0","0","0","13259","","null","","","null","61","","","","","","","","","","","","","","","",""
"","ISI","","html-keyboard-response","413","488523","0.0-1.0-552.0","0","0","13259","","null","","","null","61","NaN","","","","","","","","","","","","","","",""
"","S2","","html-keyboard-response","414","488774","0.0-1.0-553.0","0","0","13259","","null","","","null","61","","NaN","","","","","","","","","","","","","",""
"","response","","html-keyboard-response","415","489087","0.0-1.0-554.0-0.0","0","0","13259","","312","","","75","61","","","2","61","training","adjacent","CB","3","2","O.jpg","N.jpg","1","0","0","",""
"","feedback","","html-keyboard-response","416","490088","0.0-1.0-555.0-0.0","0","0","13259","","null","","","null","61","","","","","","","","","","","","","","","",""
"","time_out","","html-keyboard-response","417","492090","0.0-1.0-557.0-0.0","0","0","13259","","null","","","null","61","","","","","","","","","","","","","","","",""
"","ITI","","html-keyboard-response","418","493091","0.0-1.0-558.0","0","0","13259","","null","","","null","61","","","","","","","","","","","","","","","NaN",""
"","S1","","html-keyboard-response","419","493343","0.0-1.0-560.0","0","0","13259","","null","","","null","62","","","","","","","","","","","","","","","",""
"","ISI","","html-keyboard-response","420","494344","0.0-1.0-561.0","0","0","13259","","null","","","null","62","NaN","","","","","","","","","","","","","","",""
"","S2","","html-keyboard-response","421","494595","0.0-1.0-562.0","0","0","13259","","null","","","null","62","","NaN","","","","","","","","","","","","","",""
"","response","","html-keyboard-response","422","494787","0.0-1.0-563.0-0.0","0","0","13259","","192","","","68","62","","","2","62","training","adjacent","FG","6","7","R.jpg","L.jpg","0","1","0","",""
"","feedback","","html-keyboard-response","423","495788","0.0-1.0-564.0-0.0","0","0","13259","","null","","","null","62","","","","","","","","","","","","","","","",""
"","time_out","","html-keyboard-response","424","497790","0.0-1.0-566.0-0.0","0","0","13259","","null","","","null","62","","","","","","","","","","","","","","","",""
"","ITI","","html-keyboard-response","425","498792","0.0-1.0-567.0","0","0","13259","","null","","","null","62","","","","","","","","","","","","","","","NaN",""
"","S1","","html-keyboard-response","426","499043","0.0-1.0-569.0","0","0","13259","","null","","","null","63","","","","","","","","","","","","","","","",""
"","ISI","","html-keyboard-response","427","500044","0.0-1.0-570.0","0","0","13259","","null","","","null","63","NaN","","","","","","","","","","","","","","",""
"","S2","","html-keyboard-response","428","500295","0.0-1.0-571.0","0","0","13259","","null","","","null","63","","NaN","","","","","","","","","","","","","",""
"","response","","html-keyboard-response","429","500499","0.0-1.0-572.0-0.0","0","0","13259","","204","","","75","63","","","2","63","training","adjacent","FE","6","5","R.jpg","M.jpg","1","0","0","",""
"","feedback","","html-keyboard-response","430","501501","0.0-1.0-573.0-0.0","0","0","13259","","null","","","null","63","","","","","","","","","","","","","","","",""
"","time_out","","html-keyboard-response","431","503503","0.0-1.0-575.0-0.0","0","0","13259","","null","","","null","63","","","","","","","","","","","","","","","",""
"","ITI","","html-keyboard-response","432","504504","0.0-1.0-576.0","0","0","13259","","null","","","null","63","","","","","","","","","","","","","","","NaN",""
"","S1","","html-keyboard-response","433","504754","0.0-1.0-578.0","0","0","13259","","null","","","null","64","","","","","","","","","","","","","","","",""
"","ISI","","html-keyboard-response","434","505756","0.0-1.0-579.0","0","0","13259","","null","","","null","64","NaN","","","","","","","","","","","","","","",""
"","S2","","html-keyboard-response","435","506007","0.0-1.0-580.0","0","0","13259","","null","","","null","64","","NaN","","","","","","","","","","","","","",""
"","response","","html-keyboard-response","436","506273","0.0-1.0-581.0-0.0","0","0","13259","","265","","","68","64","","","2","64","training","adjacent","GF","7","6","L.jpg","R.jpg","0","0","1","",""
"","feedback","","html-keyboard-response","437","507275","0.0-1.0-582.0-0.0","0","0","13259","","null","","","null","64","","","","","","","","","","","","","","","",""
"","ITI","","html-keyboard-response","438","508276","0.0-1.0-585.0","0","0","13259","","null","","","null","64","","","","","","","","","","","","","","","NaN",""
"","S1","","html-keyboard-response","439","508527","0.0-1.0-587.0","0","0","13259","","null","","","null","65","","","","","","","","","","","","","","","",""
"","ISI","","html-keyboard-response","440","509528","0.0-1.0-588.0","0","0","13259","","null","","","null","65","NaN","","","","","","","","","","","","","","",""
"","S2","","html-keyboard-response","441","509778","0.0-1.0-589.0","0","0","13259","","null","","","null","65","","NaN","","","","","","","","","","","","","",""
"","response","","html-keyboard-response","442","510094","0.0-1.0-590.0-0.0","0","0","13259","","316","","","75","65","","","2","65","training","adjacent","ED","5","4","M.jpg","Q.jpg","1","0","0","",""
"","feedback","","html-keyboard-response","443","511096","0.0-1.0-591.0-0.0","0","0","13259","","null","","","null","65","","","","","","","","","","","","","","","",""
"","time_out","","html-keyboard-response","444","513098","0.0-1.0-593.0-0.0","0","0","13259","","null","","","null","65","","","","","","","","","","","","","","","",""
"","ITI","","html-keyboard-response","445","514098","0.0-1.0-594.0","0","0","13259","","null","","","null","65","","","","","","","","","","","","","","","NaN",""
"","S1","","html-keyboard-response","446","514350","0.0-1.0-596.0","0","0","13259","","null","","","null","66","","","","","","","","","","","","","","","",""
"","ISI","","html-keyboard-response","447","515351","0.0-1.0-597.0","0","0","13259","","null","","","null","66","NaN","","","","","","","","","","","","","","",""
"","S2","","html-keyboard-response","448","515601","0.0-1.0-598.0","0","0","13259","","null","","","null","66","","NaN","","","","","","","","","","","","","",""
"","response","","html-keyboard-response","449","516097","0.0-1.0-599.0-0.0","0","0","13259","","496","","","68","66","","","2","66","training","adjacent","CB","3","2","O.jpg","N.jpg","0","0","1","",""
"","feedback","","html-keyboard-response","450","517099","0.0-1.0-600.0-0.0","0","0","13259","","null","","","null","66","","","","","","","","","","","","","","","",""
"","ITI","","html-keyboard-response","451","518100","0.0-1.0-603.0","0","0","13259","","null","","","null","66","","","","","","","","","","","","","","","NaN",""
"","S1","","html-keyboard-response","452","518351","0.0-1.0-605.0","0","0","13259","","null","","","null","67","","","","","","","","","","","","","","","",""
"","ISI","","html-keyboard-response","453","519351","0.0-1.0-606.0","0","0","13259","","null","","","null","67","NaN","","","","","","","","","","","","","","",""
"","S2","","html-keyboard-response","454","519603","0.0-1.0-607.0","0","0","13259","","null","","","null","67","","NaN","","","","","","","","","","","","","",""
"","response","","html-keyboard-response","455","519976","0.0-1.0-608.0-0.0","0","0","13259","","373","","","68","67","","","2","67","training","adjacent","GF","7","6","L.jpg","R.jpg","0","0","1","",""
"","feedback","","html-keyboard-response","456","520978","0.0-1.0-609.0-0.0","0","0","13259","","null","","","null","67","","","","","","","","","","","","","","","",""
"","ITI","","html-keyboard-response","457","521979","0.0-1.0-612.0","0","0","13259","","null","","","null","67","","","","","","","","","","","","","","","NaN",""
"","S1","","html-keyboard-response","458","522231","0.0-1.0-614.0","0","0","13259","","null","","","null","68","","","","","","","","","","","","","","","",""
"","ISI","","html-keyboard-response","459","523232","0.0-1.0-615.0","0","0","13259","","null","","","null","68","NaN","","","","","","","","","","","","","","",""
"","S2","","html-keyboard-response","460","523484","0.0-1.0-616.0","0","0","13259","","null","","","null","68","","NaN","","","","","","","","","","","","","",""
"","response","","html-keyboard-response","461","523724","0.0-1.0-617.0-0.0","0","0","13259","","239","","","68","68","","","2","68","training","adjacent","EF","5","6","M.jpg","R.jpg","0","1","0","",""
"","feedback","","html-keyboard-response","462","524725","0.0-1.0-618.0-0.0","0","0","13259","","null","","","null","68","","","","","","","","","","","","","","","",""
"","time_out","","html-keyboard-response","463","526727","0.0-1.0-620.0-0.0","0","0","13259","","null","","","null","68","","","","","","","","","","","","","","","",""
"","ITI","","html-keyboard-response","464","527727","0.0-1.0-621.0","0","0","13259","","null","","","null","68","","","","","","","","","","","","","","","NaN",""
"","S1","","html-keyboard-response","465","527978","0.0-1.0-623.0","0","0","13259","","null","","","null","69","","","","","","","","","","","","","","","",""
"","ISI","","html-keyboard-response","466","528979","0.0-1.0-624.0","0","0","13259","","null","","","null","69","NaN","","","","","","","","","","","","","","",""
"","S2","","html-keyboard-response","467","529231","0.0-1.0-625.0","0","0","13259","","null","","","null","69","","NaN","","","","","","","","","","","","","",""
"","response","","html-keyboard-response","468","529506","0.0-1.0-626.0-0.0","0","0","13259","","275","","","75","69","","","2","69","training","adjacent","AB","1","2","P.jpg","N.jpg","1","1","1","",""
"","feedback","","html-keyboard-response","469","530509","0.0-1.0-627.0-0.0","0","0","13259","","null","","","null","69","","","","","","","","","","","","","","","",""
"","ITI","","html-keyboard-response","470","531510","0.0-1.0-630.0","0","0","13259","","null","","","null","69","","","","","","","","","","","","","","","NaN",""
"","S1","","html-keyboard-response","471","531761","0.0-1.0-632.0","0","0","13259","","null","","","null","70","","","","","","","","","","","","","","","",""
"","ISI","","html-keyboard-response","472","532761","0.0-1.0-633.0","0","0","13259","","null","","","null","70","NaN","","","","","","","","","","","","","","",""
"","S2","","html-keyboard-response","473","533013","0.0-1.0-634.0","0","0","13259","","null","","","null","70","","NaN","","","","","","","","","","","","","",""
"","response","","html-keyboard-response","474","533567","0.0-1.0-635.0-0.0","0","0","13259","","553","","","68","70","","","2","70","training","adjacent","BC","2","3","N.jpg","O.jpg","0","1","0","",""
"","feedback","","html-keyboard-response","475","534568","0.0-1.0-636.0-0.0","0","0","13259","","null","","","null","70","","","","","","","","","","","","","","","",""
"","time_out","","html-keyboard-response","476","536569","0.0-1.0-638.0-0.0","0","0","13259","","null","","","null","70","","","","","","","","","","","","","","","",""
"","ITI","","html-keyboard-response","477","537571","0.0-1.0-639.0","0","0","13259","","null","","","null","70","","","","","","","","","","","","","","","NaN",""
"","S1","","html-keyboard-response","478","537822","0.0-1.0-641.0","0","0","13259","","null","","","null","71","","","","","","","","","","","","","","","",""
"","ISI","","html-keyboard-response","479","538825","0.0-1.0-642.0","0","0","13259","","null","","","null","71","NaN","","","","","","","","","","","","","","",""
"","S2","","html-keyboard-response","480","539075","0.0-1.0-643.0","0","0","13259","","null","","","null","71","","NaN","","","","","","","","","","","","","",""
"","response","","html-keyboard-response","481","539491","0.0-1.0-644.0-0.0","0","0","13259","","416","","","75","71","","","2","71","training","adjacent","ED","5","4","M.jpg","Q.jpg","1","0","0","",""
"","feedback","","html-keyboard-response","482","540493","0.0-1.0-645.0-0.0","0","0","13259","","null","","","null","71","","","","","","","","","","","","","","","",""
"","time_out","","html-keyboard-response","483","542495","0.0-1.0-647.0-0.0","0","0","13259","","null","","","null","71","","","","","","","","","","","","","","","",""
"","ITI","","html-keyboard-response","484","543497","0.0-1.0-648.0","0","0","13259","","null","","","null","71","","","","","","","","","","","","","","","NaN",""
"","S1","","html-keyboard-response","485","543747","0.0-1.0-650.0","0","0","13259","","null","","","null","72","","","","","","","","","","","","","","","",""
"","ISI","","html-keyboard-response","486","544749","0.0-1.0-651.0","0","0","13259","","null","","","null","72","NaN","","","","","","","","","","","","","","",""
"","S2","","html-keyboard-response","487","544999","0.0-1.0-652.0","0","0","13259","","null","","","null","72","","NaN","","","","","","","","","","","","","",""
"","response","","html-keyboard-response","488","545309","0.0-1.0-653.0-0.0","0","0","13259","","310","","","68","72","","","2","72","training","adjacent","FE","6","5","R.jpg","M.jpg","0","0","1","",""
"","feedback","","html-keyboard-response","489","546312","0.0-1.0-654.0-0.0","0","0","13259","","null","","","null","72","","","","","","","","","","","","","","","",""
"","ITI","","html-keyboard-response","490","547312","0.0-1.0-657.0","0","0","13259","","null","","","null","72","","","","","","","","","","","","","","","NaN",""
"","S1","","html-keyboard-response","491","547564","0.0-1.0-659.0","0","0","13259","","null","","","null","73","","","","","","","","","","","","","","","",""
"","ISI","","html-keyboard-response","492","548566","0.0-1.0-660.0","0","0","13259","","null","","","null","73","NaN","","","","","","","","","","","","","","",""
"","S2","","html-keyboard-response","493","548816","0.0-1.0-661.0","0","0","13259","","null","","","null","73","","NaN","","","","","","","","","","","","","",""
"","response","","html-keyboard-response","494","549071","0.0-1.0-662.0-0.0","0","0","13259","","254","","","75","73","","","2","73","training","adjacent","FE","6","5","R.jpg","M.jpg","1","0","0","",""
"","feedback","","html-keyboard-response","495","550072","0.0-1.0-663.0-0.0","0","0","13259","","null","","","null","73","","","","","","","","","","","","","","","",""
"","time_out","","html-keyboard-response","496","552073","0.0-1.0-665.0-0.0","0","0","13259","","null","","","null","73","","","","","","","","","","","","","","","",""
"","ITI","","html-keyboard-response","497","553073","0.0-1.0-666.0","0","0","13259","","null","","","null","73","","","","","","","","","","","","","","","NaN",""
"","S1","","html-keyboard-response","498","553325","0.0-1.0-668.0","0","0","13259","","null","","","null","74","","","","","","","","","","","","","","","",""
"","ISI","","html-keyboard-response","499","554326","0.0-1.0-669.0","0","0","13259","","null","","","null","74","NaN","","","","","","","","","","","","","","",""
"","S2","","html-keyboard-response","500","554577","0.0-1.0-670.0","0","0","13259","","null","","","null","74","","NaN","","","","","","","","","","","","","",""
"","response","","html-keyboard-response","501","555216","0.0-1.0-671.0-0.0","0","0","13259","","637","","","68","74","","","2","74","training","adjacent","DE","4","5","Q.jpg","M.jpg","0","1","0","",""
"","feedback","","html-keyboard-response","502","556217","0.0-1.0-672.0-0.0","0","0","13259","","null","","","null","74","","","","","","","","","","","","","","","",""
"","time_out","","html-keyboard-response","503","558219","0.0-1.0-674.0-0.0","0","0","13259","","null","","","null","74","","","","","","","","","","","","","","","",""
"","ITI","","html-keyboard-response","504","559221","0.0-1.0-675.0","0","0","13259","","null","","","null","74","","","","","","","","","","","","","","","NaN",""
"","S1","","html-keyboard-response","505","559472","0.0-1.0-677.0","0","0","13259","","null","","","null","75","","","","","","","","","","","","","","","",""
"","ISI","","html-keyboard-response","506","560473","0.0-1.0-678.0","0","0","13259","","null","","","null","75","NaN","","","","","","","","","","","","","","",""
"","S2","","html-keyboard-response","507","560724","0.0-1.0-679.0","0","0","13259","","null","","","null","75","","NaN","","","","","","","","","","","","","",""
"","response","","html-keyboard-response","508","561049","0.0-1.0-680.0-0.0","0","0","13259","","325","","","75","75","","","2","75","training","adjacent","DE","4","5","Q.jpg","M.jpg","1","1","1","",""
"","feedback","","html-keyboard-response","509","562052","0.0-1.0-681.0-0.0","0","0","13259","","null","","","null","75","","","","","","","","","","","","","","","",""
"","ITI","","html-keyboard-response","510","563053","0.0-1.0-684.0","0","0","13259","","null","","","null","75","","","","","","","","","","","","","","","NaN",""
"","S1","","html-keyboard-response","511","563304","0.0-1.0-686.0","0","0","13259","","null","","","null","76","","","","","","","","","","","","","","","",""
"","ISI","","html-keyboard-response","512","564305","0.0-1.0-687.0","0","0","13259","","null","","","null","76","NaN","","","","","","","","","","","","","","",""
"","S2","","html-keyboard-response","513","564557","0.0-1.0-688.0","0","0","13259","","null","","","null","76","","NaN","","","","","","","","","","","","","",""
"","response","","html-keyboard-response","514","565080","0.0-1.0-689.0-0.0","0","0","13259","","522","","","75","76","","","2","76","training","adjacent","CD","3","4","O.jpg","Q.jpg","1","1","1","",""
"","feedback","","html-keyboard-response","515","566082","0.0-1.0-690.0-0.0","0","0","13259","","null","","","null","76","","","","","","","","","","","","","","","",""
"","ITI","","html-keyboard-response","516","567083","0.0-1.0-693.0","0","0","13259","","null","","","null","76","","","","","","","","","","","","","","","NaN",""
"","S1","","html-keyboard-response","517","567333","0.0-1.0-695.0","0","0","13259","","null","","","null","77","","","","","","","","","","","","","","","",""
"","ISI","","html-keyboard-response","518","568335","0.0-1.0-696.0","0","0","13259","","null","","","null","77","NaN","","","","","","","","","","","","","","",""
"","S2","","html-keyboard-response","519","568586","0.0-1.0-697.0","0","0","13259","","null","","","null","77","","NaN","","","","","","","","","","","","","",""
"","response","","html-keyboard-response","520","569171","0.0-1.0-698.0-0.0","0","0","13259","","583","","","68","77","","","2","77","training","adjacent","ED","5","4","M.jpg","Q.jpg","0","0","1","",""
"","feedback","","html-keyboard-response","521","570173","0.0-1.0-699.0-0.0","0","0","13259","","null","","","null","77","","","","","","","","","","","","","","","",""
"","ITI","","html-keyboard-response","522","571174","0.0-1.0-702.0","0","0","13259","","null","","","null","77","","","","","","","","","","","","","","","NaN",""
"","S1","","html-keyboard-response","523","571425","0.0-1.0-704.0","0","0","13259","","null","","","null","78","","","","","","","","","","","","","","","",""
"","ISI","","html-keyboard-response","524","572427","0.0-1.0-705.0","0","0","13259","","null","","","null","78","NaN","","","","","","","","","","","","","","",""
"","S2","","html-keyboard-response","525","572678","0.0-1.0-706.0","0","0","13259","","null","","","null","78","","NaN","","","","","","","","","","","","","",""
"","response","","html-keyboard-response","526","573467","0.0-1.0-707.0-0.0","0","0","13259","","788","","","75","78","","","2","78","training","adjacent","CD","3","4","O.jpg","Q.jpg","1","1","1","",""
"","feedback","","html-keyboard-response","527","574469","0.0-1.0-708.0-0.0","0","0","13259","","null","","","null","78","","","","","","","","","","","","","","","",""
"","ITI","","html-keyboard-response","528","575469","0.0-1.0-711.0","0","0","13259","","null","","","null","78","","","","","","","","","","","","","","","NaN",""
"","S1","","html-keyboard-response","529","575721","0.0-1.0-713.0","0","0","13259","","null","","","null","79","","","","","","","","","","","","","","","",""
"","ISI","","html-keyboard-response","530","576722","0.0-1.0-714.0","0","0","13259","","null","","","null","79","NaN","","","","","","","","","","","","","","",""
"","S2","","html-keyboard-response","531","576973","0.0-1.0-715.0","0","0","13259","","null","","","null","79","","NaN","","","","","","","","","","","","","",""
"","response","","html-keyboard-response","532","577298","0.0-1.0-716.0-0.0","0","0","13259","","324","","","68","79","","","2","79","training","adjacent","GF","7","6","L.jpg","R.jpg","0","0","1","",""
"","feedback","","html-keyboard-response","533","578299","0.0-1.0-717.0-0.0","0","0","13259","","null","","","null","79","","","","","","","","","","","","","","","",""
"","ITI","","html-keyboard-response","534","579300","0.0-1.0-720.0","0","0","13259","","null","","","null","79","","","","","","","","","","","","","","","NaN",""
"","S1","","html-keyboard-response","535","579551","0.0-1.0-722.0","0","0","13259","","null","","","null","80","","","","","","","","","","","","","","","",""
"","ISI","","html-keyboard-response","536","580552","0.0-1.0-723.0","0","0","13259","","null","","","null","80","NaN","","","","","","","","","","","","","","",""
"","S2","","html-keyboard-response","537","580804","0.0-1.0-724.0","0","0","13259","","null","","","null","80","","NaN","","","","","","","","","","","","","",""
"","response","","html-keyboard-response","538","581235","0.0-1.0-725.0-0.0","0","0","13259","","431","","","68","80","","","2","80","training","adjacent","GF","7","6","L.jpg","R.jpg","0","0","1","",""
"","feedback","","html-keyboard-response","539","582238","0.0-1.0-726.0-0.0","0","0","13259","","null","","","null","80","","","","","","","","","","","","","","","",""
"","ITI","","html-keyboard-response","540","583239","0.0-1.0-729.0","0","0","13259","","null","","","null","80","","","","","","","","","","","","","","","NaN",""
"","S1","","html-keyboard-response","541","583490","0.0-1.0-731.0","0","0","13259","","null","","","null","81","","","","","","","","","","","","","","","",""
"","ISI","","html-keyboard-response","542","584491","0.0-1.0-732.0","0","0","13259","","null","","","null","81","NaN","","","","","","","","","","","","","","",""
"","S2","","html-keyboard-response","543","584743","0.0-1.0-733.0","0","0","13259","","null","","","null","81","","NaN","","","","","","","","","","","","","",""
"","response","","html-keyboard-response","544","584990","0.0-1.0-734.0-0.0","0","0","13259","","247","","","68","81","","","2","81","training","adjacent","FG","6","7","R.jpg","L.jpg","0","1","0","",""
"","feedback","","html-keyboard-response","545","585993","0.0-1.0-735.0-0.0","0","0","13259","","null","","","null","81","","","","","","","","","","","","","","","",""
"","time_out","","html-keyboard-response","546","587995","0.0-1.0-737.0-0.0","0","0","13259","","null","","","null","81","","","","","","","","","","","","","","","",""
"","ITI","","html-keyboard-response","547","588996","0.0-1.0-738.0","0","0","13259","","null","","","null","81","","","","","","","","","","","","","","","NaN",""
"","S1","","html-keyboard-response","548","589247","0.0-1.0-740.0","0","0","13259","","null","","","null","82","","","","","","","","","","","","","","","",""
"","ISI","","html-keyboard-response","549","590248","0.0-1.0-741.0","0","0","13259","","null","","","null","82","NaN","","","","","","","","","","","","","","",""
"","S2","","html-keyboard-response","550","590499","0.0-1.0-742.0","0","0","13259","","null","","","null","82","","NaN","","","","","","","","","","","","","",""
"","response","","html-keyboard-response","551","590980","0.0-1.0-743.0-0.0","0","0","13259","","480","","","75","82","","","2","82","training","adjacent","CD","3","4","O.jpg","Q.jpg","1","1","1","",""
"","feedback","","html-keyboard-response","552","591982","0.0-1.0-744.0-0.0","0","0","13259","","null","","","null","82","","","","","","","","","","","","","","","",""
"","ITI","","html-keyboard-response","553","592984","0.0-1.0-747.0","0","0","13259","","null","","","null","82","","","","","","","","","","","","","","","NaN",""
"","S1","","html-keyboard-response","554","593234","0.0-1.0-749.0","0","0","13259","","null","","","null","83","","","","","","","","","","","","","","","",""
"","ISI","","html-keyboard-response","555","594235","0.0-1.0-750.0","0","0","13259","","null","","","null","83","NaN","","","","","","","","","","","","","","",""
"","S2","","html-keyboard-response","556","594487","0.0-1.0-751.0","0","0","13259","","null","","","null","83","","NaN","","","","","","","","","","","","","",""
"","response","","html-keyboard-response","557","594702","0.0-1.0-752.0-0.0","0","0","13259","","215","","","68","83","","","2","83","training","adjacent","DC","4","3","Q.jpg","O.jpg","0","0","1","",""
"","feedback","","html-keyboard-response","558","595703","0.0-1.0-753.0-0.0","0","0","13259","","null","","","null","83","","","","","","","","","","","","","","","",""
"","ITI","","html-keyboard-response","559","596706","0.0-1.0-756.0","0","0","13259","","null","","","null","83","","","","","","","","","","","","","","","NaN",""
"","S1","","html-keyboard-response","560","596956","0.0-1.0-758.0","0","0","13259","","null","","","null","84","","","","","","","","","","","","","","","",""
"","ISI","","html-keyboard-response","561","597958","0.0-1.0-759.0","0","0","13259","","null","","","null","84","NaN","","","","","","","","","","","","","","",""
"","S2","","html-keyboard-response","562","598209","0.0-1.0-760.0","0","0","13259","","null","","","null","84","","NaN","","","","","","","","","","","","","",""
"","response","","html-keyboard-response","563","599166","0.0-1.0-761.0-0.0","0","0","13259","","957","","","75","84","","","2","84","training","adjacent","DE","4","5","Q.jpg","M.jpg","1","1","1","",""
"","feedback","","html-keyboard-response","564","600168","0.0-1.0-762.0-0.0","0","0","13259","","null","","","null","84","","","","","","","","","","","","","","","",""
"","ITI","","html-keyboard-response","565","601170","0.0-1.0-765.0","0","0","13259","","null","","","null","84","","","","","","","","","","","","","","","NaN",""
"","S1","","html-keyboard-response","566","601420","0.0-1.0-767.0","0","0","13259","","null","","","null","85","","","","","","","","","","","","","","","",""
"","ISI","","html-keyboard-response","567","602421","0.0-1.0-768.0","0","0","13259","","null","","","null","85","NaN","","","","","","","","","","","","","","",""
"","S2","","html-keyboard-response","568","602672","0.0-1.0-769.0","0","0","13259","","null","","","null","85","","NaN","","","","","","","","","","","","","",""
"","response","","html-keyboard-response","569","603462","0.0-1.0-770.0-0.0","0","0","13259","","789","","","75","85","","","2","85","training","adjacent","DC","4","3","Q.jpg","O.jpg","1","0","0","",""
"","feedback","","html-keyboard-response","570","604463","0.0-1.0-771.0-0.0","0","0","13259","","null","","","null","85","","","","","","","","","","","","","","","",""
"","time_out","","html-keyboard-response","571","606465","0.0-1.0-773.0-0.0","0","0","13259","","null","","","null","85","","","","","","","","","","","","","","","",""
"","ITI","","html-keyboard-response","572","607466","0.0-1.0-774.0","0","0","13259","","null","","","null","85","","","","","","","","","","","","","","","NaN",""
"","S1","","html-keyboard-response","573","607717","0.0-1.0-776.0","0","0","13259","","null","","","null","86","","","","","","","","","","","","","","","",""
"","ISI","","html-keyboard-response","574","608718","0.0-1.0-777.0","0","0","13259","","null","","","null","86","NaN","","","","","","","","","","","","","","",""
"","S2","","html-keyboard-response","575","608969","0.0-1.0-778.0","0","0","13259","","null","","","null","86","","NaN","","","","","","","","","","","","","",""
"","response","","html-keyboard-response","576","610039","0.0-1.0-779.0-0.0","0","0","13259","","1069","","","75","86","","","2","86","training","adjacent","CB","3","2","O.jpg","N.jpg","1","0","0","",""
"","feedback","","html-keyboard-response","577","611041","0.0-1.0-780.0-0.0","0","0","13259","","null","","","null","86","","","","","","","","","","","","","","","",""
"","time_out","","html-keyboard-response","578","613042","0.0-1.0-782.0-0.0","0","0","13259","","null","","","null","86","","","","","","","","","","","","","","","",""
"","ITI","","html-keyboard-response","579","614043","0.0-1.0-783.0","0","0","13259","","null","","","null","86","","","","","","","","","","","","","","","NaN",""
