"success","ttype","start_time","trial_type","trial_index","time_elapsed","internal_node_id","warning","missed_checkup","PID","view_history","rt","responses","repeat_instructions","key_press","index","keypress_isi","keypress_S2","block","trial_num","phase","group_type","pair_type","S1_stim","S2_stim","S1_img","S2_img","S1_chosen","S1_higher","accuracy","keypress_iti","total_bonus_tally"
"true","full_screen","d04062023hr1937","fullscreen","0","7510","0.0-0.0","0","0","44266","","","","","","","","","","","","","","","","","","","","","",""
"","instructions","","instructions","1","21217","0.0-1.0-0.0-0.0","0","0","44266","[{""page_index"":0,""viewing_time"":2536},{""page_index"":1,""viewing_time"":4682},{""page_index"":2,""viewing_time"":2401},{""page_index"":3,""viewing_time"":4082}]","13702","","","","","","","","","","","","","","","","","","","",""
"","comprehension_check","","survey-multi-choice","2","36185","0.0-1.0-0.0-1.0","0","0","44266","","14959","{""Q0"":""True"",""Q1"":""D"",""Q2"":""Only when the screen 'MAKE A CHOICE' is shown"",""Q3"":""Green mark"",""Q4"":""either D or K""}","1","","","","","","","","","","","","","","","","","",""
"","missed_instruction_checkup","","html-keyboard-response","3","38753","0.0-1.0-0.0-2.0-0.0","0","1","44266","","2561","","","32","","","","","","","","","","","","","","","","",""
"","instructions","","instructions","4","52033","0.0-1.0-0.1-0.1","0","0","44266","[{""page_index"":0,""viewing_time"":6608},{""page_index"":1,""viewing_time"":4335},{""page_index"":2,""viewing_time"":1131},{""page_index"":3,""viewing_time"":1201}]","13275","","","","","","","","","","","","","","","","","","","",""
"","comprehension_check","","survey-multi-choice","5","67284","0.0-1.0-0.1-1.1","0","0","44266","","15242","{""Q0"":""True"",""Q1"":""D"",""Q2"":""Only while the second image is shown"",""Q3"":""Green mark"",""Q4"":""Use a mouse""}","1","","","","","","","","","","","","","","","","","",""
"","missed_instruction_checkup","","html-keyboard-response","6","69671","0.0-1.0-0.1-2.1-0.1","0","1","44266","","2385","","","32","","","","","","","","","","","","","","","","",""
"","instructions","","instructions","7","85850","0.0-1.0-0.2-0.2","0","0","44266","[{""page_index"":0,""viewing_time"":2441},{""page_index"":1,""viewing_time"":11200},{""page_index"":2,""viewing_time"":1784},{""page_index"":3,""viewing_time"":749}]","16175","","","","","","","","","","","","","","","","","","","",""
"","comprehension_check","","survey-multi-choice","8","99167","0.0-1.0-0.2-1.2","0","0","44266","","13310","{""Q0"":""True"",""Q1"":""D"",""Q2"":""Once the second image appears and while the screen 'MAKE A CHOICE' is shown"",""Q3"":""Green mark"",""Q4"":""Use a mouse""}","1","","","","","","","","","","","","","","","","","",""
"","missed_instruction_checkup","","html-keyboard-response","9","100995","0.0-1.0-0.2-2.2-0.2","0","1","44266","","1821","","","32","","","","","","","","","","","","","","","","",""
"","instructions","","instructions","10","103365","0.0-1.0-0.3-0.3","0","0","44266","[{""page_index"":0,""viewing_time"":1550},{""page_index"":1,""viewing_time"":366},{""page_index"":2,""viewing_time"":234},{""page_index"":3,""viewing_time"":216}]","2366","","","","","","","","","","","","","","","","","","","",""
"","comprehension_check","","survey-multi-choice","11","122533","0.0-1.0-0.3-1.3","0","0","44266","","19160","{""Q0"":""True"",""Q1"":""K"",""Q2"":""Once the second image appears and while the screen 'MAKE A CHOICE' is shown"",""Q3"":""Green mark"",""Q4"":""either D or K""}","1","","","","","","","","","","","","","","","","","",""
"","missed_instruction_checkup","","html-keyboard-response","12","123718","0.0-1.0-0.3-2.3-0.3","0","1","44266","","1178","","","32","","","","","","","","","","","","","","","","",""
"","instructions","","instructions","13","137834","0.0-1.0-0.4-0.4","0","0","44266","[{""page_index"":0,""viewing_time"":1776},{""page_index"":1,""viewing_time"":6251},{""page_index"":2,""viewing_time"":5032},{""page_index"":3,""viewing_time"":1052}]","14112","","","","","","","","","","","","","","","","","","","",""
"","comprehension_check","","survey-multi-choice","14","153633","0.0-1.0-0.4-1.4","0","0","44266","","15791","{""Q0"":""True"",""Q1"":""D"",""Q2"":""Once the second image appears and while the screen 'MAKE A CHOICE' is shown"",""Q3"":""Green mark"",""Q4"":""Use a mouse""}","1","","","","","","","","","","","","","","","","","",""
"","missed_instruction_checkup","","html-keyboard-response","15","154498","0.0-1.0-0.4-2.4-0.4","0","1","44266","","858","","","32","","","","","","","","","","","","","","","","",""
"","instructions","","instructions","16","164515","0.0-1.0-0.5-0.5","0","0","44266","[{""page_index"":0,""viewing_time"":2796},{""page_index"":1,""viewing_time"":4017},{""page_index"":2,""viewing_time"":1733},{""page_index"":3,""viewing_time"":1467}]","10013","","","","","","","","","","","","","","","","","","","",""
"","comprehension_check","","survey-multi-choice","17","174665","0.0-1.0-0.5-1.5","0","0","44266","","10143","{""Q0"":""True"",""Q1"":""D"",""Q2"":""Only while the second image is shown"",""Q3"":""Green mark"",""Q4"":""Use a mouse""}","1","","","","","","","","","","","","","","","","","",""
"","missed_instruction_checkup","","html-keyboard-response","18","175553","0.0-1.0-0.5-2.5-0.5","0","1","44266","","882","","","32","","","","","","","","","","","","","","","","",""
"","instructions","","instructions","19","180031","0.0-1.0-0.6-0.6","0","0","44266","[{""page_index"":0,""viewing_time"":2523},{""page_index"":1,""viewing_time"":784},{""page_index"":2,""viewing_time"":599},{""page_index"":3,""viewing_time"":567}]","4473","","","","","","","","","","","","","","","","","","","",""
"","comprehension_check","","survey-multi-choice","20","208366","0.0-1.0-0.6-1.6","0","0","44266","","28328","{""Q0"":""True"",""Q1"":""D"",""Q2"":""Once the second image appears and while the screen 'MAKE A CHOICE' is shown"",""Q3"":""Green mark"",""Q4"":""Use a mouse""}","1","","","","","","","","","","","","","","","","","",""
"","missed_instruction_checkup","","html-keyboard-response","21","209049","0.0-1.0-0.6-2.6-0.6","0","1","44266","","677","","","32","","","","","","","","","","","","","","","","",""
"","instructions","","instructions","22","230149","0.0-1.0-0.7-0.7","0","0","44266","[{""page_index"":0,""viewing_time"":4578},{""page_index"":1,""viewing_time"":8767},{""page_index"":2,""viewing_time"":6732},{""page_index"":3,""viewing_time"":1019}]","21096","","","","","","","","","","","","","","","","","","","",""
"","comprehension_check","","survey-multi-choice","23","248314","0.0-1.0-0.7-1.7","0","0","44266","","18158","{""Q0"":""True"",""Q1"":""D"",""Q2"":""Once the second image appears and while the screen 'MAKE A CHOICE' is shown"",""Q3"":""Green mark"",""Q4"":""either D or K""}","0","","","","","","","","","","","","","","","","","",""
"","start_exp","","html-keyboard-response","24","251032","0.0-1.0-1.0","0","0","44266","","2711","","","32","","","","","","","","","","","","","","","","",""
"","S1","","html-keyboard-response","25","251194","0.0-1.0-2.0","0","0","44266","","null","","","null","0","","","","","","","","","","","","","","","",""
"","ISI","","html-keyboard-response","26","253208","0.0-1.0-3.0","0","0","44266","","null","","","null","0","NaN","","","","","","","","","","","","","","",""
"","S2","","html-keyboard-response","27","253370","0.0-1.0-4.0","0","0","44266","","null","","","null","0","","NaN","","","","","","","","","","","","","",""
"","response","","html-keyboard-response","28","255229","0.0-1.0-5.0-0.0","0","0","44266","","null","","","null","0","","","1","0","training","adjacent","DE","4","5","M.jpg","P.jpg","NaN","1","0","",""
"","too_slow_prompt","","html-keyboard-response","29","256237","0.0-1.0-7.0-0.0","1","0","44266","","null","","","null","","","","","","","","","","","","","","","","",""
"","time_out","","html-keyboard-response","30","258248","0.0-1.0-8.0-0.0","0","0","44266","","null","","","null","0","","","","","","","","","","","","","","","",""
"","ITI","","html-keyboard-response","31","259260","0.0-1.0-9.0","0","0","44266","","358","","","32","0","","","","","","","","","","","","","","","space",""
"","S1","","html-keyboard-response","32","259421","0.0-1.0-11.0","0","0","44266","","null","","","null","1","","","","","","","","","","","","","","","",""
"","ISI","","html-keyboard-response","33","261431","0.0-1.0-12.0","0","0","44266","","406","","","68","1","d","","","","","","","","","","","","","","",""
"","S2","","html-keyboard-response","34","261596","0.0-1.0-13.0","0","0","44266","","null","","","null","1","","NaN","","","","","","","","","","","","","",""
"","response","","html-keyboard-response","35","261777","0.0-1.0-14.0-0.0","0","0","44266","","175","","","68","1","","","1","1","training","adjacent","DC","4","3","M.jpg","N.jpg","1","0","0","",""
"","feedback","","html-keyboard-response","36","262791","0.0-1.0-15.0-0.0","0","0","44266","","null","","","null","1","","","","","","","","","","","","","","","",""
"","time_out","","html-keyboard-response","37","264807","0.0-1.0-17.0-0.0","0","0","44266","","null","","","null","1","","","","","","","","","","","","","","","",""
"","ITI","","html-keyboard-response","38","265821","0.0-1.0-18.0","0","0","44266","","null","","","null","1","","","","","","","","","","","","","","","NaN",""
"","S1","","html-keyboard-response","39","265980","0.0-1.0-20.0","0","0","44266","","null","","","null","2","","","","","","","","","","","","","","","",""
"","ISI","","html-keyboard-response","40","267991","0.0-1.0-21.0","0","0","44266","","249","","","75","2","k","","","","","","","","","","","","","","",""
"","S2","","html-keyboard-response","41","268150","0.0-1.0-22.0","0","0","44266","","null","","","null","2","","NaN","","","","","","","","","","","","","",""
"","response","","html-keyboard-response","42","268302","0.0-1.0-23.0-0.0","0","0","44266","","147","","","75","2","","","1","2","training","adjacent","FG","6","7","R.jpg","Q.jpg","0","1","0","",""
"","feedback","","html-keyboard-response","43","269319","0.0-1.0-24.0-0.0","0","0","44266","","null","","","null","2","","","","","","","","","","","","","","","",""
"","time_out","","html-keyboard-response","44","271335","0.0-1.0-26.0-0.0","0","0","44266","","null","","","null","2","","","","","","","","","","","","","","","",""
"","ITI","","html-keyboard-response","45","272349","0.0-1.0-27.0","0","0","44266","","null","","","null","2","","","","","","","","","","","","","","","NaN",""
"","S1","","html-keyboard-response","46","272509","0.0-1.0-29.0","0","0","44266","","null","","","null","3","","","","","","","","","","","","","","","",""
"","ISI","","html-keyboard-response","47","274519","0.0-1.0-30.0","0","0","44266","","166","","","68","3","d","","","","","","","","","","","","","","",""
"","S2","","html-keyboard-response","48","274684","0.0-1.0-31.0","0","0","44266","","null","","","null","3","","NaN","","","","","","","","","","","","","",""
"","response","","html-keyboard-response","49","274870","0.0-1.0-32.0-0.0","0","0","44266","","181","","","68","3","","","1","3","training","adjacent","BA","2","1","L.jpg","O.jpg","1","0","0","",""
"","feedback","","html-keyboard-response","50","275884","0.0-1.0-33.0-0.0","0","0","44266","","null","","","null","3","","","","","","","","","","","","","","","",""
"","time_out","","html-keyboard-response","51","277895","0.0-1.0-35.0-0.0","0","0","44266","","null","","","null","3","","","","","","","","","","","","","","","",""
"","ITI","","html-keyboard-response","52","278908","0.0-1.0-36.0","0","0","44266","","null","","","null","3","","","","","","","","","","","","","","","NaN",""
"","S1","","html-keyboard-response","53","279068","0.0-1.0-38.0","0","0","44266","","null","","","null","4","","","","","","","","","","","","","","","",""
"","ISI","","html-keyboard-response","54","281079","0.0-1.0-39.0","0","0","44266","","null","","","null","4","NaN","","","","","","","","","","","","","","",""
"","S2","","html-keyboard-response","55","281244","0.0-1.0-40.0","0","0","44266","","null","","","null","4","","NaN","","","","","","","","","","","","","",""
"","response","","html-keyboard-response","56","281746","0.0-1.0-41.0-0.0","0","0","44266","","497","","","68","4","","","1","4","training","adjacent","CB","3","2","N.jpg","L.jpg","1","0","0","",""
"","feedback","","html-keyboard-response","57","282759","0.0-1.0-42.0-0.0","0","0","44266","","null","","","null","4","","","","","","","","","","","","","","","",""
"","time_out","","html-keyboard-response","58","284775","0.0-1.0-44.0-0.0","0","0","44266","","null","","","null","4","","","","","","","","","","","","","","","",""
"","ITI","","html-keyboard-response","59","285788","0.0-1.0-45.0","0","0","44266","","null","","","null","4","","","","","","","","","","","","","","","NaN",""
"","S1","","html-keyboard-response","60","285948","0.0-1.0-47.0","0","0","44266","","null","","","null","5","","","","","","","","","","","","","","","",""
"","ISI","","html-keyboard-response","61","287958","0.0-1.0-48.0","0","0","44266","","null","","","null","5","NaN","","","","","","","","","","","","","","",""
"","S2","","html-keyboard-response","62","288125","0.0-1.0-49.0","0","0","44266","","null","","","null","5","","NaN","","","","","","","","","","","","","",""
"","response","","html-keyboard-response","63","288245","0.0-1.0-50.0-0.0","0","0","44266","","116","","","75","5","","","1","5","training","adjacent","BC","2","3","L.jpg","N.jpg","0","1","0","",""
"","feedback","","html-keyboard-response","64","289260","0.0-1.0-51.0-0.0","0","0","44266","","null","","","null","5","","","","","","","","","","","","","","","",""
"","time_out","","html-keyboard-response","65","291270","0.0-1.0-53.0-0.0","0","0","44266","","null","","","null","5","","","","","","","","","","","","","","","",""
"","ITI","","html-keyboard-response","66","292284","0.0-1.0-54.0","0","0","44266","","1","","","75","5","","","","","","","","","","","","","","","k",""
"","S1","","html-keyboard-response","67","292444","0.0-1.0-56.0","0","0","44266","","null","","","null","6","","","","","","","","","","","","","","","",""
"","ISI","","html-keyboard-response","68","294454","0.0-1.0-57.0","0","0","44266","","15","","","75","6","k","","","","","","","","","","","","","","",""
"","S2","","html-keyboard-response","69","294620","0.0-1.0-58.0","0","0","44266","","null","","","null","6","","NaN","","","","","","","","","","","","","",""
"","response","","html-keyboard-response","70","294800","0.0-1.0-59.0-0.0","0","0","44266","","175","","","75","6","","","1","6","training","adjacent","FE","6","5","R.jpg","P.jpg","0","0","1","",""
"","feedback","","html-keyboard-response","71","295814","0.0-1.0-60.0-0.0","0","0","44266","","null","","","null","6","","","","","","","","","","","","","","","",""
"","ITI","","html-keyboard-response","72","296827","0.0-1.0-63.0","0","0","44266","","875","","","75","6","","","","","","","","","","","","","","","k",""
"","S1","","html-keyboard-response","73","296987","0.0-1.0-65.0","0","0","44266","","null","","","null","7","","","","","","","","","","","","","","","",""
"","ISI","","html-keyboard-response","74","298998","0.0-1.0-66.0","0","0","44266","","null","","","null","7","NaN","","","","","","","","","","","","","","",""
"","S2","","html-keyboard-response","75","299163","0.0-1.0-67.0","0","0","44266","","null","","","null","7","","NaN","","","","","","","","","","","","","",""
"","response","","html-keyboard-response","76","299279","0.0-1.0-68.0-0.0","0","0","44266","","111","","","75","7","","","1","7","training","adjacent","DC","4","3","M.jpg","N.jpg","0","0","1","",""
"","feedback","","html-keyboard-response","77","300294","0.0-1.0-69.0-0.0","0","0","44266","","null","","","null","7","","","","","","","","","","","","","","","",""
"","ITI","","html-keyboard-response","78","301307","0.0-1.0-72.0","0","0","44266","","null","","","null","7","","","","","","","","","","","","","","","NaN",""
"","S1","","html-keyboard-response","79","301467","0.0-1.0-74.0","0","0","44266","","null","","","null","8","","","","","","","","","","","","","","","",""
"","ISI","","html-keyboard-response","80","303478","0.0-1.0-75.0","0","0","44266","","null","","","null","8","NaN","","","","","","","","","","","","","","",""
"","S2","","html-keyboard-response","81","303643","0.0-1.0-76.0","0","0","44266","","null","","","null","8","","NaN","","","","","","","","","","","","","",""
"","response","","html-keyboard-response","82","304003","0.0-1.0-77.0-0.0","0","0","44266","","354","","","75","8","","","1","8","training","adjacent","AB","1","2","O.jpg","L.jpg","0","1","0","",""
"","feedback","","html-keyboard-response","83","305014","0.0-1.0-78.0-0.0","0","0","44266","","null","","","null","8","","","","","","","","","","","","","","","",""
"","time_out","","html-keyboard-response","84","307030","0.0-1.0-80.0-0.0","0","0","44266","","null","","","null","8","","","","","","","","","","","","","","","",""
"","ITI","","html-keyboard-response","85","308043","0.0-1.0-81.0","0","0","44266","","null","","","null","8","","","","","","","","","","","","","","","NaN",""
"","S1","","html-keyboard-response","86","308203","0.0-1.0-83.0","0","0","44266","","null","","","null","9","","","","","","","","","","","","","","","",""
"","ISI","","html-keyboard-response","87","310214","0.0-1.0-84.0","0","0","44266","","null","","","null","9","NaN","","","","","","","","","","","","","","",""
"","S2","","html-keyboard-response","88","310380","0.0-1.0-85.0","0","0","44266","","null","","","null","9","","NaN","","","","","","","","","","","","","",""
"","response","","html-keyboard-response","89","310537","0.0-1.0-86.0-0.0","0","0","44266","","152","","","75","9","","","1","9","training","adjacent","FG","6","7","R.jpg","Q.jpg","0","1","0","",""
"","feedback","","html-keyboard-response","90","311547","0.0-1.0-87.0-0.0","0","0","44266","","null","","","null","9","","","","","","","","","","","","","","","",""
"","time_out","","html-keyboard-response","91","313557","0.0-1.0-89.0-0.0","0","0","44266","","null","","","null","9","","","","","","","","","","","","","","","",""
"","ITI","","html-keyboard-response","92","314571","0.0-1.0-90.0","0","0","44266","","null","","","null","9","","","","","","","","","","","","","","","NaN",""
"","S1","","html-keyboard-response","93","314731","0.0-1.0-92.0","0","0","44266","","null","","","null","10","","","","","","","","","","","","","","","",""
"","ISI","","html-keyboard-response","94","316741","0.0-1.0-93.0","0","0","44266","","null","","","null","10","NaN","","","","","","","","","","","","","","",""
"","S2","","html-keyboard-response","95","316907","0.0-1.0-94.0","0","0","44266","","null","","","null","10","","NaN","","","","","","","","","","","","","",""
"","response","","html-keyboard-response","96","317063","0.0-1.0-95.0-0.0","0","0","44266","","151","","","75","10","","","1","10","training","adjacent","CD","3","4","N.jpg","M.jpg","0","1","0","",""
"","feedback","","html-keyboard-response","97","318075","0.0-1.0-96.0-0.0","0","0","44266","","null","","","null","10","","","","","","","","","","","","","","","",""
"","time_out","","html-keyboard-response","98","320085","0.0-1.0-98.0-0.0","0","0","44266","","null","","","null","10","","","","","","","","","","","","","","","",""
"","ITI","","html-keyboard-response","99","321099","0.0-1.0-99.0","0","0","44266","","135","","","68","10","","","","","","","","","","","","","","","d",""
"","S1","","html-keyboard-response","100","321259","0.0-1.0-101.0","0","0","44266","","null","","","null","11","","","","","","","","","","","","","","","",""
"","ISI","","html-keyboard-response","101","323269","0.0-1.0-102.0","0","0","44266","","319","","","68","11","d","","","","","","","","","","","","","","",""
"","S2","","html-keyboard-response","102","323434","0.0-1.0-103.0","0","0","44266","","null","","","null","11","","NaN","","","","","","","","","","","","","",""
"","response","","html-keyboard-response","103","323600","0.0-1.0-104.0-0.0","0","0","44266","","161","","","68","11","","","1","11","training","adjacent","FG","6","7","R.jpg","Q.jpg","1","1","1","",""
"","feedback","","html-keyboard-response","104","324613","0.0-1.0-105.0-0.0","0","0","44266","","null","","","null","11","","","","","","","","","","","","","","","",""
"","ITI","","html-keyboard-response","105","325627","0.0-1.0-108.0","0","0","44266","","null","","","null","11","","","","","","","","","","","","","","","NaN",""
"","S1","","html-keyboard-response","106","325786","0.0-1.0-110.0","0","0","44266","","null","","","null","12","","","","","","","","","","","","","","","",""
"","ISI","","html-keyboard-response","107","327797","0.0-1.0-111.0","0","0","44266","","null","","","null","12","NaN","","","","","","","","","","","","","","",""
"","S2","","html-keyboard-response","108","327963","0.0-1.0-112.0","0","0","44266","","null","","","null","12","","NaN","","","","","","","","","","","","","",""
"","response","","html-keyboard-response","109","329212","0.0-1.0-113.0-0.0","0","0","44266","","1245","","","75","12","","","1","12","training","adjacent","FE","6","5","R.jpg","P.jpg","0","0","1","",""
"","feedback","","html-keyboard-response","110","330229","0.0-1.0-114.0-0.0","0","0","44266","","null","","","null","12","","","","","","","","","","","","","","","",""
"","ITI","","html-keyboard-response","111","331242","0.0-1.0-117.0","0","0","44266","","null","","","null","12","","","","","","","","","","","","","","","NaN",""
"","S1","","html-keyboard-response","112","331403","0.0-1.0-119.0","0","0","44266","","null","","","null","13","","","","","","","","","","","","","","","",""
"","ISI","","html-keyboard-response","113","333413","0.0-1.0-120.0","0","0","44266","","null","","","null","13","NaN","","","","","","","","","","","","","","",""
"","S2","","html-keyboard-response","114","333578","0.0-1.0-121.0","0","0","44266","","null","","","null","13","","NaN","","","","","","","","","","","","","",""
"","response","","html-keyboard-response","115","334195","0.0-1.0-122.0-0.0","0","0","44266","","612","","","75","13","","","1","13","training","adjacent","CD","3","4","N.jpg","M.jpg","0","1","0","",""
"","feedback","","html-keyboard-response","116","335210","0.0-1.0-123.0-0.0","0","0","44266","","null","","","null","13","","","","","","","","","","","","","","","",""
"","time_out","","html-keyboard-response","117","337221","0.0-1.0-125.0-0.0","0","0","44266","","null","","","null","13","","","","","","","","","","","","","","","",""
"","ITI","","html-keyboard-response","118","338234","0.0-1.0-126.0","0","0","44266","","null","","","null","13","","","","","","","","","","","","","","","NaN",""
"","S1","","html-keyboard-response","119","338394","0.0-1.0-128.0","0","0","44266","","null","","","null","14","","","","","","","","","","","","","","","",""
"","ISI","","html-keyboard-response","120","340405","0.0-1.0-129.0","0","0","44266","","null","","","null","14","NaN","","","","","","","","","","","","","","",""
"","S2","","html-keyboard-response","121","340570","0.0-1.0-130.0","0","0","44266","","null","","","null","14","","NaN","","","","","","","","","","","","","",""
"","response","","html-keyboard-response","122","340727","0.0-1.0-131.0-0.0","0","0","44266","","152","","","68","14","","","1","14","training","adjacent","ED","5","4","P.jpg","M.jpg","1","0","0","",""
"","feedback","","html-keyboard-response","123","341738","0.0-1.0-132.0-0.0","0","0","44266","","null","","","null","14","","","","","","","","","","","","","","","",""
"","time_out","","html-keyboard-response","124","343747","0.0-1.0-134.0-0.0","0","0","44266","","null","","","null","14","","","","","","","","","","","","","","","",""
"","ITI","","html-keyboard-response","125","344762","0.0-1.0-135.0","0","0","44266","","null","","","null","14","","","","","","","","","","","","","","","NaN",""
"","S1","","html-keyboard-response","126","344922","0.0-1.0-137.0","0","0","44266","","null","","","null","15","","","","","","","","","","","","","","","",""
"","ISI","","html-keyboard-response","127","346932","0.0-1.0-138.0","0","0","44266","","null","","","null","15","NaN","","","","","","","","","","","","","","",""
"","S2","","html-keyboard-response","128","347098","0.0-1.0-139.0","0","0","44266","","null","","","null","15","","NaN","","","","","","","","","","","","","",""
"","response","","html-keyboard-response","129","347511","0.0-1.0-140.0-0.0","0","0","44266","","408","","","75","15","","","1","15","training","adjacent","ED","5","4","P.jpg","M.jpg","0","0","1","",""
"","feedback","","html-keyboard-response","130","348522","0.0-1.0-141.0-0.0","0","0","44266","","null","","","null","15","","","","","","","","","","","","","","","",""
"","ITI","","html-keyboard-response","131","349530","0.0-1.0-144.0","0","0","44266","","null","","","null","15","","","","","","","","","","","","","","","NaN",""
"","S1","","html-keyboard-response","132","349690","0.0-1.0-146.0","0","0","44266","","null","","","null","16","","","","","","","","","","","","","","","",""
"","ISI","","html-keyboard-response","133","351700","0.0-1.0-147.0","0","0","44266","","null","","","null","16","NaN","","","","","","","","","","","","","","",""
"","S2","","html-keyboard-response","134","351866","0.0-1.0-148.0","0","0","44266","","null","","","null","16","","NaN","","","","","","","","","","","","","",""
"","response","","html-keyboard-response","135","352214","0.0-1.0-149.0-0.0","0","0","44266","","343","","","68","16","","","1","16","training","adjacent","FG","6","7","R.jpg","Q.jpg","1","1","1","",""
"","feedback","","html-keyboard-response","136","353226","0.0-1.0-150.0-0.0","0","0","44266","","null","","","null","16","","","","","","","","","","","","","","","",""
"","ITI","","html-keyboard-response","137","354233","0.0-1.0-153.0","0","0","44266","","null","","","null","16","","","","","","","","","","","","","","","NaN",""
"","S1","","html-keyboard-response","138","354394","0.0-1.0-155.0","0","0","44266","","null","","","null","17","","","","","","","","","","","","","","","",""
"","ISI","","html-keyboard-response","139","356404","0.0-1.0-156.0","0","0","44266","","null","","","null","17","NaN","","","","","","","","","","","","","","",""
"","S2","","html-keyboard-response","140","356569","0.0-1.0-157.0","0","0","44266","","null","","","null","17","","NaN","","","","","","","","","","","","","",""
"","response","","html-keyboard-response","141","356914","0.0-1.0-158.0-0.0","0","0","44266","","340","","","68","17","","","1","17","training","adjacent","ED","5","4","P.jpg","M.jpg","1","0","0","",""
"","feedback","","html-keyboard-response","142","357924","0.0-1.0-159.0-0.0","0","0","44266","","null","","","null","17","","","","","","","","","","","","","","","",""
"","time_out","","html-keyboard-response","143","359940","0.0-1.0-161.0-0.0","0","0","44266","","null","","","null","17","","","","","","","","","","","","","","","",""
"","ITI","","html-keyboard-response","144","360953","0.0-1.0-162.0","0","0","44266","","null","","","null","17","","","","","","","","","","","","","","","NaN",""
"","S1","","html-keyboard-response","145","361113","0.0-1.0-164.0","0","0","44266","","null","","","null","18","","","","","","","","","","","","","","","",""
"","ISI","","html-keyboard-response","146","363124","0.0-1.0-165.0","0","0","44266","","null","","","null","18","NaN","","","","","","","","","","","","","","",""
"","S2","","html-keyboard-response","147","363290","0.0-1.0-166.0","0","0","44266","","null","","","null","18","","NaN","","","","","","","","","","","","","",""
"","response","","html-keyboard-response","148","363596","0.0-1.0-167.0-0.0","0","0","44266","","301","","","68","18","","","1","18","training","adjacent","DE","4","5","M.jpg","P.jpg","1","1","1","",""
"","feedback","","html-keyboard-response","149","364612","0.0-1.0-168.0-0.0","0","0","44266","","null","","","null","18","","","","","","","","","","","","","","","",""
"","ITI","","html-keyboard-response","150","365625","0.0-1.0-171.0","0","0","44266","","null","","","null","18","","","","","","","","","","","","","","","NaN",""
"","S1","","html-keyboard-response","151","365785","0.0-1.0-173.0","0","0","44266","","null","","","null","19","","","","","","","","","","","","","","","",""
"","ISI","","html-keyboard-response","152","367796","0.0-1.0-174.0","0","0","44266","","null","","","null","19","NaN","","","","","","","","","","","","","","",""
"","S2","","html-keyboard-response","153","367961","0.0-1.0-175.0","0","0","44266","","null","","","null","19","","NaN","","","","","","","","","","","","","",""
"","response","","html-keyboard-response","154","368410","0.0-1.0-176.0-0.0","0","0","44266","","444","","","75","19","","","1","19","training","adjacent","AB","1","2","O.jpg","L.jpg","0","1","0","",""
"","feedback","","html-keyboard-response","155","369428","0.0-1.0-177.0-0.0","0","0","44266","","null","","","null","19","","","","","","","","","","","","","","","",""
"","time_out","","html-keyboard-response","156","371444","0.0-1.0-179.0-0.0","0","0","44266","","null","","","null","19","","","","","","","","","","","","","","","",""
"","ITI","","html-keyboard-response","157","372457","0.0-1.0-180.0","0","0","44266","","null","","","null","19","","","","","","","","","","","","","","","NaN",""
"","S1","","html-keyboard-response","158","372617","0.0-1.0-182.0","0","0","44266","","null","","","null","20","","","","","","","","","","","","","","","",""
"","ISI","","html-keyboard-response","159","374627","0.0-1.0-183.0","0","0","44266","","null","","","null","20","NaN","","","","","","","","","","","","","","",""
"","S2","","html-keyboard-response","160","374793","0.0-1.0-184.0","0","0","44266","","null","","","null","20","","NaN","","","","","","","","","","","","","",""
"","response","","html-keyboard-response","161","375185","0.0-1.0-185.0-0.0","0","0","44266","","386","","","68","20","","","1","20","training","adjacent","BA","2","1","L.jpg","O.jpg","1","0","0","",""
"","feedback","","html-keyboard-response","162","376195","0.0-1.0-186.0-0.0","0","0","44266","","null","","","null","20","","","","","","","","","","","","","","","",""
"","time_out","","html-keyboard-response","163","378211","0.0-1.0-188.0-0.0","0","0","44266","","null","","","null","20","","","","","","","","","","","","","","","",""
"","ITI","","html-keyboard-response","164","379225","0.0-1.0-189.0","0","0","44266","","null","","","null","20","","","","","","","","","","","","","","","NaN",""
"","S1","","html-keyboard-response","165","379384","0.0-1.0-191.0","0","0","44266","","null","","","null","21","","","","","","","","","","","","","","","",""
"","ISI","","html-keyboard-response","166","381395","0.0-1.0-192.0","0","0","44266","","null","","","null","21","NaN","","","","","","","","","","","","","","",""
"","S2","","html-keyboard-response","167","381561","0.0-1.0-193.0","0","0","44266","","null","","","null","21","","NaN","","","","","","","","","","","","","",""
"","response","","html-keyboard-response","168","381856","0.0-1.0-194.0-0.0","0","0","44266","","290","","","75","21","","","1","21","training","adjacent","AB","1","2","O.jpg","L.jpg","0","1","0","",""
"","feedback","","html-keyboard-response","169","382867","0.0-1.0-195.0-0.0","0","0","44266","","null","","","null","21","","","","","","","","","","","","","","","",""
"","time_out","","html-keyboard-response","170","384883","0.0-1.0-197.0-0.0","0","0","44266","","null","","","null","21","","","","","","","","","","","","","","","",""
"","ITI","","html-keyboard-response","171","385897","0.0-1.0-198.0","0","0","44266","","null","","","null","21","","","","","","","","","","","","","","","NaN",""
"","S1","","html-keyboard-response","172","386057","0.0-1.0-200.0","0","0","44266","","null","","","null","22","","","","","","","","","","","","","","","",""
"","ISI","","html-keyboard-response","173","388067","0.0-1.0-201.0","0","0","44266","","null","","","null","22","NaN","","","","","","","","","","","","","","",""
"","S2","","html-keyboard-response","174","388233","0.0-1.0-202.0","0","0","44266","","null","","","null","22","","NaN","","","","","","","","","","","","","",""
"","response","","html-keyboard-response","175","388367","0.0-1.0-203.0-0.0","0","0","44266","","130","","","68","22","","","1","22","training","adjacent","CB","3","2","N.jpg","L.jpg","1","0","0","",""
"","feedback","","html-keyboard-response","176","389379","0.0-1.0-204.0-0.0","0","0","44266","","null","","","null","22","","","","","","","","","","","","","","","",""
"","time_out","","html-keyboard-response","177","391395","0.0-1.0-206.0-0.0","0","0","44266","","null","","","null","22","","","","","","","","","","","","","","","",""
"","ITI","","html-keyboard-response","178","392409","0.0-1.0-207.0","0","0","44266","","null","","","null","22","","","","","","","","","","","","","","","NaN",""
"","S1","","html-keyboard-response","179","392568","0.0-1.0-209.0","0","0","44266","","null","","","null","23","","","","","","","","","","","","","","","",""
"","ISI","","html-keyboard-response","180","394579","0.0-1.0-210.0","0","0","44266","","182","","","75","23","k","","","","","","","","","","","","","","",""
"","S2","","html-keyboard-response","181","394744","0.0-1.0-211.0","0","0","44266","","null","","","null","23","","NaN","","","","","","","","","","","","","",""
"","response","","html-keyboard-response","182","394895","0.0-1.0-212.0-0.0","0","0","44266","","146","","","68","23","","","1","23","training","adjacent","CD","3","4","N.jpg","M.jpg","1","1","1","",""
"","feedback","","html-keyboard-response","183","395907","0.0-1.0-213.0-0.0","0","0","44266","","null","","","null","23","","","","","","","","","","","","","","","",""
"","ITI","","html-keyboard-response","184","396920","0.0-1.0-216.0","0","0","44266","","null","","","null","23","","","","","","","","","","","","","","","NaN",""
"","S1","","html-keyboard-response","185","397080","0.0-1.0-218.0","0","0","44266","","null","","","null","24","","","","","","","","","","","","","","","",""
"","ISI","","html-keyboard-response","186","399091","0.0-1.0-219.0","0","0","44266","","501","","","68","24","d","","","","","","","","","","","","","","",""
"","S2","","html-keyboard-response","187","399256","0.0-1.0-220.0","0","0","44266","","null","","","null","24","","NaN","","","","","","","","","","","","","",""
"","response","","html-keyboard-response","188","399861","0.0-1.0-221.0-0.0","0","0","44266","","600","","","68","24","","","1","24","training","adjacent","CD","3","4","N.jpg","M.jpg","1","1","1","",""
"","feedback","","html-keyboard-response","189","400872","0.0-1.0-222.0-0.0","0","0","44266","","null","","","null","24","","","","","","","","","","","","","","","",""
"","ITI","","html-keyboard-response","190","401880","0.0-1.0-225.0","0","0","44266","","null","","","null","24","","","","","","","","","","","","","","","NaN",""
"","S1","","html-keyboard-response","191","402040","0.0-1.0-227.0","0","0","44266","","null","","","null","25","","","","","","","","","","","","","","","",""
"","ISI","","html-keyboard-response","192","404050","0.0-1.0-228.0","0","0","44266","","586","","","68","25","d","","","","","","","","","","","","","","",""
"","S2","","html-keyboard-response","193","404216","0.0-1.0-229.0","0","0","44266","","null","","","null","25","","NaN","","","","","","","","","","","","","",""
"","response","","html-keyboard-response","194","405369","0.0-1.0-230.0-0.0","0","0","44266","","1148","","","75","25","","","1","25","training","adjacent","BC","2","3","L.jpg","N.jpg","0","1","0","",""
"","feedback","","html-keyboard-response","195","406386","0.0-1.0-231.0-0.0","0","0","44266","","null","","","null","25","","","","","","","","","","","","","","","",""
"","time_out","","html-keyboard-response","196","408403","0.0-1.0-233.0-0.0","0","0","44266","","null","","","null","25","","","","","","","","","","","","","","","",""
"","ITI","","html-keyboard-response","197","409416","0.0-1.0-234.0","0","0","44266","","null","","","null","25","","","","","","","","","","","","","","","NaN",""
"","S1","","html-keyboard-response","198","409575","0.0-1.0-236.0","0","0","44266","","null","","","null","26","","","","","","","","","","","","","","","",""
"","ISI","","html-keyboard-response","199","411586","0.0-1.0-237.0","0","0","44266","","280","","","68","26","d","","","","","","","","","","","","","","",""
"","S2","","html-keyboard-response","200","411752","0.0-1.0-238.0","0","0","44266","","null","","","null","26","","NaN","","","","","","","","","","","","","",""
"","response","","html-keyboard-response","201","412184","0.0-1.0-239.0-0.0","0","0","44266","","428","","","68","26","","","1","26","training","adjacent","GF","7","6","Q.jpg","R.jpg","1","0","0","",""
"","feedback","","html-keyboard-response","202","413202","0.0-1.0-240.0-0.0","0","0","44266","","null","","","null","26","","","","","","","","","","","","","","","",""
"","time_out","","html-keyboard-response","203","415218","0.0-1.0-242.0-0.0","0","0","44266","","null","","","null","26","","","","","","","","","","","","","","","",""
"","ITI","","html-keyboard-response","204","416232","0.0-1.0-243.0","0","0","44266","","null","","","null","26","","","","","","","","","","","","","","","NaN",""
"","S1","","html-keyboard-response","205","416391","0.0-1.0-245.0","0","0","44266","","null","","","null","27","","","","","","","","","","","","","","","",""
"","ISI","","html-keyboard-response","206","418402","0.0-1.0-246.0","0","0","44266","","null","","","null","27","NaN","","","","","","","","","","","","","","",""
"","S2","","html-keyboard-response","207","418567","0.0-1.0-247.0","0","0","44266","","null","","","null","27","","NaN","","","","","","","","","","","","","",""
"","response","","html-keyboard-response","208","418725","0.0-1.0-248.0-0.0","0","0","44266","","152","","","68","27","","","1","27","training","adjacent","EF","5","6","P.jpg","R.jpg","1","1","1","",""
"","feedback","","html-keyboard-response","209","419735","0.0-1.0-249.0-0.0","0","0","44266","","null","","","null","27","","","","","","","","","","","","","","","",""
"","ITI","","html-keyboard-response","210","420743","0.0-1.0-252.0","0","0","44266","","null","","","null","27","","","","","","","","","","","","","","","NaN",""
"","S1","","html-keyboard-response","211","420903","0.0-1.0-254.0","0","0","44266","","null","","","null","28","","","","","","","","","","","","","","","",""
"","ISI","","html-keyboard-response","212","422914","0.0-1.0-255.0","0","0","44266","","null","","","null","28","NaN","","","","","","","","","","","","","","",""
"","S2","","html-keyboard-response","213","423079","0.0-1.0-256.0","0","0","44266","","null","","","null","28","","NaN","","","","","","","","","","","","","",""
"","response","","html-keyboard-response","214","423649","0.0-1.0-257.0-0.0","0","0","44266","","565","","","68","28","","","1","28","training","adjacent","GF","7","6","Q.jpg","R.jpg","1","0","0","",""
"","feedback","","html-keyboard-response","215","424663","0.0-1.0-258.0-0.0","0","0","44266","","null","","","null","28","","","","","","","","","","","","","","","",""
"","time_out","","html-keyboard-response","216","426674","0.0-1.0-260.0-0.0","0","0","44266","","null","","","null","28","","","","","","","","","","","","","","","",""
"","ITI","","html-keyboard-response","217","427688","0.0-1.0-261.0","0","0","44266","","null","","","null","28","","","","","","","","","","","","","","","NaN",""
"","S1","","html-keyboard-response","218","427847","0.0-1.0-263.0","0","0","44266","","null","","","null","29","","","","","","","","","","","","","","","",""
"","ISI","","html-keyboard-response","219","429858","0.0-1.0-264.0","0","0","44266","","null","","","null","29","NaN","","","","","","","","","","","","","","",""
"","S2","","html-keyboard-response","220","430023","0.0-1.0-265.0","0","0","44266","","null","","","null","29","","NaN","","","","","","","","","","","","","",""
"","response","","html-keyboard-response","221","430215","0.0-1.0-266.0-0.0","0","0","44266","","187","","","68","29","","","1","29","training","adjacent","EF","5","6","P.jpg","R.jpg","1","1","1","",""
"","feedback","","html-keyboard-response","222","431223","0.0-1.0-267.0-0.0","0","0","44266","","null","","","null","29","","","","","","","","","","","","","","","",""
"","ITI","","html-keyboard-response","223","432242","0.0-1.0-270.0","0","0","44266","","null","","","null","29","","","","","","","","","","","","","","","NaN",""
"","S1","","html-keyboard-response","224","432407","0.0-1.0-272.0","0","0","44266","","null","","","null","30","","","","","","","","","","","","","","","",""
"","ISI","","html-keyboard-response","225","434418","0.0-1.0-273.0","0","0","44266","","null","","","null","30","NaN","","","","","","","","","","","","","","",""
"","S2","","html-keyboard-response","226","434583","0.0-1.0-274.0","0","0","44266","","null","","","null","30","","NaN","","","","","","","","","","","","","",""
"","response","","html-keyboard-response","227","434941","0.0-1.0-275.0-0.0","0","0","44266","","353","","","75","30","","","1","30","training","adjacent","BC","2","3","L.jpg","N.jpg","0","1","0","",""
"","feedback","","html-keyboard-response","228","435953","0.0-1.0-276.0-0.0","0","0","44266","","null","","","null","30","","","","","","","","","","","","","","","",""
"","time_out","","html-keyboard-response","229","437969","0.0-1.0-278.0-0.0","0","0","44266","","null","","","null","30","","","","","","","","","","","","","","","",""
"","ITI","","html-keyboard-response","230","438983","0.0-1.0-279.0","0","0","44266","","null","","","null","30","","","","","","","","","","","","","","","NaN",""
"","S1","","html-keyboard-response","231","439143","0.0-1.0-281.0","0","0","44266","","null","","","null","31","","","","","","","","","","","","","","","",""
"","ISI","","html-keyboard-response","232","441153","0.0-1.0-282.0","0","0","44266","","null","","","null","31","NaN","","","","","","","","","","","","","","",""
"","S2","","html-keyboard-response","233","441319","0.0-1.0-283.0","0","0","44266","","null","","","null","31","","NaN","","","","","","","","","","","","","",""
"","response","","html-keyboard-response","234","441493","0.0-1.0-284.0-0.0","0","0","44266","","168","","","68","31","","","1","31","training","adjacent","CB","3","2","N.jpg","L.jpg","1","0","0","",""
"","feedback","","html-keyboard-response","235","442503","0.0-1.0-285.0-0.0","0","0","44266","","null","","","null","31","","","","","","","","","","","","","","","",""
"","time_out","","html-keyboard-response","236","444513","0.0-1.0-287.0-0.0","0","0","44266","","null","","","null","31","","","","","","","","","","","","","","","",""
"","ITI","","html-keyboard-response","237","445526","0.0-1.0-288.0","0","0","44266","","null","","","null","31","","","","","","","","","","","","","","","NaN",""
"","S1","","html-keyboard-response","238","445686","0.0-1.0-290.0","0","0","44266","","null","","","null","32","","","","","","","","","","","","","","","",""
"","ISI","","html-keyboard-response","239","447697","0.0-1.0-291.0","0","0","44266","","256","","","75","32","k","","","","","","","","","","","","","","",""
"","S2","","html-keyboard-response","240","447863","0.0-1.0-292.0","0","0","44266","","null","","","null","32","","NaN","","","","","","","","","","","","","",""
"","response","","html-keyboard-response","241","448023","0.0-1.0-293.0-0.0","0","0","44266","","155","","","75","32","","","1","32","training","adjacent","DE","4","5","M.jpg","P.jpg","0","1","0","",""
"","feedback","","html-keyboard-response","242","449041","0.0-1.0-294.0-0.0","0","0","44266","","null","","","null","32","","","","","","","","","","","","","","","",""
"","time_out","","html-keyboard-response","243","451057","0.0-1.0-296.0-0.0","0","0","44266","","null","","","null","32","","","","","","","","","","","","","","","",""
"","ITI","","html-keyboard-response","244","452071","0.0-1.0-297.0","0","0","44266","","null","","","null","32","","","","","","","","","","","","","","","NaN",""
"","S1","","html-keyboard-response","245","452231","0.0-1.0-299.0","0","0","44266","","null","","","null","33","","","","","","","","","","","","","","","",""
"","ISI","","html-keyboard-response","246","454241","0.0-1.0-300.0","0","0","44266","","null","","","null","33","NaN","","","","","","","","","","","","","","",""
"","S2","","html-keyboard-response","247","454406","0.0-1.0-301.0","0","0","44266","","null","","","null","33","","NaN","","","","","","","","","","","","","",""
"","response","","html-keyboard-response","248","454767","0.0-1.0-302.0-0.0","0","0","44266","","355","","","68","33","","","1","33","training","adjacent","DC","4","3","M.jpg","N.jpg","1","0","0","",""
"","feedback","","html-keyboard-response","249","455782","0.0-1.0-303.0-0.0","0","0","44266","","null","","","null","33","","","","","","","","","","","","","","","",""
"","time_out","","html-keyboard-response","250","457793","0.0-1.0-305.0-0.0","0","0","44266","","null","","","null","33","","","","","","","","","","","","","","","",""
"","ITI","","html-keyboard-response","251","458806","0.0-1.0-306.0","0","0","44266","","null","","","null","33","","","","","","","","","","","","","","","NaN",""
"","S1","","html-keyboard-response","252","458966","0.0-1.0-308.0","0","0","44266","","null","","","null","34","","","","","","","","","","","","","","","",""
"","ISI","","html-keyboard-response","253","460977","0.0-1.0-309.0","0","0","44266","","null","","","null","34","NaN","","","","","","","","","","","","","","",""
"","S2","","html-keyboard-response","254","461142","0.0-1.0-310.0","0","0","44266","","null","","","null","34","","NaN","","","","","","","","","","","","","",""
"","response","","html-keyboard-response","255","462998","0.0-1.0-311.0-0.0","0","0","44266","","null","","","null","34","","","1","34","training","adjacent","DE","4","5","M.jpg","P.jpg","NaN","1","0","",""
"","too_slow_prompt","","html-keyboard-response","256","464007","0.0-1.0-313.0-0.0","1","0","44266","","null","","","null","","","","","","","","","","","","","","","","",""
"","time_out","","html-keyboard-response","257","466021","0.0-1.0-314.0-0.0","0","0","44266","","null","","","null","34","","","","","","","","","","","","","","","",""
"","ITI","","html-keyboard-response","258","467030","0.0-1.0-315.0","0","0","44266","","null","","","null","34","","","","","","","","","","","","","","","NaN",""
"","S1","","html-keyboard-response","259","467190","0.0-1.0-317.0","0","0","44266","","null","","","null","35","","","","","","","","","","","","","","","",""
"","ISI","","html-keyboard-response","260","469200","0.0-1.0-318.0","0","0","44266","","627","","","75","35","k","","","","","","","","","","","","","","",""
"","S2","","html-keyboard-response","261","469366","0.0-1.0-319.0","0","0","44266","","null","","","null","35","","NaN","","","","","","","","","","","","","",""
"","response","","html-keyboard-response","262","469793","0.0-1.0-320.0-0.0","0","0","44266","","423","","","75","35","","","1","35","training","adjacent","EF","5","6","P.jpg","R.jpg","0","1","0","",""
"","feedback","","html-keyboard-response","263","470806","0.0-1.0-321.0-0.0","0","0","44266","","null","","","null","35","","","","","","","","","","","","","","","",""
"","time_out","","html-keyboard-response","264","472816","0.0-1.0-323.0-0.0","0","0","44266","","null","","","null","35","","","","","","","","","","","","","","","",""
"","ITI","","html-keyboard-response","265","473824","0.0-1.0-324.0","0","0","44266","","106","","","68","35","","","","","","","","","","","","","","","d",""
"","S1","","html-keyboard-response","266","473989","0.0-1.0-326.0","0","0","44266","","null","","","null","36","","","","","","","","","","","","","","","",""
"","ISI","","html-keyboard-response","267","475997","0.0-1.0-327.0","0","0","44266","","143","","","68","36","d","","","","","","","","","","","","","","",""
"","S2","","html-keyboard-response","268","476134","0.0-1.0-328.0","0","0","44266","","131","","","68","36","","d","1","36","training","adjacent","FE","6","5","R.jpg","P.jpg","1","0","0","",""
"","feedback","","html-keyboard-response","269","477141","0.0-1.0-330.0-0.0","0","0","44266","","null","","","null","36","","","","","","","","","","","","","","","",""
"","time_out","","html-keyboard-response","270","479152","0.0-1.0-332.0-0.0","0","0","44266","","null","","","null","36","","","","","","","","","","","","","","","",""
"","ITI","","html-keyboard-response","271","480165","0.0-1.0-333.0","0","0","44266","","239","","","75","36","","","","","","","","","","","","","","","k",""
"","S1","","html-keyboard-response","272","480326","0.0-1.0-335.0","0","0","44266","","null","","","null","37","","","","","","","","","","","","","","","",""
"","ISI","","html-keyboard-response","273","482336","0.0-1.0-336.0","0","0","44266","","43","","","68","37","d","","","","","","","","","","","","","","",""
"","S2","","html-keyboard-response","274","482501","0.0-1.0-337.0","0","0","44266","","null","","","null","37","","NaN","","","","","","","","","","","","","",""
"","response","","html-keyboard-response","275","482599","0.0-1.0-338.0-0.0","0","0","44266","","93","","","75","37","","","1","37","training","adjacent","EF","5","6","P.jpg","R.jpg","0","1","0","",""
"","feedback","","html-keyboard-response","276","483616","0.0-1.0-339.0-0.0","0","0","44266","","null","","","null","37","","","","","","","","","","","","","","","",""
"","time_out","","html-keyboard-response","277","485630","0.0-1.0-341.0-0.0","0","0","44266","","null","","","null","37","","","","","","","","","","","","","","","",""
"","ITI","","html-keyboard-response","278","486645","0.0-1.0-342.0","0","0","44266","","120","","","68","37","","","","","","","","","","","","","","","d",""
"","S1","","html-keyboard-response","279","486805","0.0-1.0-344.0","0","0","44266","","null","","","null","38","","","","","","","","","","","","","","","",""
"","ISI","","html-keyboard-response","280","488816","0.0-1.0-345.0","0","0","44266","","17","","","68","38","d","","","","","","","","","","","","","","",""
"","S2","","html-keyboard-response","281","488845","0.0-1.0-346.0","0","0","44266","","25","","","75","38","","k","1","38","training","adjacent","GF","7","6","Q.jpg","R.jpg","0","0","1","",""
"","feedback","","html-keyboard-response","282","489856","0.0-1.0-348.0-0.0","0","0","44266","","null","","","null","38","","","","","","","","","","","","","","","",""
"","ITI","","html-keyboard-response","283","490869","0.0-1.0-351.0","0","0","44266","","174","","","68","38","","","","","","","","","","","","","","","d",""
"","S1","","html-keyboard-response","284","491029","0.0-1.0-353.0","0","0","44266","","null","","","null","39","","","","","","","","","","","","","","","",""
"","ISI","","html-keyboard-response","285","493038","0.0-1.0-354.0","0","0","44266","","4","","","75","39","k","","","","","","","","","","","","","","",""
"","S2","","html-keyboard-response","286","493190","0.0-1.0-355.0","0","0","44266","","146","","","75","39","","k","1","39","training","adjacent","AB","1","2","O.jpg","L.jpg","0","1","0","",""
"","feedback","","html-keyboard-response","287","494197","0.0-1.0-357.0-0.0","0","0","44266","","null","","","null","39","","","","","","","","","","","","","","","",""
"","time_out","","html-keyboard-response","288","496207","0.0-1.0-359.0-0.0","0","0","44266","","null","","","null","39","","","","","","","","","","","","","","","",""
"","ITI","","html-keyboard-response","289","497220","0.0-1.0-360.0","0","0","44266","","124","","","75","39","","","","","","","","","","","","","","","k",""
"","S1","","html-keyboard-response","290","497380","0.0-1.0-362.0","0","0","44266","","null","","","null","40","","","","","","","","","","","","","","","",""
"","ISI","","html-keyboard-response","291","499391","0.0-1.0-363.0","0","0","44266","","224","","","68","40","d","","","","","","","","","","","","","","",""
"","S2","","html-keyboard-response","292","499551","0.0-1.0-364.0","0","0","44266","","null","","","null","40","","NaN","","","","","","","","","","","","","",""
"","response","","html-keyboard-response","293","500860","0.0-1.0-365.0-0.0","0","0","44266","","1304","","","75","40","","","1","40","training","adjacent","CB","3","2","N.jpg","L.jpg","0","0","1","",""
"","feedback","","html-keyboard-response","294","501871","0.0-1.0-366.0-0.0","0","0","44266","","null","","","null","40","","","","","","","","","","","","","","","",""
"","ITI","","html-keyboard-response","295","502885","0.0-1.0-369.0","0","0","44266","","null","","","null","40","","","","","","","","","","","","","","","NaN",""
"","S1","","html-keyboard-response","296","503045","0.0-1.0-371.0","0","0","44266","","null","","","null","41","","","","","","","","","","","","","","","",""
"","ISI","","html-keyboard-response","297","505055","0.0-1.0-372.0","0","0","44266","","null","","","null","41","NaN","","","","","","","","","","","","","","",""
"","S2","","html-keyboard-response","298","505220","0.0-1.0-373.0","0","0","44266","","null","","","null","41","","NaN","","","","","","","","","","","","","",""
"","response","","html-keyboard-response","299","506226","0.0-1.0-374.0-0.0","0","0","44266","","1000","","","75","41","","","1","41","training","adjacent","FE","6","5","R.jpg","P.jpg","0","0","1","",""
"","feedback","","html-keyboard-response","300","507236","0.0-1.0-375.0-0.0","0","0","44266","","null","","","null","41","","","","","","","","","","","","","","","",""
"","ITI","","html-keyboard-response","301","508244","0.0-1.0-378.0","0","0","44266","","null","","","null","41","","","","","","","","","","","","","","","NaN",""
"","S1","","html-keyboard-response","302","508404","0.0-1.0-380.0","0","0","44266","","null","","","null","42","","","","","","","","","","","","","","","",""
"","ISI","","html-keyboard-response","303","510415","0.0-1.0-381.0","0","0","44266","","null","","","null","42","NaN","","","","","","","","","","","","","","",""
"","S2","","html-keyboard-response","304","510580","0.0-1.0-382.0","0","0","44266","","null","","","null","42","","NaN","","","","","","","","","","","","","",""
"","response","","html-keyboard-response","305","511277","0.0-1.0-383.0-0.0","0","0","44266","","692","","","75","42","","","1","42","training","adjacent","BA","2","1","L.jpg","O.jpg","0","0","1","",""
"","feedback","","html-keyboard-response","306","512292","0.0-1.0-384.0-0.0","0","0","44266","","null","","","null","42","","","","","","","","","","","","","","","",""
"","ITI","","html-keyboard-response","307","513300","0.0-1.0-387.0","0","0","44266","","null","","","null","42","","","","","","","","","","","","","","","NaN",""
"","S1","","html-keyboard-response","308","513460","0.0-1.0-389.0","0","0","44266","","null","","","null","43","","","","","","","","","","","","","","","",""
"","ISI","","html-keyboard-response","309","515468","0.0-1.0-390.0","0","0","44266","","null","","","null","43","NaN","","","","","","","","","","","","","","",""
"","S2","","html-keyboard-response","310","515631","0.0-1.0-391.0","0","0","44266","","null","","","null","43","","NaN","","","","","","","","","","","","","",""
"","response","","html-keyboard-response","311","515975","0.0-1.0-392.0-0.0","0","0","44266","","339","","","68","43","","","1","43","training","adjacent","BA","2","1","L.jpg","O.jpg","1","0","0","",""
"","feedback","","html-keyboard-response","312","516991","0.0-1.0-393.0-0.0","0","0","44266","","null","","","null","43","","","","","","","","","","","","","","","",""
"","time_out","","html-keyboard-response","313","519007","0.0-1.0-395.0-0.0","0","0","44266","","null","","","null","43","","","","","","","","","","","","","","","",""
"","ITI","","html-keyboard-response","314","520020","0.0-1.0-396.0","0","0","44266","","null","","","null","43","","","","","","","","","","","","","","","NaN",""
"","S1","","html-keyboard-response","315","520180","0.0-1.0-398.0","0","0","44266","","null","","","null","44","","","","","","","","","","","","","","","",""
"","ISI","","html-keyboard-response","316","522191","0.0-1.0-399.0","0","0","44266","","null","","","null","44","NaN","","","","","","","","","","","","","","",""
"","S2","","html-keyboard-response","317","522356","0.0-1.0-400.0","0","0","44266","","null","","","null","44","","NaN","","","","","","","","","","","","","",""
"","response","","html-keyboard-response","318","523347","0.0-1.0-401.0-0.0","0","0","44266","","986","","","75","44","","","1","44","training","adjacent","GF","7","6","Q.jpg","R.jpg","0","0","1","",""
"","feedback","","html-keyboard-response","319","524356","0.0-1.0-402.0-0.0","0","0","44266","","null","","","null","44","","","","","","","","","","","","","","","",""
"","ITI","","html-keyboard-response","320","525363","0.0-1.0-405.0","0","0","44266","","null","","","null","44","","","","","","","","","","","","","","","NaN",""
"","S1","","html-keyboard-response","321","525524","0.0-1.0-407.0","0","0","44266","","null","","","null","45","","","","","","","","","","","","","","","",""
"","ISI","","html-keyboard-response","322","527534","0.0-1.0-408.0","0","0","44266","","null","","","null","45","NaN","","","","","","","","","","","","","","",""
"","S2","","html-keyboard-response","323","527700","0.0-1.0-409.0","0","0","44266","","null","","","null","45","","NaN","","","","","","","","","","","","","",""
"","response","","html-keyboard-response","324","528463","0.0-1.0-410.0-0.0","0","0","44266","","758","","","75","45","","","1","45","training","adjacent","BC","2","3","L.jpg","N.jpg","0","1","0","",""
"","feedback","","html-keyboard-response","325","529475","0.0-1.0-411.0-0.0","0","0","44266","","null","","","null","45","","","","","","","","","","","","","","","",""
"","time_out","","html-keyboard-response","326","531486","0.0-1.0-413.0-0.0","0","0","44266","","null","","","null","45","","","","","","","","","","","","","","","",""
"","ITI","","html-keyboard-response","327","532499","0.0-1.0-414.0","0","0","44266","","null","","","null","45","","","","","","","","","","","","","","","NaN",""
"","S1","","html-keyboard-response","328","532659","0.0-1.0-416.0","0","0","44266","","null","","","null","46","","","","","","","","","","","","","","","",""
"","ISI","","html-keyboard-response","329","534670","0.0-1.0-417.0","0","0","44266","","1371","","","68","46","d","","","","","","","","","","","","","","",""
"","S2","","html-keyboard-response","330","534835","0.0-1.0-418.0","0","0","44266","","null","","","null","46","","NaN","","","","","","","","","","","","","",""
"","response","","html-keyboard-response","331","535309","0.0-1.0-419.0-0.0","0","0","44266","","469","","","68","46","","","1","46","training","adjacent","ED","5","4","P.jpg","M.jpg","1","0","0","",""
"","feedback","","html-keyboard-response","332","536323","0.0-1.0-420.0-0.0","0","0","44266","","null","","","null","46","","","","","","","","","","","","","","","",""
"","time_out","","html-keyboard-response","333","538334","0.0-1.0-422.0-0.0","0","0","44266","","null","","","null","46","","","","","","","","","","","","","","","",""
"","ITI","","html-keyboard-response","334","539347","0.0-1.0-423.0","0","0","44266","","null","","","null","46","","","","","","","","","","","","","","","NaN",""
"","S1","","html-keyboard-response","335","539507","0.0-1.0-425.0","0","0","44266","","null","","","null","47","","","","","","","","","","","","","","","",""
"","ISI","","html-keyboard-response","336","541517","0.0-1.0-426.0","0","0","44266","","728","","","75","47","k","","","","","","","","","","","","","","",""
"","S2","","html-keyboard-response","337","541634","0.0-1.0-427.0","0","0","44266","","112","","","68","47","","d","1","47","training","adjacent","DC","4","3","M.jpg","N.jpg","1","0","0","",""
"","feedback","","html-keyboard-response","338","542643","0.0-1.0-429.0-0.0","0","0","44266","","null","","","null","47","","","","","","","","","","","","","","","",""
"","time_out","","html-keyboard-response","339","544654","0.0-1.0-431.0-0.0","0","0","44266","","null","","","null","47","","","","","","","","","","","","","","","",""
"","ITI","","html-keyboard-response","340","545667","0.0-1.0-432.0","0","0","44266","","null","","","null","47","","","","","","","","","","","","","","","NaN",""
"","block_over","","html-keyboard-response","341","550981","0.0-1.0-433.0-0.0","0","0","44266","","5308","","","32","47","","","","","","","","","","","","","","","",""
"","S1","","html-keyboard-response","342","551139","0.0-1.0-434.0","0","0","44266","","null","","","null","48","","","","","","","","","","","","","","","",""
"","ISI","","html-keyboard-response","343","553149","0.0-1.0-435.0","0","0","44266","","null","","","null","48","NaN","","","","","","","","","","","","","","",""
"","S2","","html-keyboard-response","344","553315","0.0-1.0-436.0","0","0","44266","","null","","","null","48","","NaN","","","","","","","","","","","","","",""
"","response","","html-keyboard-response","345","553506","0.0-1.0-437.0-0.0","0","0","44266","","186","","","75","48","","","2","48","training","adjacent","DE","4","5","M.jpg","P.jpg","0","1","0","",""
"","feedback","","html-keyboard-response","346","554515","0.0-1.0-438.0-0.0","0","0","44266","","null","","","null","48","","","","","","","","","","","","","","","",""
"","time_out","","html-keyboard-response","347","556525","0.0-1.0-440.0-0.0","0","0","44266","","null","","","null","48","","","","","","","","","","","","","","","",""
"","ITI","","html-keyboard-response","348","557539","0.0-1.0-441.0","0","0","44266","","null","","","null","48","","","","","","","","","","","","","","","NaN",""
"","S1","","html-keyboard-response","349","557698","0.0-1.0-443.0","0","0","44266","","null","","","null","49","","","","","","","","","","","","","","","",""
"","ISI","","html-keyboard-response","350","559709","0.0-1.0-444.0","0","0","44266","","207","","","75","49","k","","","","","","","","","","","","","","",""
"","S2","","html-keyboard-response","351","559875","0.0-1.0-445.0","0","0","44266","","null","","","null","49","","NaN","","","","","","","","","","","","","",""
"","response","","html-keyboard-response","352","560043","0.0-1.0-446.0-0.0","0","0","44266","","163","","","68","49","","","2","49","training","adjacent","EF","5","6","P.jpg","R.jpg","1","1","1","",""
"","feedback","","html-keyboard-response","353","561058","0.0-1.0-447.0-0.0","0","0","44266","","null","","","null","49","","","","","","","","","","","","","","","",""
"","ITI","","html-keyboard-response","354","562068","0.0-1.0-450.0","0","0","44266","","null","","","null","49","","","","","","","","","","","","","","","NaN",""
"","S1","","html-keyboard-response","355","562226","0.0-1.0-452.0","0","0","44266","","null","","","null","50","","","","","","","","","","","","","","","",""
"","ISI","","html-keyboard-response","356","564237","0.0-1.0-453.0","0","0","44266","","null","","","null","50","NaN","","","","","","","","","","","","","","",""
"","S2","","html-keyboard-response","357","564402","0.0-1.0-454.0","0","0","44266","","null","","","null","50","","NaN","","","","","","","","","","","","","",""
"","response","","html-keyboard-response","358","564739","0.0-1.0-455.0-0.0","0","0","44266","","332","","","68","50","","","2","50","training","adjacent","FE","6","5","R.jpg","P.jpg","1","0","0","",""
"","feedback","","html-keyboard-response","359","565757","0.0-1.0-456.0-0.0","0","0","44266","","null","","","null","50","","","","","","","","","","","","","","","",""
"","time_out","","html-keyboard-response","360","567773","0.0-1.0-458.0-0.0","0","0","44266","","null","","","null","50","","","","","","","","","","","","","","","",""
"","ITI","","html-keyboard-response","361","568786","0.0-1.0-459.0","0","0","44266","","240","","","75","50","","","","","","","","","","","","","","","k",""
"","S1","","html-keyboard-response","362","568946","0.0-1.0-461.0","0","0","44266","","null","","","null","51","","","","","","","","","","","","","","","",""
"","ISI","","html-keyboard-response","363","570957","0.0-1.0-462.0","0","0","44266","","null","","","null","51","NaN","","","","","","","","","","","","","","",""
"","S2","","html-keyboard-response","364","571122","0.0-1.0-463.0","0","0","44266","","null","","","null","51","","NaN","","","","","","","","","","","","","",""
"","response","","html-keyboard-response","365","571350","0.0-1.0-464.0-0.0","0","0","44266","","223","","","75","51","","","2","51","training","adjacent","AB","1","2","O.jpg","L.jpg","0","1","0","",""
"","feedback","","html-keyboard-response","366","572365","0.0-1.0-465.0-0.0","0","0","44266","","null","","","null","51","","","","","","","","","","","","","","","",""
"","time_out","","html-keyboard-response","367","574381","0.0-1.0-467.0-0.0","0","0","44266","","null","","","null","51","","","","","","","","","","","","","","","",""
"","ITI","","html-keyboard-response","368","575394","0.0-1.0-468.0","0","0","44266","","null","","","null","51","","","","","","","","","","","","","","","NaN",""
"","S1","","html-keyboard-response","369","575554","0.0-1.0-470.0","0","0","44266","","null","","","null","52","","","","","","","","","","","","","","","",""
"","ISI","","html-keyboard-response","370","577565","0.0-1.0-471.0","0","0","44266","","145","","","75","52","k","","","","","","","","","","","","","","",""
"","S2","","html-keyboard-response","371","577729","0.0-1.0-472.0","0","0","44266","","158","","","75","52","","k","2","52","training","adjacent","CB","3","2","N.jpg","L.jpg","0","0","1","",""
"","feedback","","html-keyboard-response","372","578737","0.0-1.0-474.0-0.0","0","0","44266","","null","","","null","52","","","","","","","","","","","","","","","",""
"","ITI","","html-keyboard-response","373","579745","0.0-1.0-477.0","0","0","44266","","105","","","75","52","","","","","","","","","","","","","","","k",""
"","S1","","html-keyboard-response","374","579906","0.0-1.0-479.0","0","0","44266","","null","","","null","53","","","","","","","","","","","","","","","",""
"","ISI","","html-keyboard-response","375","581911","0.0-1.0-480.0","0","0","44266","","51","","","75","53","k","","","","","","","","","","","","","","",""
"","S2","","html-keyboard-response","376","582076","0.0-1.0-481.0","0","0","44266","","null","","","null","53","","NaN","","","","","","","","","","","","","",""
"","response","","html-keyboard-response","377","582145","0.0-1.0-482.0-0.0","0","0","44266","","64","","","75","53","","","2","53","training","adjacent","CD","3","4","N.jpg","M.jpg","0","1","0","",""
"","feedback","","html-keyboard-response","378","583154","0.0-1.0-483.0-0.0","0","0","44266","","null","","","null","53","","","","","","","","","","","","","","","",""
"","time_out","","html-keyboard-response","379","585164","0.0-1.0-485.0-0.0","0","0","44266","","null","","","null","53","","","","","","","","","","","","","","","",""
"","ITI","","html-keyboard-response","380","586178","0.0-1.0-486.0","0","0","44266","","130","","","68","53","","","","","","","","","","","","","","","d",""
"","S1","","html-keyboard-response","381","586338","0.0-1.0-488.0","0","0","44266","","null","","","null","54","","","","","","","","","","","","","","","",""
"","ISI","","html-keyboard-response","382","588346","0.0-1.0-489.0","0","0","44266","","57","","","68","54","d","","","","","","","","","","","","","","",""
"","S2","","html-keyboard-response","383","588400","0.0-1.0-490.0","0","0","44266","","48","","","68","54","","d","2","54","training","adjacent","DC","4","3","M.jpg","N.jpg","1","0","0","",""
"","feedback","","html-keyboard-response","384","589408","0.0-1.0-492.0-0.0","0","0","44266","","null","","","null","54","","","","","","","","","","","","","","","",""
"","time_out","","html-keyboard-response","385","591420","0.0-1.0-494.0-0.0","0","0","44266","","null","","","null","54","","","","","","","","","","","","","","","",""
"","ITI","","html-keyboard-response","386","592433","0.0-1.0-495.0","0","0","44266","","67","","","75","54","","","","","","","","","","","","","","","k",""
"","S1","","html-keyboard-response","387","592594","0.0-1.0-497.0","0","0","44266","","null","","","null","55","","","","","","","","","","","","","","","",""
"","ISI","","html-keyboard-response","388","594604","0.0-1.0-498.0","0","0","44266","","60","","","75","55","k","","","","","","","","","","","","","","",""
"","S2","","html-keyboard-response","389","594769","0.0-1.0-499.0","0","0","44266","","null","","","null","55","","NaN","","","","","","","","","","","","","",""
"","response","","html-keyboard-response","390","594821","0.0-1.0-500.0-0.0","0","0","44266","","47","","","68","55","","","2","55","training","adjacent","FG","6","7","R.jpg","Q.jpg","1","1","1","",""
"","feedback","","html-keyboard-response","391","595835","0.0-1.0-501.0-0.0","0","0","44266","","null","","","null","55","","","","","","","","","","","","","","","",""
"","ITI","","html-keyboard-response","392","596849","0.0-1.0-504.0","0","0","44266","","489","","","75","55","","","","","","","","","","","","","","","k",""
"","S1","","html-keyboard-response","393","597010","0.0-1.0-506.0","0","0","44266","","null","","","null","56","","","","","","","","","","","","","","","",""
"","ISI","","html-keyboard-response","394","599020","0.0-1.0-507.0","0","0","44266","","1","","","75","56","k","","","","","","","","","","","","","","",""
"","S2","","html-keyboard-response","395","599026","0.0-1.0-508.0","0","0","44266","","2","","","75","56","","k","2","56","training","adjacent","EF","5","6","P.jpg","R.jpg","0","1","0","",""
"","feedback","","html-keyboard-response","396","600033","0.0-1.0-510.0-0.0","0","0","44266","","null","","","null","56","","","","","","","","","","","","","","","",""
"","time_out","","html-keyboard-response","397","602044","0.0-1.0-512.0-0.0","0","0","44266","","null","","","null","56","","","","","","","","","","","","","","","",""
"","ITI","","html-keyboard-response","398","603057","0.0-1.0-513.0","0","0","44266","","2","","","75","56","","","","","","","","","","","","","","","k",""
"","S1","","html-keyboard-response","399","603217","0.0-1.0-515.0","0","0","44266","","null","","","null","57","","","","","","","","","","","","","","","",""
"","ISI","","html-keyboard-response","400","605229","0.0-1.0-516.0","0","0","44266","","176","","","75","57","k","","","","","","","","","","","","","","",""
"","S2","","html-keyboard-response","401","605259","0.0-1.0-517.0","0","0","44266","","26","","","75","57","","k","2","57","training","adjacent","ED","5","4","P.jpg","M.jpg","0","0","1","",""
"","feedback","","html-keyboard-response","402","606272","0.0-1.0-519.0-0.0","0","0","44266","","null","","","null","57","","","","","","","","","","","","","","","",""
"","ITI","","html-keyboard-response","403","607286","0.0-1.0-522.0","0","0","44266","","698","","","68","57","","","","","","","","","","","","","","","d",""
"","S1","","html-keyboard-response","404","607446","0.0-1.0-524.0","0","0","44266","","null","","","null","58","","","","","","","","","","","","","","","",""
"","ISI","","html-keyboard-response","405","609460","0.0-1.0-525.0","0","0","44266","","222","","","68","58","d","","","","","","","","","","","","","","",""
"","S2","","html-keyboard-response","406","609564","0.0-1.0-526.0","0","0","44266","","100","","","68","58","","d","2","58","training","adjacent","EF","5","6","P.jpg","R.jpg","1","1","1","",""
"","feedback","","html-keyboard-response","407","610582","0.0-1.0-528.0-0.0","0","0","44266","","null","","","null","58","","","","","","","","","","","","","","","",""
"","ITI","","html-keyboard-response","408","611595","0.0-1.0-531.0","0","0","44266","","778","","","75","58","","","","","","","","","","","","","","","k",""
"","S1","","html-keyboard-response","409","611756","0.0-1.0-533.0","0","0","44266","","null","","","null","59","","","","","","","","","","","","","","","",""
"","ISI","","html-keyboard-response","410","613770","0.0-1.0-534.0","0","0","44266","","66","","","75","59","k","","","","","","","","","","","","","","",""
"","S2","","html-keyboard-response","411","613928","0.0-1.0-535.0","0","0","44266","","153","","","75","59","","k","2","59","training","adjacent","CD","3","4","N.jpg","M.jpg","0","1","0","",""
"","feedback","","html-keyboard-response","412","614944","0.0-1.0-537.0-0.0","0","0","44266","","null","","","null","59","","","","","","","","","","","","","","","",""
"","time_out","","html-keyboard-response","413","616956","0.0-1.0-539.0-0.0","0","0","44266","","null","","","null","59","","","","","","","","","","","","","","","",""
"","ITI","","html-keyboard-response","414","617971","0.0-1.0-540.0","0","0","44266","","56","","","75","59","","","","","","","","","","","","","","","k",""
"","S1","","html-keyboard-response","415","618131","0.0-1.0-542.0","0","0","44266","","null","","","null","60","","","","","","","","","","","","","","","",""
"","ISI","","html-keyboard-response","416","620143","0.0-1.0-543.0","0","0","44266","","60","","","75","60","k","","","","","","","","","","","","","","",""
"","S2","","html-keyboard-response","417","620238","0.0-1.0-544.0","0","0","44266","","90","","","75","60","","k","2","60","training","adjacent","GF","7","6","Q.jpg","R.jpg","0","0","1","",""
"","feedback","","html-keyboard-response","418","621253","0.0-1.0-546.0-0.0","0","0","44266","","null","","","null","60","","","","","","","","","","","","","","","",""
"","ITI","","html-keyboard-response","419","622262","0.0-1.0-549.0","0","0","44266","","407","","","68","60","","","","","","","","","","","","","","","d",""
"","S1","","html-keyboard-response","420","622422","0.0-1.0-551.0","0","0","44266","","null","","","null","61","","","","","","","","","","","","","","","",""
"","ISI","","html-keyboard-response","421","624434","0.0-1.0-552.0","0","0","44266","","164","","","68","61","d","","","","","","","","","","","","","","",""
"","S2","","html-keyboard-response","422","624502","0.0-1.0-553.0","0","0","44266","","63","","","68","61","","d","2","61","training","adjacent","DE","4","5","M.jpg","P.jpg","1","1","1","",""
"","feedback","","html-keyboard-response","423","625512","0.0-1.0-555.0-0.0","0","0","44266","","null","","","null","61","","","","","","","","","","","","","","","",""
"","ITI","","html-keyboard-response","424","626531","0.0-1.0-558.0","0","0","44266","","957","","","68","61","","","","","","","","","","","","","","","d",""
"","S1","","html-keyboard-response","425","626691","0.0-1.0-560.0","0","0","44266","","null","","","null","62","","","","","","","","","","","","","","","",""
"","ISI","","html-keyboard-response","426","628708","0.0-1.0-561.0","0","0","44266","","6","","","68","62","d","","","","","","","","","","","","","","",""
"","S2","","html-keyboard-response","427","628793","0.0-1.0-562.0","0","0","44266","","80","","","68","62","","d","2","62","training","adjacent","CB","3","2","N.jpg","L.jpg","1","0","0","",""
"","feedback","","html-keyboard-response","428","629801","0.0-1.0-564.0-0.0","0","0","44266","","null","","","null","62","","","","","","","","","","","","","","","",""
"","time_out","","html-keyboard-response","429","631813","0.0-1.0-566.0-0.0","0","0","44266","","null","","","null","62","","","","","","","","","","","","","","","",""
"","ITI","","html-keyboard-response","430","632827","0.0-1.0-567.0","0","0","44266","","201","","","75","62","","","","","","","","","","","","","","","k",""
"","S1","","html-keyboard-response","431","632986","0.0-1.0-569.0","0","0","44266","","null","","","null","63","","","","","","","","","","","","","","","",""
"","ISI","","html-keyboard-response","432","634997","0.0-1.0-570.0","0","0","44266","","141","","","75","63","k","","","","","","","","","","","","","","",""
"","S2","","html-keyboard-response","433","635158","0.0-1.0-571.0","0","0","44266","","null","","","null","63","","NaN","","","","","","","","","","","","","",""
"","response","","html-keyboard-response","434","635198","0.0-1.0-572.0-0.0","0","0","44266","","36","","","75","63","","","2","63","training","adjacent","DC","4","3","M.jpg","N.jpg","0","0","1","",""
"","feedback","","html-keyboard-response","435","636215","0.0-1.0-573.0-0.0","0","0","44266","","null","","","null","63","","","","","","","","","","","","","","","",""
"","ITI","","html-keyboard-response","436","637228","0.0-1.0-576.0","0","0","44266","","816","","","75","63","","","","","","","","","","","","","","","k",""
"","S1","","html-keyboard-response","437","637388","0.0-1.0-578.0","0","0","44266","","null","","","null","64","","","","","","","","","","","","","","","",""
"","ISI","","html-keyboard-response","438","639399","0.0-1.0-579.0","0","0","44266","","145","","","75","64","k","","","","","","","","","","","","","","",""
"","S2","","html-keyboard-response","439","639451","0.0-1.0-580.0","0","0","44266","","47","","","75","64","","k","2","64","training","adjacent","BA","2","1","L.jpg","O.jpg","0","0","1","",""
"","feedback","","html-keyboard-response","440","640460","0.0-1.0-582.0-0.0","0","0","44266","","null","","","null","64","","","","","","","","","","","","","","","",""
"","ITI","","html-keyboard-response","441","641469","0.0-1.0-585.0","0","0","44266","","338","","","68","64","","","","","","","","","","","","","","","d",""
"","S1","","html-keyboard-response","442","641628","0.0-1.0-587.0","0","0","44266","","null","","","null","65","","","","","","","","","","","","","","","",""
"","ISI","","html-keyboard-response","443","643638","0.0-1.0-588.0","0","0","44266","","125","","","68","65","d","","","","","","","","","","","","","","",""
"","S2","","html-keyboard-response","444","643674","0.0-1.0-589.0","0","0","44266","","33","","","68","65","","d","2","65","training","adjacent","FE","6","5","R.jpg","P.jpg","1","0","0","",""
"","feedback","","html-keyboard-response","445","644685","0.0-1.0-591.0-0.0","0","0","44266","","null","","","null","65","","","","","","","","","","","","","","","",""
"","time_out","","html-keyboard-response","446","646696","0.0-1.0-593.0-0.0","0","0","44266","","null","","","null","65","","","","","","","","","","","","","","","",""
"","ITI","","html-keyboard-response","447","647709","0.0-1.0-594.0","0","0","44266","","371","","","68","65","","","","","","","","","","","","","","","d",""
"","S1","","html-keyboard-response","448","647869","0.0-1.0-596.0","0","0","44266","","null","","","null","66","","","","","","","","","","","","","","","",""
"","ISI","","html-keyboard-response","449","649880","0.0-1.0-597.0","0","0","44266","","371","","","68","66","d","","","","","","","","","","","","","","",""
"","S2","","html-keyboard-response","450","650046","0.0-1.0-598.0","0","0","44266","","null","","","null","66","","NaN","","","","","","","","","","","","","",""
"","response","","html-keyboard-response","451","650148","0.0-1.0-599.0-0.0","0","0","44266","","97","","","68","66","","","2","66","training","adjacent","BC","2","3","L.jpg","N.jpg","1","1","1","",""
"","feedback","","html-keyboard-response","452","651160","0.0-1.0-600.0-0.0","0","0","44266","","null","","","null","66","","","","","","","","","","","","","","","",""
"","ITI","","html-keyboard-response","453","652174","0.0-1.0-603.0","0","0","44266","","null","","","null","66","","","","","","","","","","","","","","","NaN",""
"","S1","","html-keyboard-response","454","652334","0.0-1.0-605.0","0","0","44266","","null","","","null","67","","","","","","","","","","","","","","","",""
"","ISI","","html-keyboard-response","455","654345","0.0-1.0-606.0","0","0","44266","","null","","","null","67","NaN","","","","","","","","","","","","","","",""
"","S2","","html-keyboard-response","456","654510","0.0-1.0-607.0","0","0","44266","","null","","","null","67","","NaN","","","","","","","","","","","","","",""
"","response","","html-keyboard-response","457","655037","0.0-1.0-608.0-0.0","0","0","44266","","521","","","75","67","","","2","67","training","adjacent","AB","1","2","O.jpg","L.jpg","0","1","0","",""
"","feedback","","html-keyboard-response","458","656046","0.0-1.0-609.0-0.0","0","0","44266","","null","","","null","67","","","","","","","","","","","","","","","",""
"","time_out","","html-keyboard-response","459","658057","0.0-1.0-611.0-0.0","0","0","44266","","null","","","null","67","","","","","","","","","","","","","","","",""
"","ITI","","html-keyboard-response","460","659070","0.0-1.0-612.0","0","0","44266","","116","","","68","67","","","","","","","","","","","","","","","d",""
"","S1","","html-keyboard-response","461","659230","0.0-1.0-614.0","0","0","44266","","null","","","null","68","","","","","","","","","","","","","","","",""
"","ISI","","html-keyboard-response","462","661241","0.0-1.0-615.0","0","0","44266","","172","","","75","68","k","","","","","","","","","","","","","","",""
"","S2","","html-keyboard-response","463","661352","0.0-1.0-616.0","0","0","44266","","106","","","75","68","","k","2","68","training","adjacent","FG","6","7","R.jpg","Q.jpg","0","1","0","",""
"","feedback","","html-keyboard-response","464","662366","0.0-1.0-618.0-0.0","0","0","44266","","null","","","null","68","","","","","","","","","","","","","","","",""
"","time_out","","html-keyboard-response","465","664377","0.0-1.0-620.0-0.0","0","0","44266","","null","","","null","68","","","","","","","","","","","","","","","",""
"","ITI","","html-keyboard-response","466","665391","0.0-1.0-621.0","0","0","44266","","101","","","75","68","","","","","","","","","","","","","","","k",""
"","S1","","html-keyboard-response","467","665550","0.0-1.0-623.0","0","0","44266","","null","","","null","69","","","","","","","","","","","","","","","",""
"","ISI","","html-keyboard-response","468","667561","0.0-1.0-624.0","0","0","44266","","44","","","75","69","k","","","","","","","","","","","","","","",""
"","S2","","html-keyboard-response","469","667726","0.0-1.0-625.0","0","0","44266","","null","","","null","69","","NaN","","","","","","","","","","","","","",""
"","response","","html-keyboard-response","470","667763","0.0-1.0-626.0-0.0","0","0","44266","","31","","","75","69","","","2","69","training","adjacent","AB","1","2","O.jpg","L.jpg","0","1","0","",""
"","feedback","","html-keyboard-response","471","668777","0.0-1.0-627.0-0.0","0","0","44266","","null","","","null","69","","","","","","","","","","","","","","","",""
"","time_out","","html-keyboard-response","472","670793","0.0-1.0-629.0-0.0","0","0","44266","","null","","","null","69","","","","","","","","","","","","","","","",""
"","ITI","","html-keyboard-response","473","671801","0.0-1.0-630.0","0","0","44266","","233","","","75","69","","","","","","","","","","","","","","","k",""
"","S1","","html-keyboard-response","474","671966","0.0-1.0-632.0","0","0","44266","","null","","","null","70","","","","","","","","","","","","","","","",""
"","ISI","","html-keyboard-response","475","673977","0.0-1.0-633.0","0","0","44266","","193","","","75","70","k","","","","","","","","","","","","","","",""
"","S2","","html-keyboard-response","476","674043","0.0-1.0-634.0","0","0","44266","","61","","","68","70","","d","2","70","training","adjacent","CB","3","2","N.jpg","L.jpg","1","0","0","",""
"","feedback","","html-keyboard-response","477","675054","0.0-1.0-636.0-0.0","0","0","44266","","null","","","null","70","","","","","","","","","","","","","","","",""
"","time_out","","html-keyboard-response","478","677065","0.0-1.0-638.0-0.0","0","0","44266","","null","","","null","70","","","","","","","","","","","","","","","",""
"","ITI","","html-keyboard-response","479","678078","0.0-1.0-639.0","0","0","44266","","399","","","68","70","","","","","","","","","","","","","","","d",""
"","S1","","html-keyboard-response","480","678238","0.0-1.0-641.0","0","0","44266","","null","","","null","71","","","","","","","","","","","","","","","",""
"","ISI","","html-keyboard-response","481","680249","0.0-1.0-642.0","0","0","44266","","634","","","68","71","d","","","","","","","","","","","","","","",""
"","S2","","html-keyboard-response","482","680414","0.0-1.0-643.0","0","0","44266","","null","","","null","71","","NaN","","","","","","","","","","","","","",""
"","response","","html-keyboard-response","483","681058","0.0-1.0-644.0-0.0","0","0","44266","","639","","","68","71","","","2","71","training","adjacent","ED","5","4","P.jpg","M.jpg","1","0","0","",""
"","feedback","","html-keyboard-response","484","682073","0.0-1.0-645.0-0.0","0","0","44266","","null","","","null","71","","","","","","","","","","","","","","","",""
"","time_out","","html-keyboard-response","485","684082","0.0-1.0-647.0-0.0","0","0","44266","","null","","","null","71","","","","","","","","","","","","","","","",""
"","ITI","","html-keyboard-response","486","685097","0.0-1.0-648.0","0","0","44266","","181","","","68","71","","","","","","","","","","","","","","","d",""
"","S1","","html-keyboard-response","487","685262","0.0-1.0-650.0","0","0","44266","","null","","","null","72","","","","","","","","","","","","","","","",""
"","ISI","","html-keyboard-response","488","687273","0.0-1.0-651.0","0","0","44266","","161","","","75","72","k","","","","","","","","","","","","","","",""
"","S2","","html-keyboard-response","489","687329","0.0-1.0-652.0","0","0","44266","","50","","","75","72","","k","2","72","training","adjacent","BC","2","3","L.jpg","N.jpg","0","1","0","",""
"","feedback","","html-keyboard-response","490","688345","0.0-1.0-654.0-0.0","0","0","44266","","null","","","null","72","","","","","","","","","","","","","","","",""
"","time_out","","html-keyboard-response","491","690361","0.0-1.0-656.0-0.0","0","0","44266","","null","","","null","72","","","","","","","","","","","","","","","",""
"","ITI","","html-keyboard-response","492","691374","0.0-1.0-657.0","0","0","44266","","100","","","75","72","","","","","","","","","","","","","","","k",""
"","S1","","html-keyboard-response","493","691534","0.0-1.0-659.0","0","0","44266","","null","","","null","73","","","","","","","","","","","","","","","",""
"","ISI","","html-keyboard-response","494","693545","0.0-1.0-660.0","0","0","44266","","178","","","75","73","k","","","","","","","","","","","","","","",""
"","S2","","html-keyboard-response","495","693710","0.0-1.0-661.0","0","0","44266","","null","","","null","73","","NaN","","","","","","","","","","","","","",""
"","response","","html-keyboard-response","496","693918","0.0-1.0-662.0-0.0","0","0","44266","","203","","","75","73","","","2","73","training","adjacent","ED","5","4","P.jpg","M.jpg","0","0","1","",""
"","feedback","","html-keyboard-response","497","694926","0.0-1.0-663.0-0.0","0","0","44266","","null","","","null","73","","","","","","","","","","","","","","","",""
"","ITI","","html-keyboard-response","498","695934","0.0-1.0-666.0","0","0","44266","","null","","","null","73","","","","","","","","","","","","","","","NaN",""
"","S1","","html-keyboard-response","499","696095","0.0-1.0-668.0","0","0","44266","","null","","","null","74","","","","","","","","","","","","","","","",""
"","ISI","","html-keyboard-response","500","698111","0.0-1.0-669.0","0","0","44266","","null","","","null","74","NaN","","","","","","","","","","","","","","",""
"","S2","","html-keyboard-response","501","698270","0.0-1.0-670.0","0","0","44266","","null","","","null","74","","NaN","","","","","","","","","","","","","",""
"","response","","html-keyboard-response","502","700137","0.0-1.0-671.0-0.0","0","0","44266","","null","","","null","74","","","2","74","training","adjacent","FE","6","5","R.jpg","P.jpg","NaN","0","0","",""
"","too_slow_prompt","","html-keyboard-response","503","701150","0.0-1.0-673.0-0.0","1","0","44266","","null","","","null","","","","","","","","","","","","","","","","",""
"","time_out","","html-keyboard-response","504","703161","0.0-1.0-674.0-0.0","0","0","44266","","null","","","null","74","","","","","","","","","","","","","","","",""
"","ITI","","html-keyboard-response","505","704174","0.0-1.0-675.0","0","0","44266","","165","","","75","74","","","","","","","","","","","","","","","k",""
"","S1","","html-keyboard-response","506","704334","0.0-1.0-677.0","0","0","44266","","null","","","null","75","","","","","","","","","","","","","","","",""
"","ISI","","html-keyboard-response","507","706343","0.0-1.0-678.0","0","0","44266","","589","","","75","75","k","","","","","","","","","","","","","","",""
"","S2","","html-keyboard-response","508","706505","0.0-1.0-679.0","0","0","44266","","156","","","75","75","","k","2","75","training","adjacent","FG","6","7","R.jpg","Q.jpg","0","1","0","",""
"","feedback","","html-keyboard-response","509","707518","0.0-1.0-681.0-0.0","0","0","44266","","null","","","null","75","","","","","","","","","","","","","","","",""
"","time_out","","html-keyboard-response","510","709529","0.0-1.0-683.0-0.0","0","0","44266","","null","","","null","75","","","","","","","","","","","","","","","",""
"","ITI","","html-keyboard-response","511","710542","0.0-1.0-684.0","0","0","44266","","2","","","75","75","","","","","","","","","","","","","","","k",""
"","S1","","html-keyboard-response","512","710702","0.0-1.0-686.0","0","0","44266","","null","","","null","76","","","","","","","","","","","","","","","",""
"","ISI","","html-keyboard-response","513","712712","0.0-1.0-687.0","0","0","44266","","199","","","75","76","k","","","","","","","","","","","","","","",""
"","S2","","html-keyboard-response","514","712808","0.0-1.0-688.0","0","0","44266","","90","","","75","76","","k","2","76","training","adjacent","AB","1","2","O.jpg","L.jpg","0","1","0","",""
"","feedback","","html-keyboard-response","515","713816","0.0-1.0-690.0-0.0","0","0","44266","","null","","","null","76","","","","","","","","","","","","","","","",""
"","time_out","","html-keyboard-response","516","715832","0.0-1.0-692.0-0.0","0","0","44266","","null","","","null","76","","","","","","","","","","","","","","","",""
"","ITI","","html-keyboard-response","517","716846","0.0-1.0-693.0","0","0","44266","","169","","","75","76","","","","","","","","","","","","","","","k",""
"","S1","","html-keyboard-response","518","717005","0.0-1.0-695.0","0","0","44266","","null","","","null","77","","","","","","","","","","","","","","","",""
"","ISI","","html-keyboard-response","519","719016","0.0-1.0-696.0","0","0","44266","","149","","","68","77","d","","","","","","","","","","","","","","",""
"","S2","","html-keyboard-response","520","719156","0.0-1.0-697.0","0","0","44266","","135","","","68","77","","d","2","77","training","adjacent","CD","3","4","N.jpg","M.jpg","1","1","1","",""
"","feedback","","html-keyboard-response","521","720165","0.0-1.0-699.0-0.0","0","0","44266","","null","","","null","77","","","","","","","","","","","","","","","",""
"","ITI","","html-keyboard-response","522","721176","0.0-1.0-702.0","0","0","44266","","12","","","75","77","","","","","","","","","","","","","","","k",""
"","S1","","html-keyboard-response","523","721342","0.0-1.0-704.0","0","0","44266","","null","","","null","78","","","","","","","","","","","","","","","",""
"","ISI","","html-keyboard-response","524","723352","0.0-1.0-705.0","0","0","44266","","56","","","75","78","k","","","","","","","","","","","","","","",""
"","S2","","html-keyboard-response","525","723416","0.0-1.0-706.0","0","0","44266","","58","","","75","78","","k","2","78","training","adjacent","ED","5","4","P.jpg","M.jpg","0","0","1","",""
"","feedback","","html-keyboard-response","526","724429","0.0-1.0-708.0-0.0","0","0","44266","","null","","","null","78","","","","","","","","","","","","","","","",""
"","ITI","","html-keyboard-response","527","725438","0.0-1.0-711.0","0","0","44266","","163","","","75","78","","","","","","","","","","","","","","","k",""
"","S1","","html-keyboard-response","528","725597","0.0-1.0-713.0","0","0","44266","","null","","","null","79","","","","","","","","","","","","","","","",""
"","ISI","","html-keyboard-response","529","727608","0.0-1.0-714.0","0","0","44266","","65","","","68","79","d","","","","","","","","","","","","","","",""
"","S2","","html-keyboard-response","530","727773","0.0-1.0-715.0","0","0","44266","","null","","","null","79","","NaN","","","","","","","","","","","","","",""
"","response","","html-keyboard-response","531","727787","0.0-1.0-716.0-0.0","0","0","44266","","10","","","68","79","","","2","79","training","adjacent","FG","6","7","R.jpg","Q.jpg","1","1","1","",""
"","feedback","","html-keyboard-response","532","728797","0.0-1.0-717.0-0.0","0","0","44266","","null","","","null","79","","","","","","","","","","","","","","","",""
"","ITI","","html-keyboard-response","533","729805","0.0-1.0-720.0","0","0","44266","","625","","","75","79","","","","","","","","","","","","","","","k",""
"","S1","","html-keyboard-response","534","729966","0.0-1.0-722.0","0","0","44266","","null","","","null","80","","","","","","","","","","","","","","","",""
"","ISI","","html-keyboard-response","535","731976","0.0-1.0-723.0","0","0","44266","","166","","","75","80","k","","","","","","","","","","","","","","",""
"","S2","","html-keyboard-response","536","732041","0.0-1.0-724.0","0","0","44266","","60","","","75","80","","k","2","80","training","adjacent","DE","4","5","M.jpg","P.jpg","0","1","0","",""
"","feedback","","html-keyboard-response","537","733054","0.0-1.0-726.0-0.0","0","0","44266","","null","","","null","80","","","","","","","","","","","","","","","",""
"","time_out","","html-keyboard-response","538","735069","0.0-1.0-728.0-0.0","0","0","44266","","null","","","null","80","","","","","","","","","","","","","","","",""
"","ITI","","html-keyboard-response","539","736077","0.0-1.0-729.0","0","0","44266","","116","","","68","80","","","","","","","","","","","","","","","d",""
"","S1","","html-keyboard-response","540","736237","0.0-1.0-731.0","0","0","44266","","null","","","null","81","","","","","","","","","","","","","","","",""
"","ISI","","html-keyboard-response","541","738247","0.0-1.0-732.0","0","0","44266","","118","","","68","81","d","","","","","","","","","","","","","","",""
"","S2","","html-keyboard-response","542","738408","0.0-1.0-733.0","0","0","44266","","null","","","null","81","","NaN","","","","","","","","","","","","","",""
"","response","","html-keyboard-response","543","738644","0.0-1.0-734.0-0.0","0","0","44266","","231","","","68","81","","","2","81","training","adjacent","FE","6","5","R.jpg","P.jpg","1","0","0","",""
"","feedback","","html-keyboard-response","544","739655","0.0-1.0-735.0-0.0","0","0","44266","","null","","","null","81","","","","","","","","","","","","","","","",""
"","time_out","","html-keyboard-response","545","741672","0.0-1.0-737.0-0.0","0","0","44266","","null","","","null","81","","","","","","","","","","","","","","","",""
"","ITI","","html-keyboard-response","546","742685","0.0-1.0-738.0","0","0","44266","","107","","","68","81","","","","","","","","","","","","","","","d",""
"","S1","","html-keyboard-response","547","742845","0.0-1.0-740.0","0","0","44266","","null","","","null","82","","","","","","","","","","","","","","","",""
"","ISI","","html-keyboard-response","548","744856","0.0-1.0-741.0","0","0","44266","","172","","","68","82","d","","","","","","","","","","","","","","",""
"","S2","","html-keyboard-response","549","744882","0.0-1.0-742.0","0","0","44266","","23","","","68","82","","d","2","82","training","adjacent","BA","2","1","L.jpg","O.jpg","1","0","0","",""
"","feedback","","html-keyboard-response","550","745891","0.0-1.0-744.0-0.0","0","0","44266","","null","","","null","82","","","","","","","","","","","","","","","",""
"","time_out","","html-keyboard-response","551","747901","0.0-1.0-746.0-0.0","0","0","44266","","null","","","null","82","","","","","","","","","","","","","","","",""
"","ITI","","html-keyboard-response","552","748909","0.0-1.0-747.0","0","0","44266","","41","","","75","82","","","","","","","","","","","","","","","k",""
"","S1","","html-keyboard-response","553","749070","0.0-1.0-749.0","0","0","44266","","null","","","null","83","","","","","","","","","","","","","","","",""
"","ISI","","html-keyboard-response","554","751080","0.0-1.0-750.0","0","0","44266","","65","","","75","83","k","","","","","","","","","","","","","","",""
"","S2","","html-keyboard-response","555","751245","0.0-1.0-751.0","0","0","44266","","null","","","null","83","","NaN","","","","","","","","","","","","","",""
"","response","","html-keyboard-response","556","751248","0.0-1.0-752.0-0.0","0","0","44266","","0","","","75","83","","","2","83","training","adjacent","BC","2","3","L.jpg","N.jpg","0","1","0","",""
"","feedback","","html-keyboard-response","557","752264","0.0-1.0-753.0-0.0","0","0","44266","","null","","","null","83","","","","","","","","","","","","","","","",""
"","time_out","","html-keyboard-response","558","754279","0.0-1.0-755.0-0.0","0","0","44266","","null","","","null","83","","","","","","","","","","","","","","","",""
"","ITI","","html-keyboard-response","559","755293","0.0-1.0-756.0","0","0","44266","","95","","","75","83","","","","","","","","","","","","","","","k",""
"","S1","","html-keyboard-response","560","755453","0.0-1.0-758.0","0","0","44266","","null","","","null","84","","","","","","","","","","","","","","","",""
"","ISI","","html-keyboard-response","561","757463","0.0-1.0-759.0","0","0","44266","","25","","","75","84","k","","","","","","","","","","","","","","",""
"","S2","","html-keyboard-response","562","757491","0.0-1.0-760.0","0","0","44266","","26","","","75","84","","k","2","84","training","adjacent","BA","2","1","L.jpg","O.jpg","0","0","1","",""
"","feedback","","html-keyboard-response","563","758504","0.0-1.0-762.0-0.0","0","0","44266","","null","","","null","84","","","","","","","","","","","","","","","",""
"","ITI","","html-keyboard-response","564","759517","0.0-1.0-765.0","0","0","44266","","226","","","75","84","","","","","","","","","","","","","","","k",""
"","S1","","html-keyboard-response","565","759677","0.0-1.0-767.0","0","0","44266","","null","","","null","85","","","","","","","","","","","","","","","",""
"","ISI","","html-keyboard-response","566","761687","0.0-1.0-768.0","0","0","44266","","176","","","75","85","k","","","","","","","","","","","","","","",""
"","S2","","html-keyboard-response","567","761853","0.0-1.0-769.0","0","0","44266","","null","","","null","85","","NaN","","","","","","","","","","","","","",""
"","response","","html-keyboard-response","568","761955","0.0-1.0-770.0-0.0","0","0","44266","","97","","","75","85","","","2","85","training","adjacent","CD","3","4","N.jpg","M.jpg","0","1","0","",""
"","feedback","","html-keyboard-response","569","762967","0.0-1.0-771.0-0.0","0","0","44266","","null","","","null","85","","","","","","","","","","","","","","","",""
"","time_out","","html-keyboard-response","570","764983","0.0-1.0-773.0-0.0","0","0","44266","","null","","","null","85","","","","","","","","","","","","","","","",""
"","ITI","","html-keyboard-response","571","765997","0.0-1.0-774.0","0","0","44266","","41","","","68","85","","","","","","","","","","","","","","","d",""
"","S1","","html-keyboard-response","572","766155","0.0-1.0-776.0","0","0","44266","","null","","","null","86","","","","","","","","","","","","","","","",""
"","ISI","","html-keyboard-response","573","768167","0.0-1.0-777.0","0","0","44266","","168","","","68","86","d","","","","","","","","","","","","","","",""
