"success","ttype","start_time","trial_type","trial_index","time_elapsed","internal_node_id","warning","missed_checkup","PID","view_history","rt","responses","repeat_instructions","key_press","index","keypress_isi","keypress_S2","block","trial_num","phase","group_type","pair_type","S1_stim","S2_stim","S1_img","S2_img","S1_chosen","S1_higher","accuracy","keypress_iti","total_bonus_tally"
"true","full_screen","d04132023hr2244","fullscreen","0","9003","0.0-0.0","0","0","45682","","","","","","","","","","","","","","","","","","","","","",""
"","instructions","","instructions","1","41468","0.0-1.0-0.0-0.0","0","0","45682","[{""page_index"":0,""viewing_time"":4682},{""page_index"":1,""viewing_time"":13256},{""page_index"":2,""viewing_time"":11796},{""page_index"":3,""viewing_time"":2730}]","32465","","","","","","","","","","","","","","","","","","","",""
"","comprehension_check","","survey-multi-choice","2","70099","0.0-1.0-0.0-1.0","0","0","45682","","28628","{""Q0"":""True"",""Q1"":""D"",""Q2"":""Once the second image appears and while the screen 'MAKE A CHOICE' is shown"",""Q3"":""Green mark"",""Q4"":""either D or K""}","0","","","","","","","","","","","","","","","","","",""
"","start_exp","","html-keyboard-response","3","71731","0.0-1.0-1.0","0","0","45682","","1630","","","32","","","","","","","","","","","","","","","","",""
"","S1","","html-keyboard-response","4","71984","0.0-1.0-2.0","0","0","45682","","null","","","null","0","","","","","","","","","","","","","","","",""
"","ISI","","html-keyboard-response","5","72986","0.0-1.0-3.0","0","0","45682","","null","","","null","0","NaN","","","","","","","","","","","","","","",""
"","S2","","html-keyboard-response","6","73239","0.0-1.0-4.0","0","0","45682","","null","","","null","0","","NaN","","","","","","","","","","","","","",""
"","response","","html-keyboard-response","7","74193","0.0-1.0-5.0-0.0","0","0","45682","","952","","","75","0","","","1","0","training","adjacent","CB","3","2","P.jpg","Q.jpg","0","0","1","",""
"","feedback","","html-keyboard-response","8","75195","0.0-1.0-6.0-0.0","0","0","45682","","null","","","null","0","","","","","","","","","","","","","","","",""
"","ITI","","html-keyboard-response","9","76197","0.0-1.0-9.0","0","0","45682","","null","","","null","0","","","","","","","","","","","","","","","NaN",""
"","S1","","html-keyboard-response","10","76450","0.0-1.0-11.0","0","0","45682","","null","","","null","1","","","","","","","","","","","","","","","",""
"","ISI","","html-keyboard-response","11","77453","0.0-1.0-12.0","0","0","45682","","null","","","null","1","NaN","","","","","","","","","","","","","","",""
"","S2","","html-keyboard-response","12","77705","0.0-1.0-13.0","0","0","45682","","null","","","null","1","","NaN","","","","","","","","","","","","","",""
"","response","","html-keyboard-response","13","78841","0.0-1.0-14.0-0.0","0","0","45682","","1135","","","68","1","","","1","1","training","adjacent","AB","1","2","M.jpg","Q.jpg","1","1","1","",""
"","feedback","","html-keyboard-response","14","79843","0.0-1.0-15.0-0.0","0","0","45682","","null","","","null","1","","","","","","","","","","","","","","","",""
"","ITI","","html-keyboard-response","15","80846","0.0-1.0-18.0","0","0","45682","","null","","","null","1","","","","","","","","","","","","","","","NaN",""
"","S1","","html-keyboard-response","16","81098","0.0-1.0-20.0","0","0","45682","","null","","","null","2","","","","","","","","","","","","","","","",""
"","ISI","","html-keyboard-response","17","82100","0.0-1.0-21.0","0","0","45682","","null","","","null","2","NaN","","","","","","","","","","","","","","",""
"","S2","","html-keyboard-response","18","82360","0.0-1.0-22.0","0","0","45682","","null","","","null","2","","NaN","","","","","","","","","","","","","",""
"","response","","html-keyboard-response","19","83099","0.0-1.0-23.0-0.0","0","0","45682","","738","","","75","2","","","1","2","training","adjacent","DE","4","5","R.jpg","N.jpg","0","1","0","",""
"","feedback","","html-keyboard-response","20","84101","0.0-1.0-24.0-0.0","0","0","45682","","null","","","null","2","","","","","","","","","","","","","","","",""
"","time_out","","html-keyboard-response","21","86104","0.0-1.0-26.0-0.0","0","0","45682","","null","","","null","2","","","","","","","","","","","","","","","",""
"","ITI","","html-keyboard-response","22","87106","0.0-1.0-27.0","0","0","45682","","null","","","null","2","","","","","","","","","","","","","","","NaN",""
"","S1","","html-keyboard-response","23","87358","0.0-1.0-29.0","0","0","45682","","null","","","null","3","","","","","","","","","","","","","","","",""
"","ISI","","html-keyboard-response","24","88360","0.0-1.0-30.0","0","0","45682","","null","","","null","3","NaN","","","","","","","","","","","","","","",""
"","S2","","html-keyboard-response","25","88613","0.0-1.0-31.0","0","0","45682","","null","","","null","3","","NaN","","","","","","","","","","","","","",""
"","response","","html-keyboard-response","26","89240","0.0-1.0-32.0-0.0","0","0","45682","","626","","","75","3","","","1","3","training","adjacent","GF","7","6","L.jpg","O.jpg","0","0","1","",""
"","feedback","","html-keyboard-response","27","90242","0.0-1.0-33.0-0.0","0","0","45682","","null","","","null","3","","","","","","","","","","","","","","","",""
"","ITI","","html-keyboard-response","28","91244","0.0-1.0-36.0","0","0","45682","","null","","","null","3","","","","","","","","","","","","","","","NaN",""
"","S1","","html-keyboard-response","29","91496","0.0-1.0-38.0","0","0","45682","","null","","","null","4","","","","","","","","","","","","","","","",""
"","ISI","","html-keyboard-response","30","92499","0.0-1.0-39.0","0","0","45682","","null","","","null","4","NaN","","","","","","","","","","","","","","",""
"","S2","","html-keyboard-response","31","92751","0.0-1.0-40.0","0","0","45682","","null","","","null","4","","NaN","","","","","","","","","","","","","",""
"","response","","html-keyboard-response","32","93291","0.0-1.0-41.0-0.0","0","0","45682","","539","","","75","4","","","1","4","training","adjacent","BA","2","1","Q.jpg","M.jpg","0","0","1","",""
"","feedback","","html-keyboard-response","33","94294","0.0-1.0-42.0-0.0","0","0","45682","","null","","","null","4","","","","","","","","","","","","","","","",""
"","ITI","","html-keyboard-response","34","95297","0.0-1.0-45.0","0","0","45682","","null","","","null","4","","","","","","","","","","","","","","","NaN",""
"","S1","","html-keyboard-response","35","95549","0.0-1.0-47.0","0","0","45682","","null","","","null","5","","","","","","","","","","","","","","","",""
"","ISI","","html-keyboard-response","36","96551","0.0-1.0-48.0","0","0","45682","","null","","","null","5","NaN","","","","","","","","","","","","","","",""
"","S2","","html-keyboard-response","37","96804","0.0-1.0-49.0","0","0","45682","","null","","","null","5","","NaN","","","","","","","","","","","","","",""
"","response","","html-keyboard-response","38","97313","0.0-1.0-50.0-0.0","0","0","45682","","508","","","68","5","","","1","5","training","adjacent","CD","3","4","P.jpg","R.jpg","1","1","1","",""
"","feedback","","html-keyboard-response","39","98316","0.0-1.0-51.0-0.0","0","0","45682","","null","","","null","5","","","","","","","","","","","","","","","",""
"","ITI","","html-keyboard-response","40","99319","0.0-1.0-54.0","0","0","45682","","null","","","null","5","","","","","","","","","","","","","","","NaN",""
"","S1","","html-keyboard-response","41","99571","0.0-1.0-56.0","0","0","45682","","null","","","null","6","","","","","","","","","","","","","","","",""
"","ISI","","html-keyboard-response","42","100573","0.0-1.0-57.0","0","0","45682","","null","","","null","6","NaN","","","","","","","","","","","","","","",""
"","S2","","html-keyboard-response","43","100826","0.0-1.0-58.0","0","0","45682","","null","","","null","6","","NaN","","","","","","","","","","","","","",""
"","response","","html-keyboard-response","44","101425","0.0-1.0-59.0-0.0","0","0","45682","","598","","","68","6","","","1","6","training","adjacent","DE","4","5","R.jpg","N.jpg","1","1","1","",""
"","feedback","","html-keyboard-response","45","102427","0.0-1.0-60.0-0.0","0","0","45682","","null","","","null","6","","","","","","","","","","","","","","","",""
"","ITI","","html-keyboard-response","46","103429","0.0-1.0-63.0","0","0","45682","","null","","","null","6","","","","","","","","","","","","","","","NaN",""
"","S1","","html-keyboard-response","47","103681","0.0-1.0-65.0","0","0","45682","","null","","","null","7","","","","","","","","","","","","","","","",""
"","ISI","","html-keyboard-response","48","104683","0.0-1.0-66.0","0","0","45682","","null","","","null","7","NaN","","","","","","","","","","","","","","",""
"","S2","","html-keyboard-response","49","104935","0.0-1.0-67.0","0","0","45682","","null","","","null","7","","NaN","","","","","","","","","","","","","",""
"","response","","html-keyboard-response","50","105555","0.0-1.0-68.0-0.0","0","0","45682","","619","","","68","7","","","1","7","training","adjacent","EF","5","6","N.jpg","O.jpg","1","1","1","",""
"","feedback","","html-keyboard-response","51","106558","0.0-1.0-69.0-0.0","0","0","45682","","null","","","null","7","","","","","","","","","","","","","","","",""
"","ITI","","html-keyboard-response","52","107560","0.0-1.0-72.0","0","0","45682","","null","","","null","7","","","","","","","","","","","","","","","NaN",""
"","S1","","html-keyboard-response","53","107812","0.0-1.0-74.0","0","0","45682","","null","","","null","8","","","","","","","","","","","","","","","",""
"","ISI","","html-keyboard-response","54","108815","0.0-1.0-75.0","0","0","45682","","null","","","null","8","NaN","","","","","","","","","","","","","","",""
"","S2","","html-keyboard-response","55","109067","0.0-1.0-76.0","0","0","45682","","null","","","null","8","","NaN","","","","","","","","","","","","","",""
"","response","","html-keyboard-response","56","109657","0.0-1.0-77.0-0.0","0","0","45682","","588","","","68","8","","","1","8","training","adjacent","EF","5","6","N.jpg","O.jpg","1","1","1","",""
"","feedback","","html-keyboard-response","57","110659","0.0-1.0-78.0-0.0","0","0","45682","","null","","","null","8","","","","","","","","","","","","","","","",""
"","ITI","","html-keyboard-response","58","111662","0.0-1.0-81.0","0","0","45682","","null","","","null","8","","","","","","","","","","","","","","","NaN",""
"","S1","","html-keyboard-response","59","111915","0.0-1.0-83.0","0","0","45682","","null","","","null","9","","","","","","","","","","","","","","","",""
"","ISI","","html-keyboard-response","60","112918","0.0-1.0-84.0","0","0","45682","","null","","","null","9","NaN","","","","","","","","","","","","","","",""
"","S2","","html-keyboard-response","61","113170","0.0-1.0-85.0","0","0","45682","","null","","","null","9","","NaN","","","","","","","","","","","","","",""
"","response","","html-keyboard-response","62","113689","0.0-1.0-86.0-0.0","0","0","45682","","518","","","75","9","","","1","9","training","adjacent","ED","5","4","N.jpg","R.jpg","0","0","1","",""
"","feedback","","html-keyboard-response","63","114692","0.0-1.0-87.0-0.0","0","0","45682","","null","","","null","9","","","","","","","","","","","","","","","",""
"","ITI","","html-keyboard-response","64","115695","0.0-1.0-90.0","0","0","45682","","null","","","null","9","","","","","","","","","","","","","","","NaN",""
"","S1","","html-keyboard-response","65","115948","0.0-1.0-92.0","0","0","45682","","null","","","null","10","","","","","","","","","","","","","","","",""
"","ISI","","html-keyboard-response","66","116949","0.0-1.0-93.0","0","0","45682","","null","","","null","10","NaN","","","","","","","","","","","","","","",""
"","S2","","html-keyboard-response","67","117202","0.0-1.0-94.0","0","0","45682","","null","","","null","10","","NaN","","","","","","","","","","","","","",""
"","response","","html-keyboard-response","68","117579","0.0-1.0-95.0-0.0","0","0","45682","","376","","","68","10","","","1","10","training","adjacent","FG","6","7","O.jpg","L.jpg","1","1","1","",""
"","feedback","","html-keyboard-response","69","118581","0.0-1.0-96.0-0.0","0","0","45682","","null","","","null","10","","","","","","","","","","","","","","","",""
"","ITI","","html-keyboard-response","70","119585","0.0-1.0-99.0","0","0","45682","","null","","","null","10","","","","","","","","","","","","","","","NaN",""
"","S1","","html-keyboard-response","71","119838","0.0-1.0-101.0","0","0","45682","","null","","","null","11","","","","","","","","","","","","","","","",""
"","ISI","","html-keyboard-response","72","120840","0.0-1.0-102.0","0","0","45682","","null","","","null","11","NaN","","","","","","","","","","","","","","",""
"","S2","","html-keyboard-response","73","121093","0.0-1.0-103.0","0","0","45682","","null","","","null","11","","NaN","","","","","","","","","","","","","",""
"","response","","html-keyboard-response","74","121233","0.0-1.0-104.0-0.0","0","0","45682","","139","","","75","11","","","1","11","training","adjacent","GF","7","6","L.jpg","O.jpg","0","0","1","",""
"","feedback","","html-keyboard-response","75","122236","0.0-1.0-105.0-0.0","0","0","45682","","null","","","null","11","","","","","","","","","","","","","","","",""
"","ITI","","html-keyboard-response","76","123238","0.0-1.0-108.0","0","0","45682","","null","","","null","11","","","","","","","","","","","","","","","NaN",""
"","S1","","html-keyboard-response","77","123491","0.0-1.0-110.0","0","0","45682","","null","","","null","12","","","","","","","","","","","","","","","",""
"","ISI","","html-keyboard-response","78","124493","0.0-1.0-111.0","0","0","45682","","null","","","null","12","NaN","","","","","","","","","","","","","","",""
"","S2","","html-keyboard-response","79","124745","0.0-1.0-112.0","0","0","45682","","null","","","null","12","","NaN","","","","","","","","","","","","","",""
"","response","","html-keyboard-response","80","125296","0.0-1.0-113.0-0.0","0","0","45682","","549","","","75","12","","","1","12","training","adjacent","FE","6","5","O.jpg","N.jpg","0","0","1","",""
"","feedback","","html-keyboard-response","81","126299","0.0-1.0-114.0-0.0","0","0","45682","","null","","","null","12","","","","","","","","","","","","","","","",""
"","ITI","","html-keyboard-response","82","127301","0.0-1.0-117.0","0","0","45682","","null","","","null","12","","","","","","","","","","","","","","","NaN",""
"","S1","","html-keyboard-response","83","127553","0.0-1.0-119.0","0","0","45682","","null","","","null","13","","","","","","","","","","","","","","","",""
"","ISI","","html-keyboard-response","84","128556","0.0-1.0-120.0","0","0","45682","","null","","","null","13","NaN","","","","","","","","","","","","","","",""
"","S2","","html-keyboard-response","85","128808","0.0-1.0-121.0","0","0","45682","","null","","","null","13","","NaN","","","","","","","","","","","","","",""
"","response","","html-keyboard-response","86","129266","0.0-1.0-122.0-0.0","0","0","45682","","456","","","68","13","","","1","13","training","adjacent","CB","3","2","P.jpg","Q.jpg","1","0","0","",""
"","feedback","","html-keyboard-response","87","130269","0.0-1.0-123.0-0.0","0","0","45682","","null","","","null","13","","","","","","","","","","","","","","","",""
"","time_out","","html-keyboard-response","88","132271","0.0-1.0-125.0-0.0","0","0","45682","","null","","","null","13","","","","","","","","","","","","","","","",""
"","ITI","","html-keyboard-response","89","133273","0.0-1.0-126.0","0","0","45682","","null","","","null","13","","","","","","","","","","","","","","","NaN",""
"","S1","","html-keyboard-response","90","133526","0.0-1.0-128.0","0","0","45682","","null","","","null","14","","","","","","","","","","","","","","","",""
"","ISI","","html-keyboard-response","91","134528","0.0-1.0-129.0","0","0","45682","","null","","","null","14","NaN","","","","","","","","","","","","","","",""
"","S2","","html-keyboard-response","92","134780","0.0-1.0-130.0","0","0","45682","","null","","","null","14","","NaN","","","","","","","","","","","","","",""
"","response","","html-keyboard-response","93","135377","0.0-1.0-131.0-0.0","0","0","45682","","595","","","68","14","","","1","14","training","adjacent","FG","6","7","O.jpg","L.jpg","1","1","1","",""
"","feedback","","html-keyboard-response","94","136380","0.0-1.0-132.0-0.0","0","0","45682","","null","","","null","14","","","","","","","","","","","","","","","",""
"","ITI","","html-keyboard-response","95","137382","0.0-1.0-135.0","0","0","45682","","null","","","null","14","","","","","","","","","","","","","","","NaN",""
"","S1","","html-keyboard-response","96","137634","0.0-1.0-137.0","0","0","45682","","null","","","null","15","","","","","","","","","","","","","","","",""
"","ISI","","html-keyboard-response","97","138636","0.0-1.0-138.0","0","0","45682","","null","","","null","15","NaN","","","","","","","","","","","","","","",""
"","S2","","html-keyboard-response","98","138889","0.0-1.0-139.0","0","0","45682","","null","","","null","15","","NaN","","","","","","","","","","","","","",""
"","response","","html-keyboard-response","99","139283","0.0-1.0-140.0-0.0","0","0","45682","","393","","","68","15","","","1","15","training","adjacent","AB","1","2","M.jpg","Q.jpg","1","1","1","",""
"","feedback","","html-keyboard-response","100","140286","0.0-1.0-141.0-0.0","0","0","45682","","null","","","null","15","","","","","","","","","","","","","","","",""
"","ITI","","html-keyboard-response","101","141289","0.0-1.0-144.0","0","0","45682","","null","","","null","15","","","","","","","","","","","","","","","NaN",""
"","S1","","html-keyboard-response","102","141541","0.0-1.0-146.0","0","0","45682","","null","","","null","16","","","","","","","","","","","","","","","",""
"","ISI","","html-keyboard-response","103","142543","0.0-1.0-147.0","0","0","45682","","null","","","null","16","NaN","","","","","","","","","","","","","","",""
"","S2","","html-keyboard-response","104","142796","0.0-1.0-148.0","0","0","45682","","null","","","null","16","","NaN","","","","","","","","","","","","","",""
"","response","","html-keyboard-response","105","143249","0.0-1.0-149.0-0.0","0","0","45682","","451","","","75","16","","","1","16","training","adjacent","BC","2","3","Q.jpg","P.jpg","0","1","0","",""
"","feedback","","html-keyboard-response","106","144251","0.0-1.0-150.0-0.0","0","0","45682","","null","","","null","16","","","","","","","","","","","","","","","",""
"","time_out","","html-keyboard-response","107","146255","0.0-1.0-152.0-0.0","0","0","45682","","null","","","null","16","","","","","","","","","","","","","","","",""
"","ITI","","html-keyboard-response","108","147257","0.0-1.0-153.0","0","0","45682","","null","","","null","16","","","","","","","","","","","","","","","NaN",""
"","S1","","html-keyboard-response","109","147509","0.0-1.0-155.0","0","0","45682","","null","","","null","17","","","","","","","","","","","","","","","",""
"","ISI","","html-keyboard-response","110","148512","0.0-1.0-156.0","0","0","45682","","null","","","null","17","NaN","","","","","","","","","","","","","","",""
"","S2","","html-keyboard-response","111","148765","0.0-1.0-157.0","0","0","45682","","null","","","null","17","","NaN","","","","","","","","","","","","","",""
"","response","","html-keyboard-response","112","148785","0.0-1.0-158.0-0.0","0","0","45682","","19","","","68","17","","","1","17","training","adjacent","AB","1","2","M.jpg","Q.jpg","1","1","1","",""
"","feedback","","html-keyboard-response","113","149787","0.0-1.0-159.0-0.0","0","0","45682","","null","","","null","17","","","","","","","","","","","","","","","",""
"","ITI","","html-keyboard-response","114","150789","0.0-1.0-162.0","0","0","45682","","null","","","null","17","","","","","","","","","","","","","","","NaN",""
"","S1","","html-keyboard-response","115","151041","0.0-1.0-164.0","0","0","45682","","null","","","null","18","","","","","","","","","","","","","","","",""
"","ISI","","html-keyboard-response","116","152044","0.0-1.0-165.0","0","0","45682","","null","","","null","18","NaN","","","","","","","","","","","","","","",""
"","S2","","html-keyboard-response","117","152296","0.0-1.0-166.0","0","0","45682","","null","","","null","18","","NaN","","","","","","","","","","","","","",""
"","response","","html-keyboard-response","118","152763","0.0-1.0-167.0-0.0","0","0","45682","","465","","","68","18","","","1","18","training","adjacent","EF","5","6","N.jpg","O.jpg","1","1","1","",""
"","feedback","","html-keyboard-response","119","153770","0.0-1.0-168.0-0.0","0","0","45682","","null","","","null","18","","","","","","","","","","","","","","","",""
"","ITI","","html-keyboard-response","120","154772","0.0-1.0-171.0","0","0","45682","","null","","","null","18","","","","","","","","","","","","","","","NaN",""
"","S1","","html-keyboard-response","121","155025","0.0-1.0-173.0","0","0","45682","","null","","","null","19","","","","","","","","","","","","","","","",""
"","ISI","","html-keyboard-response","122","156027","0.0-1.0-174.0","0","0","45682","","null","","","null","19","NaN","","","","","","","","","","","","","","",""
"","S2","","html-keyboard-response","123","156280","0.0-1.0-175.0","0","0","45682","","null","","","null","19","","NaN","","","","","","","","","","","","","",""
"","response","","html-keyboard-response","124","156625","0.0-1.0-176.0-0.0","0","0","45682","","343","","","75","19","","","1","19","training","adjacent","BA","2","1","Q.jpg","M.jpg","0","0","1","",""
"","feedback","","html-keyboard-response","125","157627","0.0-1.0-177.0-0.0","0","0","45682","","null","","","null","19","","","","","","","","","","","","","","","",""
"","ITI","","html-keyboard-response","126","158630","0.0-1.0-180.0","0","0","45682","","null","","","null","19","","","","","","","","","","","","","","","NaN",""
"","S1","","html-keyboard-response","127","158882","0.0-1.0-182.0","0","0","45682","","null","","","null","20","","","","","","","","","","","","","","","",""
"","ISI","","html-keyboard-response","128","159885","0.0-1.0-183.0","0","0","45682","","null","","","null","20","NaN","","","","","","","","","","","","","","",""
"","S2","","html-keyboard-response","129","160137","0.0-1.0-184.0","0","0","45682","","null","","","null","20","","NaN","","","","","","","","","","","","","",""
"","response","","html-keyboard-response","130","160737","0.0-1.0-185.0-0.0","0","0","45682","","599","","","75","20","","","1","20","training","adjacent","ED","5","4","N.jpg","R.jpg","0","0","1","",""
"","feedback","","html-keyboard-response","131","161739","0.0-1.0-186.0-0.0","0","0","45682","","null","","","null","20","","","","","","","","","","","","","","","",""
"","ITI","","html-keyboard-response","132","162741","0.0-1.0-189.0","0","0","45682","","null","","","null","20","","","","","","","","","","","","","","","NaN",""
"","S1","","html-keyboard-response","133","163010","0.0-1.0-191.0","0","0","45682","","null","","","null","21","","","","","","","","","","","","","","","",""
"","ISI","","html-keyboard-response","134","164011","0.0-1.0-192.0","0","0","45682","","null","","","null","21","NaN","","","","","","","","","","","","","","",""
"","S2","","html-keyboard-response","135","164265","0.0-1.0-193.0","0","0","45682","","null","","","null","21","","NaN","","","","","","","","","","","","","",""
"","response","","html-keyboard-response","136","164643","0.0-1.0-194.0-0.0","0","0","45682","","377","","","75","21","","","1","21","training","adjacent","BA","2","1","Q.jpg","M.jpg","0","0","1","",""
"","feedback","","html-keyboard-response","137","165646","0.0-1.0-195.0-0.0","0","0","45682","","null","","","null","21","","","","","","","","","","","","","","","",""
"","ITI","","html-keyboard-response","138","166649","0.0-1.0-198.0","0","0","45682","","null","","","null","21","","","","","","","","","","","","","","","NaN",""
"","S1","","html-keyboard-response","139","166901","0.0-1.0-200.0","0","0","45682","","null","","","null","22","","","","","","","","","","","","","","","",""
"","ISI","","html-keyboard-response","140","167903","0.0-1.0-201.0","0","0","45682","","null","","","null","22","NaN","","","","","","","","","","","","","","",""
"","S2","","html-keyboard-response","141","168156","0.0-1.0-202.0","0","0","45682","","null","","","null","22","","NaN","","","","","","","","","","","","","",""
"","response","","html-keyboard-response","142","168713","0.0-1.0-203.0-0.0","0","0","45682","","556","","","75","22","","","1","22","training","adjacent","CB","3","2","P.jpg","Q.jpg","0","0","1","",""
"","feedback","","html-keyboard-response","143","169715","0.0-1.0-204.0-0.0","0","0","45682","","null","","","null","22","","","","","","","","","","","","","","","",""
"","ITI","","html-keyboard-response","144","170717","0.0-1.0-207.0","0","0","45682","","null","","","null","22","","","","","","","","","","","","","","","NaN",""
"","S1","","html-keyboard-response","145","170969","0.0-1.0-209.0","0","0","45682","","null","","","null","23","","","","","","","","","","","","","","","",""
"","ISI","","html-keyboard-response","146","171972","0.0-1.0-210.0","0","0","45682","","null","","","null","23","NaN","","","","","","","","","","","","","","",""
"","S2","","html-keyboard-response","147","172225","0.0-1.0-211.0","0","0","45682","","null","","","null","23","","NaN","","","","","","","","","","","","","",""
"","response","","html-keyboard-response","148","172681","0.0-1.0-212.0-0.0","0","0","45682","","454","","","75","23","","","1","23","training","adjacent","FE","6","5","O.jpg","N.jpg","0","0","1","",""
"","feedback","","html-keyboard-response","149","173683","0.0-1.0-213.0-0.0","0","0","45682","","null","","","null","23","","","","","","","","","","","","","","","",""
"","ITI","","html-keyboard-response","150","174685","0.0-1.0-216.0","0","0","45682","","null","","","null","23","","","","","","","","","","","","","","","NaN",""
"","S1","","html-keyboard-response","151","174938","0.0-1.0-218.0","0","0","45682","","null","","","null","24","","","","","","","","","","","","","","","",""
"","ISI","","html-keyboard-response","152","175940","0.0-1.0-219.0","0","0","45682","","null","","","null","24","NaN","","","","","","","","","","","","","","",""
"","S2","","html-keyboard-response","153","176193","0.0-1.0-220.0","0","0","45682","","null","","","null","24","","NaN","","","","","","","","","","","","","",""
"","response","","html-keyboard-response","154","176651","0.0-1.0-221.0-0.0","0","0","45682","","456","","","68","24","","","1","24","training","adjacent","CD","3","4","P.jpg","R.jpg","1","1","1","",""
"","feedback","","html-keyboard-response","155","177653","0.0-1.0-222.0-0.0","0","0","45682","","null","","","null","24","","","","","","","","","","","","","","","",""
"","ITI","","html-keyboard-response","156","178656","0.0-1.0-225.0","0","0","45682","","null","","","null","24","","","","","","","","","","","","","","","NaN",""
"","S1","","html-keyboard-response","157","178909","0.0-1.0-227.0","0","0","45682","","null","","","null","25","","","","","","","","","","","","","","","",""
"","ISI","","html-keyboard-response","158","179911","0.0-1.0-228.0","0","0","45682","","null","","","null","25","NaN","","","","","","","","","","","","","","",""
"","S2","","html-keyboard-response","159","180163","0.0-1.0-229.0","0","0","45682","","null","","","null","25","","NaN","","","","","","","","","","","","","",""
"","response","","html-keyboard-response","160","180617","0.0-1.0-230.0-0.0","0","0","45682","","452","","","75","25","","","1","25","training","adjacent","DE","4","5","R.jpg","N.jpg","0","1","0","",""
"","feedback","","html-keyboard-response","161","181619","0.0-1.0-231.0-0.0","0","0","45682","","null","","","null","25","","","","","","","","","","","","","","","",""
"","time_out","","html-keyboard-response","162","183622","0.0-1.0-233.0-0.0","0","0","45682","","null","","","null","25","","","","","","","","","","","","","","","",""
"","ITI","","html-keyboard-response","163","184624","0.0-1.0-234.0","0","0","45682","","null","","","null","25","","","","","","","","","","","","","","","NaN",""
"","S1","","html-keyboard-response","164","184877","0.0-1.0-236.0","0","0","45682","","null","","","null","26","","","","","","","","","","","","","","","",""
"","ISI","","html-keyboard-response","165","185879","0.0-1.0-237.0","0","0","45682","","null","","","null","26","NaN","","","","","","","","","","","","","","",""
"","S2","","html-keyboard-response","166","186132","0.0-1.0-238.0","0","0","45682","","null","","","null","26","","NaN","","","","","","","","","","","","","",""
"","response","","html-keyboard-response","167","186561","0.0-1.0-239.0-0.0","0","0","45682","","427","","","68","26","","","1","26","training","adjacent","DC","4","3","R.jpg","P.jpg","1","0","0","",""
"","feedback","","html-keyboard-response","168","187563","0.0-1.0-240.0-0.0","0","0","45682","","null","","","null","26","","","","","","","","","","","","","","","",""
"","time_out","","html-keyboard-response","169","189566","0.0-1.0-242.0-0.0","0","0","45682","","null","","","null","26","","","","","","","","","","","","","","","",""
"","ITI","","html-keyboard-response","170","190568","0.0-1.0-243.0","0","0","45682","","null","","","null","26","","","","","","","","","","","","","","","NaN",""
"","S1","","html-keyboard-response","171","190820","0.0-1.0-245.0","0","0","45682","","null","","","null","27","","","","","","","","","","","","","","","",""
"","ISI","","html-keyboard-response","172","191823","0.0-1.0-246.0","0","0","45682","","null","","","null","27","NaN","","","","","","","","","","","","","","",""
"","S2","","html-keyboard-response","173","192075","0.0-1.0-247.0","0","0","45682","","null","","","null","27","","NaN","","","","","","","","","","","","","",""
"","response","","html-keyboard-response","174","192483","0.0-1.0-248.0-0.0","0","0","45682","","406","","","75","27","","","1","27","training","adjacent","CD","3","4","P.jpg","R.jpg","0","1","0","",""
"","feedback","","html-keyboard-response","175","193485","0.0-1.0-249.0-0.0","0","0","45682","","null","","","null","27","","","","","","","","","","","","","","","",""
"","time_out","","html-keyboard-response","176","195487","0.0-1.0-251.0-0.0","0","0","45682","","null","","","null","27","","","","","","","","","","","","","","","",""
"","ITI","","html-keyboard-response","177","196490","0.0-1.0-252.0","0","0","45682","","null","","","null","27","","","","","","","","","","","","","","","NaN",""
"","S1","","html-keyboard-response","178","196742","0.0-1.0-254.0","0","0","45682","","null","","","null","28","","","","","","","","","","","","","","","",""
"","ISI","","html-keyboard-response","179","197745","0.0-1.0-255.0","0","0","45682","","null","","","null","28","NaN","","","","","","","","","","","","","","",""
"","S2","","html-keyboard-response","180","197997","0.0-1.0-256.0","0","0","45682","","null","","","null","28","","NaN","","","","","","","","","","","","","",""
"","response","","html-keyboard-response","181","198424","0.0-1.0-257.0-0.0","0","0","45682","","425","","","68","28","","","1","28","training","adjacent","EF","5","6","N.jpg","O.jpg","1","1","1","",""
"","feedback","","html-keyboard-response","182","199427","0.0-1.0-258.0-0.0","0","0","45682","","null","","","null","28","","","","","","","","","","","","","","","",""
"","ITI","","html-keyboard-response","183","200429","0.0-1.0-261.0","0","0","45682","","null","","","null","28","","","","","","","","","","","","","","","NaN",""
"","S1","","html-keyboard-response","184","200681","0.0-1.0-263.0","0","0","45682","","null","","","null","29","","","","","","","","","","","","","","","",""
"","ISI","","html-keyboard-response","185","201685","0.0-1.0-264.0","0","0","45682","","null","","","null","29","NaN","","","","","","","","","","","","","","",""
"","S2","","html-keyboard-response","186","201937","0.0-1.0-265.0","0","0","45682","","null","","","null","29","","NaN","","","","","","","","","","","","","",""
"","response","","html-keyboard-response","187","202313","0.0-1.0-266.0-0.0","0","0","45682","","375","","","75","29","","","1","29","training","adjacent","FE","6","5","O.jpg","N.jpg","0","0","1","",""
"","feedback","","html-keyboard-response","188","203316","0.0-1.0-267.0-0.0","0","0","45682","","null","","","null","29","","","","","","","","","","","","","","","",""
"","ITI","","html-keyboard-response","189","204318","0.0-1.0-270.0","0","0","45682","","null","","","null","29","","","","","","","","","","","","","","","NaN",""
"","S1","","html-keyboard-response","190","204570","0.0-1.0-272.0","0","0","45682","","null","","","null","30","","","","","","","","","","","","","","","",""
"","ISI","","html-keyboard-response","191","205573","0.0-1.0-273.0","0","0","45682","","null","","","null","30","NaN","","","","","","","","","","","","","","",""
"","S2","","html-keyboard-response","192","205825","0.0-1.0-274.0","0","0","45682","","null","","","null","30","","NaN","","","","","","","","","","","","","",""
"","response","","html-keyboard-response","193","206227","0.0-1.0-275.0-0.0","0","0","45682","","400","","","68","30","","","1","30","training","adjacent","CD","3","4","P.jpg","R.jpg","1","1","1","",""
"","feedback","","html-keyboard-response","194","207229","0.0-1.0-276.0-0.0","0","0","45682","","null","","","null","30","","","","","","","","","","","","","","","",""
"","ITI","","html-keyboard-response","195","208232","0.0-1.0-279.0","0","0","45682","","null","","","null","30","","","","","","","","","","","","","","","NaN",""
"","S1","","html-keyboard-response","196","208487","0.0-1.0-281.0","0","0","45682","","null","","","null","31","","","","","","","","","","","","","","","",""
"","ISI","","html-keyboard-response","197","209489","0.0-1.0-282.0","0","0","45682","","null","","","null","31","NaN","","","","","","","","","","","","","","",""
"","S2","","html-keyboard-response","198","209742","0.0-1.0-283.0","0","0","45682","","null","","","null","31","","NaN","","","","","","","","","","","","","",""
"","response","","html-keyboard-response","199","210128","0.0-1.0-284.0-0.0","0","0","45682","","385","","","75","31","","","1","31","training","adjacent","ED","5","4","N.jpg","R.jpg","0","0","1","",""
"","feedback","","html-keyboard-response","200","211131","0.0-1.0-285.0-0.0","0","0","45682","","null","","","null","31","","","","","","","","","","","","","","","",""
"","ITI","","html-keyboard-response","201","212133","0.0-1.0-288.0","0","0","45682","","null","","","null","31","","","","","","","","","","","","","","","NaN",""
"","S1","","html-keyboard-response","202","212387","0.0-1.0-290.0","0","0","45682","","null","","","null","32","","","","","","","","","","","","","","","",""
"","ISI","","html-keyboard-response","203","213389","0.0-1.0-291.0","0","0","45682","","null","","","null","32","NaN","","","","","","","","","","","","","","",""
"","S2","","html-keyboard-response","204","213642","0.0-1.0-292.0","0","0","45682","","null","","","null","32","","NaN","","","","","","","","","","","","","",""
"","response","","html-keyboard-response","205","214016","0.0-1.0-293.0-0.0","0","0","45682","","374","","","75","32","","","1","32","training","adjacent","DC","4","3","R.jpg","P.jpg","0","0","1","",""
"","feedback","","html-keyboard-response","206","215019","0.0-1.0-294.0-0.0","0","0","45682","","null","","","null","32","","","","","","","","","","","","","","","",""
"","ITI","","html-keyboard-response","207","216022","0.0-1.0-297.0","0","0","45682","","null","","","null","32","","","","","","","","","","","","","","","NaN",""
"","S1","","html-keyboard-response","208","216275","0.0-1.0-299.0","0","0","45682","","null","","","null","33","","","","","","","","","","","","","","","",""
"","ISI","","html-keyboard-response","209","217277","0.0-1.0-300.0","0","0","45682","","null","","","null","33","NaN","","","","","","","","","","","","","","",""
"","S2","","html-keyboard-response","210","217530","0.0-1.0-301.0","0","0","45682","","null","","","null","33","","NaN","","","","","","","","","","","","","",""
"","response","","html-keyboard-response","211","217859","0.0-1.0-302.0-0.0","0","0","45682","","328","","","75","33","","","1","33","training","adjacent","DE","4","5","R.jpg","N.jpg","0","1","0","",""
"","feedback","","html-keyboard-response","212","218862","0.0-1.0-303.0-0.0","0","0","45682","","null","","","null","33","","","","","","","","","","","","","","","",""
"","time_out","","html-keyboard-response","213","220864","0.0-1.0-305.0-0.0","0","0","45682","","null","","","null","33","","","","","","","","","","","","","","","",""
"","ITI","","html-keyboard-response","214","221866","0.0-1.0-306.0","0","0","45682","","null","","","null","33","","","","","","","","","","","","","","","NaN",""
"","S1","","html-keyboard-response","215","222118","0.0-1.0-308.0","0","0","45682","","null","","","null","34","","","","","","","","","","","","","","","",""
"","ISI","","html-keyboard-response","216","223120","0.0-1.0-309.0","0","0","45682","","null","","","null","34","NaN","","","","","","","","","","","","","","",""
"","S2","","html-keyboard-response","217","223372","0.0-1.0-310.0","0","0","45682","","null","","","null","34","","NaN","","","","","","","","","","","","","",""
"","response","","html-keyboard-response","218","223400","0.0-1.0-311.0-0.0","0","0","45682","","28","","","68","34","","","1","34","training","adjacent","AB","1","2","M.jpg","Q.jpg","1","1","1","",""
"","feedback","","html-keyboard-response","219","224418","0.0-1.0-312.0-0.0","0","0","45682","","null","","","null","34","","","","","","","","","","","","","","","",""
"","ITI","","html-keyboard-response","220","225420","0.0-1.0-315.0","0","0","45682","","null","","","null","34","","","","","","","","","","","","","","","NaN",""
"","S1","","html-keyboard-response","221","225676","0.0-1.0-317.0","0","0","45682","","null","","","null","35","","","","","","","","","","","","","","","",""
"","ISI","","html-keyboard-response","222","226678","0.0-1.0-318.0","0","0","45682","","null","","","null","35","NaN","","","","","","","","","","","","","","",""
"","S2","","html-keyboard-response","223","226930","0.0-1.0-319.0","0","0","45682","","null","","","null","35","","NaN","","","","","","","","","","","","","",""
"","response","","html-keyboard-response","224","227417","0.0-1.0-320.0-0.0","0","0","45682","","486","","","75","35","","","1","35","training","adjacent","CB","3","2","P.jpg","Q.jpg","0","0","1","",""
"","feedback","","html-keyboard-response","225","228419","0.0-1.0-321.0-0.0","0","0","45682","","null","","","null","35","","","","","","","","","","","","","","","",""
"","ITI","","html-keyboard-response","226","229435","0.0-1.0-324.0","0","0","45682","","null","","","null","35","","","","","","","","","","","","","","","NaN",""
"","S1","","html-keyboard-response","227","229688","0.0-1.0-326.0","0","0","45682","","null","","","null","36","","","","","","","","","","","","","","","",""
"","ISI","","html-keyboard-response","228","230690","0.0-1.0-327.0","0","0","45682","","null","","","null","36","NaN","","","","","","","","","","","","","","",""
"","S2","","html-keyboard-response","229","230943","0.0-1.0-328.0","0","0","45682","","null","","","null","36","","NaN","","","","","","","","","","","","","",""
"","response","","html-keyboard-response","230","231227","0.0-1.0-329.0-0.0","0","0","45682","","282","","","75","36","","","1","36","training","adjacent","FE","6","5","O.jpg","N.jpg","0","0","1","",""
"","feedback","","html-keyboard-response","231","232229","0.0-1.0-330.0-0.0","0","0","45682","","null","","","null","36","","","","","","","","","","","","","","","",""
"","ITI","","html-keyboard-response","232","233231","0.0-1.0-333.0","0","0","45682","","null","","","null","36","","","","","","","","","","","","","","","NaN",""
"","S1","","html-keyboard-response","233","233484","0.0-1.0-335.0","0","0","45682","","null","","","null","37","","","","","","","","","","","","","","","",""
"","ISI","","html-keyboard-response","234","234486","0.0-1.0-336.0","0","0","45682","","null","","","null","37","NaN","","","","","","","","","","","","","","",""
"","S2","","html-keyboard-response","235","234738","0.0-1.0-337.0","0","0","45682","","null","","","null","37","","NaN","","","","","","","","","","","","","",""
"","response","","html-keyboard-response","236","235169","0.0-1.0-338.0-0.0","0","0","45682","","429","","","68","37","","","1","37","training","adjacent","BC","2","3","Q.jpg","P.jpg","1","1","1","",""
"","feedback","","html-keyboard-response","237","236171","0.0-1.0-339.0-0.0","0","0","45682","","null","","","null","37","","","","","","","","","","","","","","","",""
"","ITI","","html-keyboard-response","238","237173","0.0-1.0-342.0","0","0","45682","","null","","","null","37","","","","","","","","","","","","","","","NaN",""
"","S1","","html-keyboard-response","239","237426","0.0-1.0-344.0","0","0","45682","","null","","","null","38","","","","","","","","","","","","","","","",""
"","ISI","","html-keyboard-response","240","238428","0.0-1.0-345.0","0","0","45682","","null","","","null","38","NaN","","","","","","","","","","","","","","",""
"","S2","","html-keyboard-response","241","238680","0.0-1.0-346.0","0","0","45682","","null","","","null","38","","NaN","","","","","","","","","","","","","",""
"","response","","html-keyboard-response","242","239113","0.0-1.0-347.0-0.0","0","0","45682","","432","","","68","38","","","1","38","training","adjacent","FG","6","7","O.jpg","L.jpg","1","1","1","",""
"","feedback","","html-keyboard-response","243","240115","0.0-1.0-348.0-0.0","0","0","45682","","null","","","null","38","","","","","","","","","","","","","","","",""
"","ITI","","html-keyboard-response","244","241118","0.0-1.0-351.0","0","0","45682","","null","","","null","38","","","","","","","","","","","","","","","NaN",""
"","S1","","html-keyboard-response","245","241370","0.0-1.0-353.0","0","0","45682","","null","","","null","39","","","","","","","","","","","","","","","",""
"","ISI","","html-keyboard-response","246","242373","0.0-1.0-354.0","0","0","45682","","null","","","null","39","NaN","","","","","","","","","","","","","","",""
"","S2","","html-keyboard-response","247","242625","0.0-1.0-355.0","0","0","45682","","null","","","null","39","","NaN","","","","","","","","","","","","","",""
"","response","","html-keyboard-response","248","242987","0.0-1.0-356.0-0.0","0","0","45682","","360","","","75","39","","","1","39","training","adjacent","ED","5","4","N.jpg","R.jpg","0","0","1","",""
"","feedback","","html-keyboard-response","249","243990","0.0-1.0-357.0-0.0","0","0","45682","","null","","","null","39","","","","","","","","","","","","","","","",""
"","ITI","","html-keyboard-response","250","244993","0.0-1.0-360.0","0","0","45682","","null","","","null","39","","","","","","","","","","","","","","","NaN",""
"","S1","","html-keyboard-response","251","245245","0.0-1.0-362.0","0","0","45682","","null","","","null","40","","","","","","","","","","","","","","","",""
"","ISI","","html-keyboard-response","252","246248","0.0-1.0-363.0","0","0","45682","","null","","","null","40","NaN","","","","","","","","","","","","","","",""
"","S2","","html-keyboard-response","253","246501","0.0-1.0-364.0","0","0","45682","","null","","","null","40","","NaN","","","","","","","","","","","","","",""
"","response","","html-keyboard-response","254","246864","0.0-1.0-365.0-0.0","0","0","45682","","363","","","68","40","","","1","40","training","adjacent","DC","4","3","R.jpg","P.jpg","1","0","0","",""
"","feedback","","html-keyboard-response","255","247867","0.0-1.0-366.0-0.0","0","0","45682","","null","","","null","40","","","","","","","","","","","","","","","",""
"","time_out","","html-keyboard-response","256","249869","0.0-1.0-368.0-0.0","0","0","45682","","null","","","null","40","","","","","","","","","","","","","","","",""
"","ITI","","html-keyboard-response","257","250871","0.0-1.0-369.0","0","0","45682","","null","","","null","40","","","","","","","","","","","","","","","NaN",""
"","S1","","html-keyboard-response","258","251123","0.0-1.0-371.0","0","0","45682","","null","","","null","41","","","","","","","","","","","","","","","",""
"","ISI","","html-keyboard-response","259","252125","0.0-1.0-372.0","0","0","45682","","null","","","null","41","NaN","","","","","","","","","","","","","","",""
"","S2","","html-keyboard-response","260","252378","0.0-1.0-373.0","0","0","45682","","null","","","null","41","","NaN","","","","","","","","","","","","","",""
"","response","","html-keyboard-response","261","252409","0.0-1.0-374.0-0.0","0","0","45682","","30","","","75","41","","","1","41","training","adjacent","GF","7","6","L.jpg","O.jpg","0","0","1","",""
"","feedback","","html-keyboard-response","262","253411","0.0-1.0-375.0-0.0","0","0","45682","","null","","","null","41","","","","","","","","","","","","","","","",""
"","ITI","","html-keyboard-response","263","254413","0.0-1.0-378.0","0","0","45682","","null","","","null","41","","","","","","","","","","","","","","","NaN",""
"","S1","","html-keyboard-response","264","254666","0.0-1.0-380.0","0","0","45682","","null","","","null","42","","","","","","","","","","","","","","","",""
"","ISI","","html-keyboard-response","265","255668","0.0-1.0-381.0","0","0","45682","","null","","","null","42","NaN","","","","","","","","","","","","","","",""
"","S2","","html-keyboard-response","266","255921","0.0-1.0-382.0","0","0","45682","","null","","","null","42","","NaN","","","","","","","","","","","","","",""
"","response","","html-keyboard-response","267","256235","0.0-1.0-383.0-0.0","0","0","45682","","312","","","75","42","","","1","42","training","adjacent","BA","2","1","Q.jpg","M.jpg","0","0","1","",""
"","feedback","","html-keyboard-response","268","257238","0.0-1.0-384.0-0.0","0","0","45682","","null","","","null","42","","","","","","","","","","","","","","","",""
"","ITI","","html-keyboard-response","269","258240","0.0-1.0-387.0","0","0","45682","","null","","","null","42","","","","","","","","","","","","","","","NaN",""
"","S1","","html-keyboard-response","270","258492","0.0-1.0-389.0","0","0","45682","","null","","","null","43","","","","","","","","","","","","","","","",""
"","ISI","","html-keyboard-response","271","259495","0.0-1.0-390.0","0","0","45682","","null","","","null","43","NaN","","","","","","","","","","","","","","",""
"","S2","","html-keyboard-response","272","259748","0.0-1.0-391.0","0","0","45682","","null","","","null","43","","NaN","","","","","","","","","","","","","",""
"","response","","html-keyboard-response","273","260121","0.0-1.0-392.0-0.0","0","0","45682","","372","","","68","43","","","1","43","training","adjacent","BC","2","3","Q.jpg","P.jpg","1","1","1","",""
"","feedback","","html-keyboard-response","274","261123","0.0-1.0-393.0-0.0","0","0","45682","","null","","","null","43","","","","","","","","","","","","","","","",""
"","ITI","","html-keyboard-response","275","262125","0.0-1.0-396.0","0","0","45682","","null","","","null","43","","","","","","","","","","","","","","","NaN",""
"","S1","","html-keyboard-response","276","262377","0.0-1.0-398.0","0","0","45682","","null","","","null","44","","","","","","","","","","","","","","","",""
"","ISI","","html-keyboard-response","277","263379","0.0-1.0-399.0","0","0","45682","","null","","","null","44","NaN","","","","","","","","","","","","","","",""
"","S2","","html-keyboard-response","278","263631","0.0-1.0-400.0","0","0","45682","","null","","","null","44","","NaN","","","","","","","","","","","","","",""
"","response","","html-keyboard-response","279","263721","0.0-1.0-401.0-0.0","0","0","45682","","89","","","75","44","","","1","44","training","adjacent","GF","7","6","L.jpg","O.jpg","0","0","1","",""
"","feedback","","html-keyboard-response","280","264723","0.0-1.0-402.0-0.0","0","0","45682","","null","","","null","44","","","","","","","","","","","","","","","",""
"","ITI","","html-keyboard-response","281","265726","0.0-1.0-405.0","0","0","45682","","null","","","null","44","","","","","","","","","","","","","","","NaN",""
"","S1","","html-keyboard-response","282","265978","0.0-1.0-407.0","0","0","45682","","null","","","null","45","","","","","","","","","","","","","","","",""
"","ISI","","html-keyboard-response","283","266981","0.0-1.0-408.0","0","0","45682","","null","","","null","45","NaN","","","","","","","","","","","","","","",""
"","S2","","html-keyboard-response","284","267234","0.0-1.0-409.0","0","0","45682","","null","","","null","45","","NaN","","","","","","","","","","","","","",""
"","response","","html-keyboard-response","285","267611","0.0-1.0-410.0-0.0","0","0","45682","","376","","","68","45","","","1","45","training","adjacent","FG","6","7","O.jpg","L.jpg","1","1","1","",""
"","feedback","","html-keyboard-response","286","268613","0.0-1.0-411.0-0.0","0","0","45682","","null","","","null","45","","","","","","","","","","","","","","","",""
"","ITI","","html-keyboard-response","287","269616","0.0-1.0-414.0","0","0","45682","","null","","","null","45","","","","","","","","","","","","","","","NaN",""
"","S1","","html-keyboard-response","288","269868","0.0-1.0-416.0","0","0","45682","","null","","","null","46","","","","","","","","","","","","","","","",""
"","ISI","","html-keyboard-response","289","270870","0.0-1.0-417.0","0","0","45682","","null","","","null","46","NaN","","","","","","","","","","","","","","",""
"","S2","","html-keyboard-response","290","271124","0.0-1.0-418.0","0","0","45682","","null","","","null","46","","NaN","","","","","","","","","","","","","",""
"","response","","html-keyboard-response","291","271601","0.0-1.0-419.0-0.0","0","0","45682","","476","","","68","46","","","1","46","training","adjacent","DC","4","3","R.jpg","P.jpg","1","0","0","",""
"","feedback","","html-keyboard-response","292","272603","0.0-1.0-420.0-0.0","0","0","45682","","null","","","null","46","","","","","","","","","","","","","","","",""
"","time_out","","html-keyboard-response","293","274606","0.0-1.0-422.0-0.0","0","0","45682","","null","","","null","46","","","","","","","","","","","","","","","",""
"","ITI","","html-keyboard-response","294","275608","0.0-1.0-423.0","0","0","45682","","null","","","null","46","","","","","","","","","","","","","","","NaN",""
"","S1","","html-keyboard-response","295","275861","0.0-1.0-425.0","0","0","45682","","null","","","null","47","","","","","","","","","","","","","","","",""
"","ISI","","html-keyboard-response","296","276863","0.0-1.0-426.0","0","0","45682","","null","","","null","47","NaN","","","","","","","","","","","","","","",""
"","S2","","html-keyboard-response","297","277115","0.0-1.0-427.0","0","0","45682","","null","","","null","47","","NaN","","","","","","","","","","","","","",""
"","response","","html-keyboard-response","298","277433","0.0-1.0-428.0-0.0","0","0","45682","","316","","","68","47","","","1","47","training","adjacent","BC","2","3","Q.jpg","P.jpg","1","1","1","",""
"","feedback","","html-keyboard-response","299","278436","0.0-1.0-429.0-0.0","0","0","45682","","null","","","null","47","","","","","","","","","","","","","","","",""
"","ITI","","html-keyboard-response","300","279438","0.0-1.0-432.0","0","0","45682","","null","","","null","47","","","","","","","","","","","","","","","NaN",""
"","block_over","","html-keyboard-response","301","284611","0.0-1.0-433.0-0.0","0","0","45682","","5172","","","32","47","","","","","","","","","","","","","","","",""
"","S1","","html-keyboard-response","302","284864","0.0-1.0-434.0","0","0","45682","","null","","","null","48","","","","","","","","","","","","","","","",""
"","ISI","","html-keyboard-response","303","285866","0.0-1.0-435.0","0","0","45682","","null","","","null","48","NaN","","","","","","","","","","","","","","",""
"","S2","","html-keyboard-response","304","286118","0.0-1.0-436.0","0","0","45682","","null","","","null","48","","NaN","","","","","","","","","","","","","",""
"","response","","html-keyboard-response","305","286441","0.0-1.0-437.0-0.0","0","0","45682","","321","","","68","48","","","2","48","training","adjacent","DC","4","3","R.jpg","P.jpg","1","0","0","",""
"","feedback","","html-keyboard-response","306","287443","0.0-1.0-438.0-0.0","0","0","45682","","null","","","null","48","","","","","","","","","","","","","","","",""
"","time_out","","html-keyboard-response","307","289445","0.0-1.0-440.0-0.0","0","0","45682","","null","","","null","48","","","","","","","","","","","","","","","",""
"","ITI","","html-keyboard-response","308","290455","0.0-1.0-441.0","0","0","45682","","null","","","null","48","","","","","","","","","","","","","","","NaN",""
"","S1","","html-keyboard-response","309","290707","0.0-1.0-443.0","0","0","45682","","null","","","null","49","","","","","","","","","","","","","","","",""
"","ISI","","html-keyboard-response","310","291709","0.0-1.0-444.0","0","0","45682","","null","","","null","49","NaN","","","","","","","","","","","","","","",""
"","S2","","html-keyboard-response","311","291961","0.0-1.0-445.0","0","0","45682","","null","","","null","49","","NaN","","","","","","","","","","","","","",""
"","response","","html-keyboard-response","312","292233","0.0-1.0-446.0-0.0","0","0","45682","","270","","","68","49","","","2","49","training","adjacent","FG","6","7","O.jpg","L.jpg","1","1","1","",""
"","feedback","","html-keyboard-response","313","293236","0.0-1.0-447.0-0.0","0","0","45682","","null","","","null","49","","","","","","","","","","","","","","","",""
"","ITI","","html-keyboard-response","314","294238","0.0-1.0-450.0","0","0","45682","","null","","","null","49","","","","","","","","","","","","","","","NaN",""
"","S1","","html-keyboard-response","315","294490","0.0-1.0-452.0","0","0","45682","","null","","","null","50","","","","","","","","","","","","","","","",""
"","ISI","","html-keyboard-response","316","295493","0.0-1.0-453.0","0","0","45682","","null","","","null","50","NaN","","","","","","","","","","","","","","",""
"","S2","","html-keyboard-response","317","295745","0.0-1.0-454.0","0","0","45682","","null","","","null","50","","NaN","","","","","","","","","","","","","",""
"","response","","html-keyboard-response","318","296155","0.0-1.0-455.0-0.0","0","0","45682","","409","","","68","50","","","2","50","training","adjacent","DC","4","3","R.jpg","P.jpg","1","0","0","",""
"","feedback","","html-keyboard-response","319","297158","0.0-1.0-456.0-0.0","0","0","45682","","null","","","null","50","","","","","","","","","","","","","","","",""
"","time_out","","html-keyboard-response","320","299160","0.0-1.0-458.0-0.0","0","0","45682","","null","","","null","50","","","","","","","","","","","","","","","",""
"","ITI","","html-keyboard-response","321","300163","0.0-1.0-459.0","0","0","45682","","null","","","null","50","","","","","","","","","","","","","","","NaN",""
"","S1","","html-keyboard-response","322","300415","0.0-1.0-461.0","0","0","45682","","null","","","null","51","","","","","","","","","","","","","","","",""
"","ISI","","html-keyboard-response","323","301418","0.0-1.0-462.0","0","0","45682","","null","","","null","51","NaN","","","","","","","","","","","","","","",""
"","S2","","html-keyboard-response","324","301670","0.0-1.0-463.0","0","0","45682","","null","","","null","51","","NaN","","","","","","","","","","","","","",""
"","response","","html-keyboard-response","325","301929","0.0-1.0-464.0-0.0","0","0","45682","","257","","","75","51","","","2","51","training","adjacent","DE","4","5","R.jpg","N.jpg","0","1","0","",""
"","feedback","","html-keyboard-response","326","302932","0.0-1.0-465.0-0.0","0","0","45682","","null","","","null","51","","","","","","","","","","","","","","","",""
"","time_out","","html-keyboard-response","327","304935","0.0-1.0-467.0-0.0","0","0","45682","","null","","","null","51","","","","","","","","","","","","","","","",""
"","ITI","","html-keyboard-response","328","305937","0.0-1.0-468.0","0","0","45682","","null","","","null","51","","","","","","","","","","","","","","","NaN",""
"","S1","","html-keyboard-response","329","306190","0.0-1.0-470.0","0","0","45682","","null","","","null","52","","","","","","","","","","","","","","","",""
"","ISI","","html-keyboard-response","330","307192","0.0-1.0-471.0","0","0","45682","","null","","","null","52","NaN","","","","","","","","","","","","","","",""
"","S2","","html-keyboard-response","331","307445","0.0-1.0-472.0","0","0","45682","","null","","","null","52","","NaN","","","","","","","","","","","","","",""
"","response","","html-keyboard-response","332","307779","0.0-1.0-473.0-0.0","0","0","45682","","332","","","68","52","","","2","52","training","adjacent","EF","5","6","N.jpg","O.jpg","1","1","1","",""
"","feedback","","html-keyboard-response","333","308782","0.0-1.0-474.0-0.0","0","0","45682","","null","","","null","52","","","","","","","","","","","","","","","",""
"","ITI","","html-keyboard-response","334","309785","0.0-1.0-477.0","0","0","45682","","null","","","null","52","","","","","","","","","","","","","","","NaN",""
"","S1","","html-keyboard-response","335","310037","0.0-1.0-479.0","0","0","45682","","null","","","null","53","","","","","","","","","","","","","","","",""
"","ISI","","html-keyboard-response","336","311039","0.0-1.0-480.0","0","0","45682","","null","","","null","53","NaN","","","","","","","","","","","","","","",""
"","S2","","html-keyboard-response","337","311291","0.0-1.0-481.0","0","0","45682","","null","","","null","53","","NaN","","","","","","","","","","","","","",""
"","response","","html-keyboard-response","338","311865","0.0-1.0-482.0-0.0","0","0","45682","","572","","","75","53","","","2","53","training","adjacent","CD","3","4","P.jpg","R.jpg","0","1","0","",""
"","feedback","","html-keyboard-response","339","312867","0.0-1.0-483.0-0.0","0","0","45682","","null","","","null","53","","","","","","","","","","","","","","","",""
"","time_out","","html-keyboard-response","340","314869","0.0-1.0-485.0-0.0","0","0","45682","","null","","","null","53","","","","","","","","","","","","","","","",""
"","ITI","","html-keyboard-response","341","315872","0.0-1.0-486.0","0","0","45682","","null","","","null","53","","","","","","","","","","","","","","","NaN",""
"","S1","","html-keyboard-response","342","316125","0.0-1.0-488.0","0","0","45682","","null","","","null","54","","","","","","","","","","","","","","","",""
"","ISI","","html-keyboard-response","343","317127","0.0-1.0-489.0","0","0","45682","","null","","","null","54","NaN","","","","","","","","","","","","","","",""
"","S2","","html-keyboard-response","344","317379","0.0-1.0-490.0","0","0","45682","","null","","","null","54","","NaN","","","","","","","","","","","","","",""
"","response","","html-keyboard-response","345","317665","0.0-1.0-491.0-0.0","0","0","45682","","284","","","75","54","","","2","54","training","adjacent","GF","7","6","L.jpg","O.jpg","0","0","1","",""
"","feedback","","html-keyboard-response","346","318667","0.0-1.0-492.0-0.0","0","0","45682","","null","","","null","54","","","","","","","","","","","","","","","",""
"","ITI","","html-keyboard-response","347","319670","0.0-1.0-495.0","0","0","45682","","null","","","null","54","","","","","","","","","","","","","","","NaN",""
"","S1","","html-keyboard-response","348","319922","0.0-1.0-497.0","0","0","45682","","null","","","null","55","","","","","","","","","","","","","","","",""
"","ISI","","html-keyboard-response","349","320925","0.0-1.0-498.0","0","0","45682","","null","","","null","55","NaN","","","","","","","","","","","","","","",""
"","S2","","html-keyboard-response","350","321178","0.0-1.0-499.0","0","0","45682","","null","","","null","55","","NaN","","","","","","","","","","","","","",""
"","response","","html-keyboard-response","351","321483","0.0-1.0-500.0-0.0","0","0","45682","","304","","","68","55","","","2","55","training","adjacent","BC","2","3","Q.jpg","P.jpg","1","1","1","",""
"","feedback","","html-keyboard-response","352","322486","0.0-1.0-501.0-0.0","0","0","45682","","null","","","null","55","","","","","","","","","","","","","","","",""
"","ITI","","html-keyboard-response","353","323490","0.0-1.0-504.0","0","0","45682","","null","","","null","55","","","","","","","","","","","","","","","NaN",""
"","S1","","html-keyboard-response","354","323742","0.0-1.0-506.0","0","0","45682","","null","","","null","56","","","","","","","","","","","","","","","",""
"","ISI","","html-keyboard-response","355","324749","0.0-1.0-507.0","0","0","45682","","null","","","null","56","NaN","","","","","","","","","","","","","","",""
"","S2","","html-keyboard-response","356","325002","0.0-1.0-508.0","0","0","45682","","null","","","null","56","","NaN","","","","","","","","","","","","","",""
"","response","","html-keyboard-response","357","325585","0.0-1.0-509.0-0.0","0","0","45682","","582","","","68","56","","","2","56","training","adjacent","ED","5","4","N.jpg","R.jpg","1","0","0","",""
"","feedback","","html-keyboard-response","358","326587","0.0-1.0-510.0-0.0","0","0","45682","","null","","","null","56","","","","","","","","","","","","","","","",""
"","time_out","","html-keyboard-response","359","328589","0.0-1.0-512.0-0.0","0","0","45682","","null","","","null","56","","","","","","","","","","","","","","","",""
"","ITI","","html-keyboard-response","360","329592","0.0-1.0-513.0","0","0","45682","","null","","","null","56","","","","","","","","","","","","","","","NaN",""
"","S1","","html-keyboard-response","361","329844","0.0-1.0-515.0","0","0","45682","","null","","","null","57","","","","","","","","","","","","","","","",""
"","ISI","","html-keyboard-response","362","330846","0.0-1.0-516.0","0","0","45682","","null","","","null","57","NaN","","","","","","","","","","","","","","",""
"","S2","","html-keyboard-response","363","331100","0.0-1.0-517.0","0","0","45682","","null","","","null","57","","NaN","","","","","","","","","","","","","",""
"","response","","html-keyboard-response","364","331987","0.0-1.0-518.0-0.0","0","0","45682","","886","","","75","57","","","2","57","training","adjacent","DC","4","3","R.jpg","P.jpg","0","0","1","",""
"","feedback","","html-keyboard-response","365","332990","0.0-1.0-519.0-0.0","0","0","45682","","null","","","null","57","","","","","","","","","","","","","","","",""
"","ITI","","html-keyboard-response","366","333993","0.0-1.0-522.0","0","0","45682","","null","","","null","57","","","","","","","","","","","","","","","NaN",""
"","S1","","html-keyboard-response","367","334244","0.0-1.0-524.0","0","0","45682","","null","","","null","58","","","","","","","","","","","","","","","",""
"","ISI","","html-keyboard-response","368","335246","0.0-1.0-525.0","0","0","45682","","null","","","null","58","NaN","","","","","","","","","","","","","","",""
"","S2","","html-keyboard-response","369","335498","0.0-1.0-526.0","0","0","45682","","null","","","null","58","","NaN","","","","","","","","","","","","","",""
"","response","","html-keyboard-response","370","335857","0.0-1.0-527.0-0.0","0","0","45682","","357","","","68","58","","","2","58","training","adjacent","CD","3","4","P.jpg","R.jpg","1","1","1","",""
"","feedback","","html-keyboard-response","371","336859","0.0-1.0-528.0-0.0","0","0","45682","","null","","","null","58","","","","","","","","","","","","","","","",""
"","ITI","","html-keyboard-response","372","337861","0.0-1.0-531.0","0","0","45682","","null","","","null","58","","","","","","","","","","","","","","","NaN",""
"","S1","","html-keyboard-response","373","338114","0.0-1.0-533.0","0","0","45682","","null","","","null","59","","","","","","","","","","","","","","","",""
"","ISI","","html-keyboard-response","374","339116","0.0-1.0-534.0","0","0","45682","","null","","","null","59","NaN","","","","","","","","","","","","","","",""
"","S2","","html-keyboard-response","375","339368","0.0-1.0-535.0","0","0","45682","","null","","","null","59","","NaN","","","","","","","","","","","","","",""
"","response","","html-keyboard-response","376","339809","0.0-1.0-536.0-0.0","0","0","45682","","439","","","68","59","","","2","59","training","adjacent","CB","3","2","P.jpg","Q.jpg","1","0","0","",""
"","feedback","","html-keyboard-response","377","340811","0.0-1.0-537.0-0.0","0","0","45682","","null","","","null","59","","","","","","","","","","","","","","","",""
"","time_out","","html-keyboard-response","378","342813","0.0-1.0-539.0-0.0","0","0","45682","","null","","","null","59","","","","","","","","","","","","","","","",""
"","ITI","","html-keyboard-response","379","343816","0.0-1.0-540.0","0","0","45682","","null","","","null","59","","","","","","","","","","","","","","","NaN",""
"","S1","","html-keyboard-response","380","344068","0.0-1.0-542.0","0","0","45682","","null","","","null","60","","","","","","","","","","","","","","","",""
"","ISI","","html-keyboard-response","381","345070","0.0-1.0-543.0","0","0","45682","","null","","","null","60","NaN","","","","","","","","","","","","","","",""
"","S2","","html-keyboard-response","382","345322","0.0-1.0-544.0","0","0","45682","","null","","","null","60","","NaN","","","","","","","","","","","","","",""
"","response","","html-keyboard-response","383","345811","0.0-1.0-545.0-0.0","0","0","45682","","487","","","68","60","","","2","60","training","adjacent","EF","5","6","N.jpg","O.jpg","1","1","1","",""
"","feedback","","html-keyboard-response","384","346813","0.0-1.0-546.0-0.0","0","0","45682","","null","","","null","60","","","","","","","","","","","","","","","",""
"","ITI","","html-keyboard-response","385","347815","0.0-1.0-549.0","0","0","45682","","null","","","null","60","","","","","","","","","","","","","","","NaN",""
"","S1","","html-keyboard-response","386","348068","0.0-1.0-551.0","0","0","45682","","null","","","null","61","","","","","","","","","","","","","","","",""
"","ISI","","html-keyboard-response","387","349070","0.0-1.0-552.0","0","0","45682","","null","","","null","61","NaN","","","","","","","","","","","","","","",""
"","S2","","html-keyboard-response","388","349322","0.0-1.0-553.0","0","0","45682","","null","","","null","61","","NaN","","","","","","","","","","","","","",""
"","response","","html-keyboard-response","389","349641","0.0-1.0-554.0-0.0","0","0","45682","","318","","","68","61","","","2","61","training","adjacent","FG","6","7","O.jpg","L.jpg","1","1","1","",""
"","feedback","","html-keyboard-response","390","350643","0.0-1.0-555.0-0.0","0","0","45682","","null","","","null","61","","","","","","","","","","","","","","","",""
"","ITI","","html-keyboard-response","391","351646","0.0-1.0-558.0","0","0","45682","","null","","","null","61","","","","","","","","","","","","","","","NaN",""
"","S1","","html-keyboard-response","392","351899","0.0-1.0-560.0","0","0","45682","","null","","","null","62","","","","","","","","","","","","","","","",""
"","ISI","","html-keyboard-response","393","352902","0.0-1.0-561.0","0","0","45682","","null","","","null","62","NaN","","","","","","","","","","","","","","",""
"","S2","","html-keyboard-response","394","353165","0.0-1.0-562.0","0","0","45682","","null","","","null","62","","NaN","","","","","","","","","","","","","",""
"","response","","html-keyboard-response","395","353529","0.0-1.0-563.0-0.0","0","0","45682","","362","","","68","62","","","2","62","training","adjacent","CB","3","2","P.jpg","Q.jpg","1","0","0","",""
"","feedback","","html-keyboard-response","396","354531","0.0-1.0-564.0-0.0","0","0","45682","","null","","","null","62","","","","","","","","","","","","","","","",""
"","time_out","","html-keyboard-response","397","356535","0.0-1.0-566.0-0.0","0","0","45682","","null","","","null","62","","","","","","","","","","","","","","","",""
"","ITI","","html-keyboard-response","398","357537","0.0-1.0-567.0","0","0","45682","","null","","","null","62","","","","","","","","","","","","","","","NaN",""
"","S1","","html-keyboard-response","399","357789","0.0-1.0-569.0","0","0","45682","","null","","","null","63","","","","","","","","","","","","","","","",""
"","ISI","","html-keyboard-response","400","358792","0.0-1.0-570.0","0","0","45682","","null","","","null","63","NaN","","","","","","","","","","","","","","",""
"","S2","","html-keyboard-response","401","359050","0.0-1.0-571.0","0","0","45682","","null","","","null","63","","NaN","","","","","","","","","","","","","",""
"","response","","html-keyboard-response","402","359523","0.0-1.0-572.0-0.0","0","0","45682","","471","","","75","63","","","2","63","training","adjacent","CD","3","4","P.jpg","R.jpg","0","1","0","",""
"","feedback","","html-keyboard-response","403","360526","0.0-1.0-573.0-0.0","0","0","45682","","null","","","null","63","","","","","","","","","","","","","","","",""
"","time_out","","html-keyboard-response","404","362528","0.0-1.0-575.0-0.0","0","0","45682","","null","","","null","63","","","","","","","","","","","","","","","",""
"","ITI","","html-keyboard-response","405","363530","0.0-1.0-576.0","0","0","45682","","null","","","null","63","","","","","","","","","","","","","","","NaN",""
"","S1","","html-keyboard-response","406","363783","0.0-1.0-578.0","0","0","45682","","null","","","null","64","","","","","","","","","","","","","","","",""
"","ISI","","html-keyboard-response","407","364785","0.0-1.0-579.0","0","0","45682","","569","","","68","64","d","","","","","","","","","","","","","","",""
"","S2","","html-keyboard-response","408","365039","0.0-1.0-580.0","0","0","45682","","null","","","null","64","","NaN","","","","","","","","","","","","","",""
"","response","","html-keyboard-response","409","365105","0.0-1.0-581.0-0.0","0","0","45682","","64","","","68","64","","","2","64","training","adjacent","AB","1","2","M.jpg","Q.jpg","1","1","1","",""
"","feedback","","html-keyboard-response","410","366107","0.0-1.0-582.0-0.0","0","0","45682","","null","","","null","64","","","","","","","","","","","","","","","",""
"","ITI","","html-keyboard-response","411","367111","0.0-1.0-585.0","0","0","45682","","null","","","null","64","","","","","","","","","","","","","","","NaN",""
"","S1","","html-keyboard-response","412","367363","0.0-1.0-587.0","0","0","45682","","null","","","null","65","","","","","","","","","","","","","","","",""
"","ISI","","html-keyboard-response","413","368366","0.0-1.0-588.0","0","0","45682","","null","","","null","65","NaN","","","","","","","","","","","","","","",""
"","S2","","html-keyboard-response","414","368618","0.0-1.0-589.0","0","0","45682","","null","","","null","65","","NaN","","","","","","","","","","","","","",""
"","response","","html-keyboard-response","415","368984","0.0-1.0-590.0-0.0","0","0","45682","","364","","","68","65","","","2","65","training","adjacent","EF","5","6","N.jpg","O.jpg","1","1","1","",""
"","feedback","","html-keyboard-response","416","369987","0.0-1.0-591.0-0.0","0","0","45682","","null","","","null","65","","","","","","","","","","","","","","","",""
"","ITI","","html-keyboard-response","417","370990","0.0-1.0-594.0","0","0","45682","","null","","","null","65","","","","","","","","","","","","","","","NaN",""
"","S1","","html-keyboard-response","418","371242","0.0-1.0-596.0","0","0","45682","","null","","","null","66","","","","","","","","","","","","","","","",""
"","ISI","","html-keyboard-response","419","372244","0.0-1.0-597.0","0","0","45682","","null","","","null","66","NaN","","","","","","","","","","","","","","",""
"","S2","","html-keyboard-response","420","372497","0.0-1.0-598.0","0","0","45682","","null","","","null","66","","NaN","","","","","","","","","","","","","",""
"","response","","html-keyboard-response","421","372739","0.0-1.0-599.0-0.0","0","0","45682","","241","","","75","66","","","2","66","training","adjacent","FE","6","5","O.jpg","N.jpg","0","0","1","",""
"","feedback","","html-keyboard-response","422","373742","0.0-1.0-600.0-0.0","0","0","45682","","null","","","null","66","","","","","","","","","","","","","","","",""
"","ITI","","html-keyboard-response","423","374745","0.0-1.0-603.0","0","0","45682","","null","","","null","66","","","","","","","","","","","","","","","NaN",""
"","S1","","html-keyboard-response","424","374998","0.0-1.0-605.0","0","0","45682","","null","","","null","67","","","","","","","","","","","","","","","",""
"","ISI","","html-keyboard-response","425","376000","0.0-1.0-606.0","0","0","45682","","null","","","null","67","NaN","","","","","","","","","","","","","","",""
"","S2","","html-keyboard-response","426","376217","0.0-1.0-607.0","0","0","45682","","216","","","68","67","","d","2","67","training","adjacent","AB","1","2","M.jpg","Q.jpg","1","1","1","",""
"","feedback","","html-keyboard-response","427","377220","0.0-1.0-609.0-0.0","0","0","45682","","null","","","null","67","","","","","","","","","","","","","","","",""
"","ITI","","html-keyboard-response","428","378222","0.0-1.0-612.0","0","0","45682","","null","","","null","67","","","","","","","","","","","","","","","NaN",""
"","S1","","html-keyboard-response","429","378475","0.0-1.0-614.0","0","0","45682","","null","","","null","68","","","","","","","","","","","","","","","",""
"","ISI","","html-keyboard-response","430","379478","0.0-1.0-615.0","0","0","45682","","null","","","null","68","NaN","","","","","","","","","","","","","","",""
"","S2","","html-keyboard-response","431","379730","0.0-1.0-616.0","0","0","45682","","null","","","null","68","","NaN","","","","","","","","","","","","","",""
"","response","","html-keyboard-response","432","379865","0.0-1.0-617.0-0.0","0","0","45682","","133","","","75","68","","","2","68","training","adjacent","DE","4","5","R.jpg","N.jpg","0","1","0","",""
"","feedback","","html-keyboard-response","433","380867","0.0-1.0-618.0-0.0","0","0","45682","","null","","","null","68","","","","","","","","","","","","","","","",""
"","time_out","","html-keyboard-response","434","382869","0.0-1.0-620.0-0.0","0","0","45682","","null","","","null","68","","","","","","","","","","","","","","","",""
"","ITI","","html-keyboard-response","435","383872","0.0-1.0-621.0","0","0","45682","","null","","","null","68","","","","","","","","","","","","","","","NaN",""
"","S1","","html-keyboard-response","436","384125","0.0-1.0-623.0","0","0","45682","","null","","","null","69","","","","","","","","","","","","","","","",""
"","ISI","","html-keyboard-response","437","385128","0.0-1.0-624.0","0","0","45682","","null","","","null","69","NaN","","","","","","","","","","","","","","",""
"","S2","","html-keyboard-response","438","385380","0.0-1.0-625.0","0","0","45682","","null","","","null","69","","NaN","","","","","","","","","","","","","",""
"","response","","html-keyboard-response","439","385699","0.0-1.0-626.0-0.0","0","0","45682","","318","","","68","69","","","2","69","training","adjacent","BC","2","3","Q.jpg","P.jpg","1","1","1","",""
"","feedback","","html-keyboard-response","440","386701","0.0-1.0-627.0-0.0","0","0","45682","","null","","","null","69","","","","","","","","","","","","","","","",""
"","ITI","","html-keyboard-response","441","387704","0.0-1.0-630.0","0","0","45682","","null","","","null","69","","","","","","","","","","","","","","","NaN",""
"","S1","","html-keyboard-response","442","387956","0.0-1.0-632.0","0","0","45682","","null","","","null","70","","","","","","","","","","","","","","","",""
"","ISI","","html-keyboard-response","443","388958","0.0-1.0-633.0","0","0","45682","","null","","","null","70","NaN","","","","","","","","","","","","","","",""
"","S2","","html-keyboard-response","444","389210","0.0-1.0-634.0","0","0","45682","","null","","","null","70","","NaN","","","","","","","","","","","","","",""
"","response","","html-keyboard-response","445","389553","0.0-1.0-635.0-0.0","0","0","45682","","341","","","75","70","","","2","70","training","adjacent","BA","2","1","Q.jpg","M.jpg","0","0","1","",""
"","feedback","","html-keyboard-response","446","390555","0.0-1.0-636.0-0.0","0","0","45682","","null","","","null","70","","","","","","","","","","","","","","","",""
"","ITI","","html-keyboard-response","447","391557","0.0-1.0-639.0","0","0","45682","","null","","","null","70","","","","","","","","","","","","","","","NaN",""
"","S1","","html-keyboard-response","448","391810","0.0-1.0-641.0","0","0","45682","","null","","","null","71","","","","","","","","","","","","","","","",""
"","ISI","","html-keyboard-response","449","392813","0.0-1.0-642.0","0","0","45682","","null","","","null","71","NaN","","","","","","","","","","","","","","",""
"","S2","","html-keyboard-response","450","393065","0.0-1.0-643.0","0","0","45682","","null","","","null","71","","NaN","","","","","","","","","","","","","",""
"","response","","html-keyboard-response","451","393096","0.0-1.0-644.0-0.0","0","0","45682","","29","","","75","71","","","2","71","training","adjacent","GF","7","6","L.jpg","O.jpg","0","0","1","",""
"","feedback","","html-keyboard-response","452","394098","0.0-1.0-645.0-0.0","0","0","45682","","null","","","null","71","","","","","","","","","","","","","","","",""
"","ITI","","html-keyboard-response","453","395105","0.0-1.0-648.0","0","0","45682","","null","","","null","71","","","","","","","","","","","","","","","NaN",""
"","S1","","html-keyboard-response","454","395357","0.0-1.0-650.0","0","0","45682","","null","","","null","72","","","","","","","","","","","","","","","",""
"","ISI","","html-keyboard-response","455","396360","0.0-1.0-651.0","0","0","45682","","null","","","null","72","NaN","","","","","","","","","","","","","","",""
"","S2","","html-keyboard-response","456","396612","0.0-1.0-652.0","0","0","45682","","null","","","null","72","","NaN","","","","","","","","","","","","","",""
"","response","","html-keyboard-response","457","396979","0.0-1.0-653.0-0.0","0","0","45682","","365","","","68","72","","","2","72","training","adjacent","FE","6","5","O.jpg","N.jpg","1","0","0","",""
"","feedback","","html-keyboard-response","458","397981","0.0-1.0-654.0-0.0","0","0","45682","","null","","","null","72","","","","","","","","","","","","","","","",""
"","time_out","","html-keyboard-response","459","399983","0.0-1.0-656.0-0.0","0","0","45682","","null","","","null","72","","","","","","","","","","","","","","","",""
"","ITI","","html-keyboard-response","460","400986","0.0-1.0-657.0","0","0","45682","","null","","","null","72","","","","","","","","","","","","","","","NaN",""
"","S1","","html-keyboard-response","461","401239","0.0-1.0-659.0","0","0","45682","","null","","","null","73","","","","","","","","","","","","","","","",""
"","ISI","","html-keyboard-response","462","402241","0.0-1.0-660.0","0","0","45682","","null","","","null","73","NaN","","","","","","","","","","","","","","",""
"","S2","","html-keyboard-response","463","402493","0.0-1.0-661.0","0","0","45682","","null","","","null","73","","NaN","","","","","","","","","","","","","",""
"","response","","html-keyboard-response","464","402737","0.0-1.0-662.0-0.0","0","0","45682","","242","","","68","73","","","2","73","training","adjacent","BC","2","3","Q.jpg","P.jpg","1","1","1","",""
"","feedback","","html-keyboard-response","465","403739","0.0-1.0-663.0-0.0","0","0","45682","","null","","","null","73","","","","","","","","","","","","","","","",""
"","ITI","","html-keyboard-response","466","404741","0.0-1.0-666.0","0","0","45682","","null","","","null","73","","","","","","","","","","","","","","","NaN",""
"","S1","","html-keyboard-response","467","404995","0.0-1.0-668.0","0","0","45682","","null","","","null","74","","","","","","","","","","","","","","","",""
"","ISI","","html-keyboard-response","468","405997","0.0-1.0-669.0","0","0","45682","","null","","","null","74","NaN","","","","","","","","","","","","","","",""
"","S2","","html-keyboard-response","469","406249","0.0-1.0-670.0","0","0","45682","","null","","","null","74","","NaN","","","","","","","","","","","","","",""
"","response","","html-keyboard-response","470","406609","0.0-1.0-671.0-0.0","0","0","45682","","359","","","75","74","","","2","74","training","adjacent","CB","3","2","P.jpg","Q.jpg","0","0","1","",""
"","feedback","","html-keyboard-response","471","407611","0.0-1.0-672.0-0.0","0","0","45682","","null","","","null","74","","","","","","","","","","","","","","","",""
"","ITI","","html-keyboard-response","472","408614","0.0-1.0-675.0","0","0","45682","","null","","","null","74","","","","","","","","","","","","","","","NaN",""
"","S1","","html-keyboard-response","473","408866","0.0-1.0-677.0","0","0","45682","","null","","","null","75","","","","","","","","","","","","","","","",""
"","ISI","","html-keyboard-response","474","409869","0.0-1.0-678.0","0","0","45682","","null","","","null","75","NaN","","","","","","","","","","","","","","",""
"","S2","","html-keyboard-response","475","410121","0.0-1.0-679.0","0","0","45682","","null","","","null","75","","NaN","","","","","","","","","","","","","",""
"","response","","html-keyboard-response","476","410435","0.0-1.0-680.0-0.0","0","0","45682","","312","","","68","75","","","2","75","training","adjacent","FG","6","7","O.jpg","L.jpg","1","1","1","",""
"","feedback","","html-keyboard-response","477","411438","0.0-1.0-681.0-0.0","0","0","45682","","null","","","null","75","","","","","","","","","","","","","","","",""
"","ITI","","html-keyboard-response","478","412440","0.0-1.0-684.0","0","0","45682","","null","","","null","75","","","","","","","","","","","","","","","NaN",""
"","S1","","html-keyboard-response","479","412697","0.0-1.0-686.0","0","0","45682","","null","","","null","76","","","","","","","","","","","","","","","",""
"","ISI","","html-keyboard-response","480","413699","0.0-1.0-687.0","0","0","45682","","null","","","null","76","NaN","","","","","","","","","","","","","","",""
"","S2","","html-keyboard-response","481","413951","0.0-1.0-688.0","0","0","45682","","null","","","null","76","","NaN","","","","","","","","","","","","","",""
"","response","","html-keyboard-response","482","414233","0.0-1.0-689.0-0.0","0","0","45682","","280","","","68","76","","","2","76","training","adjacent","DC","4","3","R.jpg","P.jpg","1","0","0","",""
"","feedback","","html-keyboard-response","483","415235","0.0-1.0-690.0-0.0","0","0","45682","","null","","","null","76","","","","","","","","","","","","","","","",""
"","time_out","","html-keyboard-response","484","417238","0.0-1.0-692.0-0.0","0","0","45682","","null","","","null","76","","","","","","","","","","","","","","","",""
"","ITI","","html-keyboard-response","485","418240","0.0-1.0-693.0","0","0","45682","","null","","","null","76","","","","","","","","","","","","","","","NaN",""
"","S1","","html-keyboard-response","486","418492","0.0-1.0-695.0","0","0","45682","","null","","","null","77","","","","","","","","","","","","","","","",""
"","ISI","","html-keyboard-response","487","419496","0.0-1.0-696.0","0","0","45682","","null","","","null","77","NaN","","","","","","","","","","","","","","",""
"","S2","","html-keyboard-response","488","419748","0.0-1.0-697.0","0","0","45682","","null","","","null","77","","NaN","","","","","","","","","","","","","",""
"","response","","html-keyboard-response","489","419961","0.0-1.0-698.0-0.0","0","0","45682","","211","","","75","77","","","2","77","training","adjacent","CB","3","2","P.jpg","Q.jpg","0","0","1","",""
"","feedback","","html-keyboard-response","490","420964","0.0-1.0-699.0-0.0","0","0","45682","","null","","","null","77","","","","","","","","","","","","","","","",""
"","ITI","","html-keyboard-response","491","421966","0.0-1.0-702.0","0","0","45682","","null","","","null","77","","","","","","","","","","","","","","","NaN",""
"","S1","","html-keyboard-response","492","422219","0.0-1.0-704.0","0","0","45682","","null","","","null","78","","","","","","","","","","","","","","","",""
"","ISI","","html-keyboard-response","493","423222","0.0-1.0-705.0","0","0","45682","","null","","","null","78","NaN","","","","","","","","","","","","","","",""
"","S2","","html-keyboard-response","494","423476","0.0-1.0-706.0","0","0","45682","","null","","","null","78","","NaN","","","","","","","","","","","","","",""
"","response","","html-keyboard-response","495","423915","0.0-1.0-707.0-0.0","0","0","45682","","438","","","68","78","","","2","78","training","adjacent","CD","3","4","P.jpg","R.jpg","1","1","1","",""
"","feedback","","html-keyboard-response","496","424918","0.0-1.0-708.0-0.0","0","0","45682","","null","","","null","78","","","","","","","","","","","","","","","",""
"","ITI","","html-keyboard-response","497","425920","0.0-1.0-711.0","0","0","45682","","null","","","null","78","","","","","","","","","","","","","","","NaN",""
"","S1","","html-keyboard-response","498","426173","0.0-1.0-713.0","0","0","45682","","null","","","null","79","","","","","","","","","","","","","","","",""
"","ISI","","html-keyboard-response","499","427175","0.0-1.0-714.0","0","0","45682","","null","","","null","79","NaN","","","","","","","","","","","","","","",""
"","S2","","html-keyboard-response","500","427427","0.0-1.0-715.0","0","0","45682","","null","","","null","79","","NaN","","","","","","","","","","","","","",""
"","response","","html-keyboard-response","501","427801","0.0-1.0-716.0-0.0","0","0","45682","","372","","","75","79","","","2","79","training","adjacent","BA","2","1","Q.jpg","M.jpg","0","0","1","",""
"","feedback","","html-keyboard-response","502","428803","0.0-1.0-717.0-0.0","0","0","45682","","null","","","null","79","","","","","","","","","","","","","","","",""
"","ITI","","html-keyboard-response","503","429806","0.0-1.0-720.0","0","0","45682","","null","","","null","79","","","","","","","","","","","","","","","NaN",""
"","S1","","html-keyboard-response","504","430059","0.0-1.0-722.0","0","0","45682","","null","","","null","80","","","","","","","","","","","","","","","",""
"","ISI","","html-keyboard-response","505","431061","0.0-1.0-723.0","0","0","45682","","null","","","null","80","NaN","","","","","","","","","","","","","","",""
"","S2","","html-keyboard-response","506","431313","0.0-1.0-724.0","0","0","45682","","null","","","null","80","","NaN","","","","","","","","","","","","","",""
"","response","","html-keyboard-response","507","431584","0.0-1.0-725.0-0.0","0","0","45682","","269","","","75","80","","","2","80","training","adjacent","DE","4","5","R.jpg","N.jpg","0","1","0","",""
"","feedback","","html-keyboard-response","508","432587","0.0-1.0-726.0-0.0","0","0","45682","","null","","","null","80","","","","","","","","","","","","","","","",""
"","time_out","","html-keyboard-response","509","434589","0.0-1.0-728.0-0.0","0","0","45682","","null","","","null","80","","","","","","","","","","","","","","","",""
"","ITI","","html-keyboard-response","510","435591","0.0-1.0-729.0","0","0","45682","","null","","","null","80","","","","","","","","","","","","","","","NaN",""
"","S1","","html-keyboard-response","511","435844","0.0-1.0-731.0","0","0","45682","","null","","","null","81","","","","","","","","","","","","","","","",""
"","ISI","","html-keyboard-response","512","436847","0.0-1.0-732.0","0","0","45682","","null","","","null","81","NaN","","","","","","","","","","","","","","",""
"","S2","","html-keyboard-response","513","437099","0.0-1.0-733.0","0","0","45682","","null","","","null","81","","NaN","","","","","","","","","","","","","",""
"","response","","html-keyboard-response","514","437458","0.0-1.0-734.0-0.0","0","0","45682","","358","","","75","81","","","2","81","training","adjacent","FE","6","5","O.jpg","N.jpg","0","0","1","",""
"","feedback","","html-keyboard-response","515","438461","0.0-1.0-735.0-0.0","0","0","45682","","null","","","null","81","","","","","","","","","","","","","","","",""
"","ITI","","html-keyboard-response","516","439463","0.0-1.0-738.0","0","0","45682","","null","","","null","81","","","","","","","","","","","","","","","NaN",""
"","S1","","html-keyboard-response","517","439716","0.0-1.0-740.0","0","0","45682","","null","","","null","82","","","","","","","","","","","","","","","",""
"","ISI","","html-keyboard-response","518","440720","0.0-1.0-741.0","0","0","45682","","null","","","null","82","NaN","","","","","","","","","","","","","","",""
"","S2","","html-keyboard-response","519","440972","0.0-1.0-742.0","0","0","45682","","null","","","null","82","","NaN","","","","","","","","","","","","","",""
"","response","","html-keyboard-response","520","441384","0.0-1.0-743.0-0.0","0","0","45682","","410","","","68","82","","","2","82","training","adjacent","FG","6","7","O.jpg","L.jpg","1","1","1","",""
"","feedback","","html-keyboard-response","521","442390","0.0-1.0-744.0-0.0","0","0","45682","","null","","","null","82","","","","","","","","","","","","","","","",""
"","ITI","","html-keyboard-response","522","443393","0.0-1.0-747.0","0","0","45682","","null","","","null","82","","","","","","","","","","","","","","","NaN",""
"","S1","","html-keyboard-response","523","443646","0.0-1.0-749.0","0","0","45682","","null","","","null","83","","","","","","","","","","","","","","","",""
"","ISI","","html-keyboard-response","524","444648","0.0-1.0-750.0","0","0","45682","","null","","","null","83","NaN","","","","","","","","","","","","","","",""
"","S2","","html-keyboard-response","525","444901","0.0-1.0-751.0","0","0","45682","","null","","","null","83","","NaN","","","","","","","","","","","","","",""
"","response","","html-keyboard-response","526","444928","0.0-1.0-752.0-0.0","0","0","45682","","25","","","68","83","","","2","83","training","adjacent","AB","1","2","M.jpg","Q.jpg","1","1","1","",""
"","feedback","","html-keyboard-response","527","445931","0.0-1.0-753.0-0.0","0","0","45682","","null","","","null","83","","","","","","","","","","","","","","","",""
"","ITI","","html-keyboard-response","528","446933","0.0-1.0-756.0","0","0","45682","","null","","","null","83","","","","","","","","","","","","","","","NaN",""
"","S1","","html-keyboard-response","529","447186","0.0-1.0-758.0","0","0","45682","","null","","","null","84","","","","","","","","","","","","","","","",""
"","ISI","","html-keyboard-response","530","448188","0.0-1.0-759.0","0","0","45682","","null","","","null","84","NaN","","","","","","","","","","","","","","",""
"","S2","","html-keyboard-response","531","448440","0.0-1.0-760.0","0","0","45682","","null","","","null","84","","NaN","","","","","","","","","","","","","",""
"","response","","html-keyboard-response","532","448635","0.0-1.0-761.0-0.0","0","0","45682","","193","","","75","84","","","2","84","training","adjacent","GF","7","6","L.jpg","O.jpg","0","0","1","",""
"","feedback","","html-keyboard-response","533","449638","0.0-1.0-762.0-0.0","0","0","45682","","null","","","null","84","","","","","","","","","","","","","","","",""
"","ITI","","html-keyboard-response","534","450641","0.0-1.0-765.0","0","0","45682","","null","","","null","84","","","","","","","","","","","","","","","NaN",""
"","S1","","html-keyboard-response","535","450893","0.0-1.0-767.0","0","0","45682","","null","","","null","85","","","","","","","","","","","","","","","",""
"","ISI","","html-keyboard-response","536","451895","0.0-1.0-768.0","0","0","45682","","null","","","null","85","NaN","","","","","","","","","","","","","","",""
"","S2","","html-keyboard-response","537","452147","0.0-1.0-769.0","0","0","45682","","null","","","null","85","","NaN","","","","","","","","","","","","","",""
"","response","","html-keyboard-response","538","452457","0.0-1.0-770.0-0.0","0","0","45682","","309","","","75","85","","","2","85","training","adjacent","BA","2","1","Q.jpg","M.jpg","0","0","1","",""
"","feedback","","html-keyboard-response","539","453459","0.0-1.0-771.0-0.0","0","0","45682","","null","","","null","85","","","","","","","","","","","","","","","",""
"","ITI","","html-keyboard-response","540","454461","0.0-1.0-774.0","0","0","45682","","null","","","null","85","","","","","","","","","","","","","","","NaN",""
"","S1","","html-keyboard-response","541","454716","0.0-1.0-776.0","0","0","45682","","null","","","null","86","","","","","","","","","","","","","","","",""
"","ISI","","html-keyboard-response","542","455718","0.0-1.0-777.0","0","0","45682","","null","","","null","86","NaN","","","","","","","","","","","","","","",""
"","S2","","html-keyboard-response","543","455971","0.0-1.0-778.0","0","0","45682","","null","","","null","86","","NaN","","","","","","","","","","","","","",""
"","response","","html-keyboard-response","544","456311","0.0-1.0-779.0-0.0","0","0","45682","","339","","","68","86","","","2","86","training","adjacent","DE","4","5","R.jpg","N.jpg","1","1","1","",""
"","feedback","","html-keyboard-response","545","457314","0.0-1.0-780.0-0.0","0","0","45682","","null","","","null","86","","","","","","","","","","","","","","","",""
"","ITI","","html-keyboard-response","546","458316","0.0-1.0-783.0","0","0","45682","","null","","","null","86","","","","","","","","","","","","","","","NaN",""
"","S1","","html-keyboard-response","547","458569","0.0-1.0-785.0","0","0","45682","","null","","","null","87","","","","","","","","","","","","","","","",""
"","ISI","","html-keyboard-response","548","459571","0.0-1.0-786.0","0","0","45682","","null","","","null","87","NaN","","","","","","","","","","","","","","",""
"","S2","","html-keyboard-response","549","459823","0.0-1.0-787.0","0","0","45682","","null","","","null","87","","NaN","","","","","","","","","","","","","",""
"","response","","html-keyboard-response","550","459930","0.0-1.0-788.0-0.0","0","0","45682","","105","","","68","87","","","2","87","training","adjacent","AB","1","2","M.jpg","Q.jpg","1","1","1","",""
"","feedback","","html-keyboard-response","551","460932","0.0-1.0-789.0-0.0","0","0","45682","","null","","","null","87","","","","","","","","","","","","","","","",""
"","ITI","","html-keyboard-response","552","461935","0.0-1.0-792.0","0","0","45682","","null","","","null","87","","","","","","","","","","","","","","","NaN",""
"","S1","","html-keyboard-response","553","462188","0.0-1.0-794.0","0","0","45682","","null","","","null","88","","","","","","","","","","","","","","","",""
"","ISI","","html-keyboard-response","554","463190","0.0-1.0-795.0","0","0","45682","","null","","","null","88","NaN","","","","","","","","","","","","","","",""
"","S2","","html-keyboard-response","555","463442","0.0-1.0-796.0","0","0","45682","","null","","","null","88","","NaN","","","","","","","","","","","","","",""
"","response","","html-keyboard-response","556","463817","0.0-1.0-797.0-0.0","0","0","45682","","373","","","68","88","","","2","88","training","adjacent","EF","5","6","N.jpg","O.jpg","1","1","1","",""
"","feedback","","html-keyboard-response","557","464823","0.0-1.0-798.0-0.0","0","0","45682","","null","","","null","88","","","","","","","","","","","","","","","",""
"","ITI","","html-keyboard-response","558","465825","0.0-1.0-801.0","0","0","45682","","null","","","null","88","","","","","","","","","","","","","","","NaN",""
"","S1","","html-keyboard-response","559","466077","0.0-1.0-803.0","0","0","45682","","null","","","null","89","","","","","","","","","","","","","","","",""
"","ISI","","html-keyboard-response","560","467079","0.0-1.0-804.0","0","0","45682","","null","","","null","89","NaN","","","","","","","","","","","","","","",""
"","S2","","html-keyboard-response","561","467331","0.0-1.0-805.0","0","0","45682","","null","","","null","89","","NaN","","","","","","","","","","","","","",""
"","response","","html-keyboard-response","562","467745","0.0-1.0-806.0-0.0","0","0","45682","","412","","","75","89","","","2","89","training","adjacent","ED","5","4","N.jpg","R.jpg","0","0","1","",""
"","feedback","","html-keyboard-response","563","468747","0.0-1.0-807.0-0.0","0","0","45682","","null","","","null","89","","","","","","","","","","","","","","","",""
"","ITI","","html-keyboard-response","564","469750","0.0-1.0-810.0","0","0","45682","","null","","","null","89","","","","","","","","","","","","","","","NaN",""
"","S1","","html-keyboard-response","565","470003","0.0-1.0-812.0","0","0","45682","","null","","","null","90","","","","","","","","","","","","","","","",""
"","ISI","","html-keyboard-response","566","471005","0.0-1.0-813.0","0","0","45682","","null","","","null","90","NaN","","","","","","","","","","","","","","",""
"","S2","","html-keyboard-response","567","471258","0.0-1.0-814.0","0","0","45682","","null","","","null","90","","NaN","","","","","","","","","","","","","",""
"","response","","html-keyboard-response","568","471619","0.0-1.0-815.0-0.0","0","0","45682","","359","","","68","90","","","2","90","training","adjacent","FE","6","5","O.jpg","N.jpg","1","0","0","",""
"","feedback","","html-keyboard-response","569","472621","0.0-1.0-816.0-0.0","0","0","45682","","null","","","null","90","","","","","","","","","","","","","","","",""
"","time_out","","html-keyboard-response","570","474624","0.0-1.0-818.0-0.0","0","0","45682","","null","","","null","90","","","","","","","","","","","","","","","",""
"","ITI","","html-keyboard-response","571","475626","0.0-1.0-819.0","0","0","45682","","null","","","null","90","","","","","","","","","","","","","","","NaN",""
"","S1","","html-keyboard-response","572","475878","0.0-1.0-821.0","0","0","45682","","null","","","null","91","","","","","","","","","","","","","","","",""
"","ISI","","html-keyboard-response","573","476881","0.0-1.0-822.0","0","0","45682","","null","","","null","91","NaN","","","","","","","","","","","","","","",""
"","S2","","html-keyboard-response","574","477133","0.0-1.0-823.0","0","0","45682","","null","","","null","91","","NaN","","","","","","","","","","","","","",""
"","response","","html-keyboard-response","575","477473","0.0-1.0-824.0-0.0","0","0","45682","","339","","","75","91","","","2","91","training","adjacent","BA","2","1","Q.jpg","M.jpg","0","0","1","",""
"","feedback","","html-keyboard-response","576","478475","0.0-1.0-825.0-0.0","0","0","45682","","null","","","null","91","","","","","","","","","","","","","","","",""
"","ITI","","html-keyboard-response","577","479478","0.0-1.0-828.0","0","0","45682","","null","","","null","91","","","","","","","","","","","","","","","NaN",""
"","S1","","html-keyboard-response","578","479730","0.0-1.0-830.0","0","0","45682","","null","","","null","92","","","","","","","","","","","","","","","",""
"","ISI","","html-keyboard-response","579","480732","0.0-1.0-831.0","0","0","45682","","null","","","null","92","NaN","","","","","","","","","","","","","","",""
"","S2","","html-keyboard-response","580","480986","0.0-1.0-832.0","0","0","45682","","null","","","null","92","","NaN","","","","","","","","","","","","","",""
"","response","","html-keyboard-response","581","481041","0.0-1.0-833.0-0.0","0","0","45682","","54","","","75","92","","","2","92","training","adjacent","GF","7","6","L.jpg","O.jpg","0","0","1","",""
"","feedback","","html-keyboard-response","582","482051","0.0-1.0-834.0-0.0","0","0","45682","","null","","","null","92","","","","","","","","","","","","","","","",""
