"success","ttype","start_time","trial_type","trial_index","time_elapsed","internal_node_id","warning","missed_checkup","PID","view_history","rt","responses","repeat_instructions","key_press","index","keypress_isi","keypress_S2","block","trial_num","phase","group_type","pair_type","S1_stim","S2_stim","S1_img","S2_img","S1_chosen","S1_higher","accuracy","keypress_iti","total_bonus_tally"
"true","full_screen","d03032023hr2246","fullscreen","0","65815","0.0-0.0","0","0","33248","","","","","","","","","","","","","","","","","","","","","",""
"","instructions","","instructions","1","77191","0.0-1.0-0.0-0.0","0","0","33248","[{""page_index"":0,""viewing_time"":5173},{""page_index"":1,""viewing_time"":2100},{""page_index"":2,""viewing_time"":2360},{""page_index"":3,""viewing_time"":1740}]","11374","","","","","","","","","","","","","","","","","","","",""
"","comprehension_check","","survey-multi-choice","2","88211","0.0-1.0-0.0-1.0","0","0","33248","","11012","{""Q0"":""True"",""Q1"":""K"",""Q2"":""Once the second image appears and while the screen 'MAKE A CHOICE' is shown"",""Q3"":""Green mark"",""Q4"":""either D or K""}","1","","","","","","","","","","","","","","","","","",""
"","missed_instruction_checkup","","html-keyboard-response","3","90583","0.0-1.0-0.0-2.0-0.0","0","1","33248","","2365","","","32","","","","","","","","","","","","","","","","",""
"","instructions","","instructions","4","115969","0.0-1.0-0.1-0.1","0","0","33248","[{""page_index"":0,""viewing_time"":2250},{""page_index"":1,""viewing_time"":5884},{""page_index"":2,""viewing_time"":15550},{""page_index"":3,""viewing_time"":1700}]","25384","","","","","","","","","","","","","","","","","","","",""
"","comprehension_check","","survey-multi-choice","5","146449","0.0-1.0-0.1-1.1","0","0","33248","","30473","{""Q0"":""True"",""Q1"":""D"",""Q2"":""Once the second image appears and while the screen 'MAKE A CHOICE' is shown"",""Q3"":""Green mark"",""Q4"":""either D or K""}","0","","","","","","","","","","","","","","","","","",""
"","start_exp","","html-keyboard-response","6","148208","0.0-1.0-1.0","0","0","33248","","1755","","","32","","","","","","","","","","","","","","","","",""
"","S1","","html-keyboard-response","7","148466","0.0-1.0-2.0","0","0","33248","","null","","","null","0","","","","","","","","","","","","","","","",""
"","ISI","","html-keyboard-response","8","148975","0.0-1.0-3.0","0","0","33248","","null","","","null","0","NaN","","","","","","","","","","","","","","",""
"","S2","","html-keyboard-response","9","149231","0.0-1.0-4.0","0","0","33248","","null","","","null","0","","NaN","","","","","","","","","","","","","",""
"","response","","html-keyboard-response","10","150938","0.0-1.0-5.0-0.0","0","0","33248","","1704","","","75","0","","","1","0","training","adjacent","CD","3","4","N.jpg","P.jpg","0","1","0","",""
"","feedback","","html-keyboard-response","11","152162","0.0-1.0-6.0-0.0","0","0","33248","","null","","","null","0","","","","","","","","","","","","","","","",""
"","time_out","","html-keyboard-response","12","154167","0.0-1.0-8.0-0.0","0","0","33248","","null","","","null","0","","","","","","","","","","","","","","","",""
"","ITI","","html-keyboard-response","13","155277","0.0-1.0-9.0","0","0","33248","","388","","","68","0","","","","","","","","","","","","","","","d",""
"","S1","","html-keyboard-response","14","155535","0.0-1.0-11.0","0","0","33248","","null","","","null","1","","","","","","","","","","","","","","","",""
"","ISI","","html-keyboard-response","15","156067","0.0-1.0-12.0","0","0","33248","","null","","","null","1","NaN","","","","","","","","","","","","","","",""
"","S2","","html-keyboard-response","16","156329","0.0-1.0-13.0","0","0","33248","","259","","","68","1","","d","1","1","training","adjacent","BA","2","1","M.jpg","L.jpg","1","0","0","",""
"","feedback","","html-keyboard-response","17","157335","0.0-1.0-15.0-0.0","0","0","33248","","null","","","null","1","","","","","","","","","","","","","","","",""
"","time_out","","html-keyboard-response","18","159343","0.0-1.0-17.0-0.0","0","0","33248","","null","","","null","1","","","","","","","","","","","","","","","",""
"","ITI","","html-keyboard-response","19","160352","0.0-1.0-18.0","0","0","33248","","null","","","null","1","","","","","","","","","","","","","","","NaN",""
"","S1","","html-keyboard-response","20","160608","0.0-1.0-20.0","0","0","33248","","null","","","null","2","","","","","","","","","","","","","","","",""
"","ISI","","html-keyboard-response","21","161241","0.0-1.0-21.0","0","0","33248","","629","","","75","2","k","","","","","","","","","","","","","","",""
"","S2","","html-keyboard-response","22","161496","0.0-1.0-22.0","0","0","33248","","null","","","null","2","","NaN","","","","","","","","","","","","","",""
"","response","","html-keyboard-response","23","162603","0.0-1.0-23.0-0.0","0","0","33248","","1102","","","75","2","","","1","2","training","adjacent","BA","2","1","M.jpg","L.jpg","0","0","1","",""
"","feedback","","html-keyboard-response","24","163608","0.0-1.0-24.0-0.0","0","0","33248","","null","","","null","2","","","","","","","","","","","","","","","",""
"","ITI","","html-keyboard-response","25","164617","0.0-1.0-27.0","0","0","33248","","null","","","null","2","","","","","","","","","","","","","","","NaN",""
"","S1","","html-keyboard-response","26","165055","0.0-1.0-29.0","0","0","33248","","null","","","null","3","","","","","","","","","","","","","","","",""
"","ISI","","html-keyboard-response","27","165560","0.0-1.0-30.0","0","0","33248","","null","","","null","3","NaN","","","","","","","","","","","","","","",""
"","S2","","html-keyboard-response","28","165816","0.0-1.0-31.0","0","0","33248","","null","","","null","3","","NaN","","","","","","","","","","","","","",""
"","response","","html-keyboard-response","29","165818","0.0-1.0-32.0-0.0","0","0","33248","","0","","","75","3","","","1","3","training","adjacent","GF","7","6","Q.jpg","R.jpg","0","0","1","",""
"","feedback","","html-keyboard-response","30","166824","0.0-1.0-33.0-0.0","0","0","33248","","null","","","null","3","","","","","","","","","","","","","","","",""
"","ITI","","html-keyboard-response","31","167832","0.0-1.0-36.0","0","0","33248","","null","","","null","3","","","","","","","","","","","","","","","NaN",""
"","S1","","html-keyboard-response","32","168088","0.0-1.0-38.0","0","0","33248","","null","","","null","4","","","","","","","","","","","","","","","",""
"","ISI","","html-keyboard-response","33","168592","0.0-1.0-39.0","0","0","33248","","null","","","null","4","NaN","","","","","","","","","","","","","","",""
"","S2","","html-keyboard-response","34","168848","0.0-1.0-40.0","0","0","33248","","null","","","null","4","","NaN","","","","","","","","","","","","","",""
"","response","","html-keyboard-response","35","168993","0.0-1.0-41.0-0.0","0","0","33248","","142","","","68","4","","","1","4","training","adjacent","EF","5","6","O.jpg","R.jpg","1","1","1","",""
"","feedback","","html-keyboard-response","36","170122","0.0-1.0-42.0-0.0","0","0","33248","","null","","","null","4","","","","","","","","","","","","","","","",""
"","ITI","","html-keyboard-response","37","171129","0.0-1.0-45.0","0","0","33248","","null","","","null","4","","","","","","","","","","","","","","","NaN",""
"","S1","","html-keyboard-response","38","171391","0.0-1.0-47.0","0","0","33248","","null","","","null","5","","","","","","","","","","","","","","","",""
"","ISI","","html-keyboard-response","39","171895","0.0-1.0-48.0","0","0","33248","","null","","","null","5","NaN","","","","","","","","","","","","","","",""
"","S2","","html-keyboard-response","40","172151","0.0-1.0-49.0","0","0","33248","","null","","","null","5","","NaN","","","","","","","","","","","","","",""
"","response","","html-keyboard-response","41","172587","0.0-1.0-50.0-0.0","0","0","33248","","433","","","75","5","","","1","5","training","adjacent","DE","4","5","P.jpg","O.jpg","0","1","0","",""
"","feedback","","html-keyboard-response","42","173592","0.0-1.0-51.0-0.0","0","0","33248","","null","","","null","5","","","","","","","","","","","","","","","",""
"","time_out","","html-keyboard-response","43","175599","0.0-1.0-53.0-0.0","0","0","33248","","null","","","null","5","","","","","","","","","","","","","","","",""
"","ITI","","html-keyboard-response","44","176608","0.0-1.0-54.0","0","0","33248","","null","","","null","5","","","","","","","","","","","","","","","NaN",""
"","S1","","html-keyboard-response","45","176866","0.0-1.0-56.0","0","0","33248","","null","","","null","6","","","","","","","","","","","","","","","",""
"","ISI","","html-keyboard-response","46","177375","0.0-1.0-57.0","0","0","33248","","null","","","null","6","NaN","","","","","","","","","","","","","","",""
"","S2","","html-keyboard-response","47","177557","0.0-1.0-58.0","0","0","33248","","179","","","68","6","","d","1","6","training","adjacent","FE","6","5","R.jpg","O.jpg","1","0","0","",""
"","feedback","","html-keyboard-response","48","179588","0.0-1.0-60.0-0.0","0","0","33248","","null","","","null","6","","","","","","","","","","","","","","","",""
"","time_out","","html-keyboard-response","49","181592","0.0-1.0-62.0-0.0","0","0","33248","","null","","","null","6","","","","","","","","","","","","","","","",""
"","ITI","","html-keyboard-response","50","182599","0.0-1.0-63.0","0","0","33248","","null","","","null","6","","","","","","","","","","","","","","","NaN",""
"","S1","","html-keyboard-response","51","182856","0.0-1.0-65.0","0","0","33248","","null","","","null","7","","","","","","","","","","","","","","","",""
"","ISI","","html-keyboard-response","52","183360","0.0-1.0-66.0","0","0","33248","","null","","","null","7","NaN","","","","","","","","","","","","","","",""
"","S2","","html-keyboard-response","53","183615","0.0-1.0-67.0","0","0","33248","","null","","","null","7","","NaN","","","","","","","","","","","","","",""
"","response","","html-keyboard-response","54","183767","0.0-1.0-68.0-0.0","0","0","33248","","149","","","75","7","","","1","7","training","adjacent","FG","6","7","R.jpg","Q.jpg","0","1","0","",""
"","feedback","","html-keyboard-response","55","184775","0.0-1.0-69.0-0.0","0","0","33248","","null","","","null","7","","","","","","","","","","","","","","","",""
"","time_out","","html-keyboard-response","56","186797","0.0-1.0-71.0-0.0","0","0","33248","","null","","","null","7","","","","","","","","","","","","","","","",""
"","ITI","","html-keyboard-response","57","187808","0.0-1.0-72.0","0","0","33248","","null","","","null","7","","","","","","","","","","","","","","","NaN",""
"","S1","","html-keyboard-response","58","188064","0.0-1.0-74.0","0","0","33248","","null","","","null","8","","","","","","","","","","","","","","","",""
"","ISI","","html-keyboard-response","59","188568","0.0-1.0-75.0","0","0","33248","","null","","","null","8","NaN","","","","","","","","","","","","","","",""
"","S2","","html-keyboard-response","60","188824","0.0-1.0-76.0","0","0","33248","","null","","","null","8","","NaN","","","","","","","","","","","","","",""
"","response","","html-keyboard-response","61","189216","0.0-1.0-77.0-0.0","0","0","33248","","390","","","68","8","","","1","8","training","adjacent","DC","4","3","P.jpg","N.jpg","1","0","0","",""
"","feedback","","html-keyboard-response","62","190223","0.0-1.0-78.0-0.0","0","0","33248","","null","","","null","8","","","","","","","","","","","","","","","",""
"","time_out","","html-keyboard-response","63","192232","0.0-1.0-80.0-0.0","0","0","33248","","null","","","null","8","","","","","","","","","","","","","","","",""
"","ITI","","html-keyboard-response","64","193240","0.0-1.0-81.0","0","0","33248","","null","","","null","8","","","","","","","","","","","","","","","NaN",""
"","S1","","html-keyboard-response","65","193497","0.0-1.0-83.0","0","0","33248","","null","","","null","9","","","","","","","","","","","","","","","",""
"","ISI","","html-keyboard-response","66","194008","0.0-1.0-84.0","0","0","33248","","null","","","null","9","NaN","","","","","","","","","","","","","","",""
"","S2","","html-keyboard-response","67","194266","0.0-1.0-85.0","0","0","33248","","null","","","null","9","","NaN","","","","","","","","","","","","","",""
"","response","","html-keyboard-response","68","195269","0.0-1.0-86.0-0.0","0","0","33248","","1000","","","75","9","","","1","9","training","adjacent","DE","4","5","P.jpg","O.jpg","0","1","0","",""
"","feedback","","html-keyboard-response","69","196280","0.0-1.0-87.0-0.0","0","0","33248","","null","","","null","9","","","","","","","","","","","","","","","",""
"","time_out","","html-keyboard-response","70","198288","0.0-1.0-89.0-0.0","0","0","33248","","null","","","null","9","","","","","","","","","","","","","","","",""
"","ITI","","html-keyboard-response","71","199302","0.0-1.0-90.0","0","0","33248","","null","","","null","9","","","","","","","","","","","","","","","NaN",""
"","S1","","html-keyboard-response","72","199561","0.0-1.0-92.0","0","0","33248","","null","","","null","10","","","","","","","","","","","","","","","",""
"","ISI","","html-keyboard-response","73","200073","0.0-1.0-93.0","0","0","33248","","null","","","null","10","NaN","","","","","","","","","","","","","","",""
"","S2","","html-keyboard-response","74","200328","0.0-1.0-94.0","0","0","33248","","null","","","null","10","","NaN","","","","","","","","","","","","","",""
"","response","","html-keyboard-response","75","201626","0.0-1.0-95.0-0.0","0","0","33248","","1295","","","75","10","","","1","10","training","adjacent","CD","3","4","N.jpg","P.jpg","0","1","0","",""
"","feedback","","html-keyboard-response","76","202631","0.0-1.0-96.0-0.0","0","0","33248","","null","","","null","10","","","","","","","","","","","","","","","",""
"","time_out","","html-keyboard-response","77","204640","0.0-1.0-98.0-0.0","0","0","33248","","null","","","null","10","","","","","","","","","","","","","","","",""
"","ITI","","html-keyboard-response","78","205647","0.0-1.0-99.0","0","0","33248","","null","","","null","10","","","","","","","","","","","","","","","NaN",""
"","S1","","html-keyboard-response","79","205904","0.0-1.0-101.0","0","0","33248","","null","","","null","11","","","","","","","","","","","","","","","",""
"","ISI","","html-keyboard-response","80","206407","0.0-1.0-102.0","0","0","33248","","null","","","null","11","NaN","","","","","","","","","","","","","","",""
"","S2","","html-keyboard-response","81","206664","0.0-1.0-103.0","0","0","33248","","null","","","null","11","","NaN","","","","","","","","","","","","","",""
"","response","","html-keyboard-response","82","207626","0.0-1.0-104.0-0.0","0","0","33248","","959","","","75","11","","","1","11","training","adjacent","FE","6","5","R.jpg","O.jpg","0","0","1","",""
"","feedback","","html-keyboard-response","83","208631","0.0-1.0-105.0-0.0","0","0","33248","","null","","","null","11","","","","","","","","","","","","","","","",""
"","ITI","","html-keyboard-response","84","209640","0.0-1.0-108.0","0","0","33248","","null","","","null","11","","","","","","","","","","","","","","","NaN",""
"","S1","","html-keyboard-response","85","209895","0.0-1.0-110.0","0","0","33248","","null","","","null","12","","","","","","","","","","","","","","","",""
"","ISI","","html-keyboard-response","86","210400","0.0-1.0-111.0","0","0","33248","","null","","","null","12","NaN","","","","","","","","","","","","","","",""
"","S2","","html-keyboard-response","87","210656","0.0-1.0-112.0","0","0","33248","","null","","","null","12","","NaN","","","","","","","","","","","","","",""
"","response","","html-keyboard-response","88","211725","0.0-1.0-113.0-0.0","0","0","33248","","1067","","","68","12","","","1","12","training","adjacent","FG","6","7","R.jpg","Q.jpg","1","1","1","",""
"","feedback","","html-keyboard-response","89","212736","0.0-1.0-114.0-0.0","0","0","33248","","null","","","null","12","","","","","","","","","","","","","","","",""
"","ITI","","html-keyboard-response","90","213744","0.0-1.0-117.0","0","0","33248","","null","","","null","12","","","","","","","","","","","","","","","NaN",""
"","S1","","html-keyboard-response","91","213999","0.0-1.0-119.0","0","0","33248","","null","","","null","13","","","","","","","","","","","","","","","",""
"","ISI","","html-keyboard-response","92","214504","0.0-1.0-120.0","0","0","33248","","null","","","null","13","NaN","","","","","","","","","","","","","","",""
"","S2","","html-keyboard-response","93","214759","0.0-1.0-121.0","0","0","33248","","null","","","null","13","","NaN","","","","","","","","","","","","","",""
"","response","","html-keyboard-response","94","215333","0.0-1.0-122.0-0.0","0","0","33248","","571","","","68","13","","","1","13","training","adjacent","AB","1","2","L.jpg","M.jpg","1","1","1","",""
"","feedback","","html-keyboard-response","95","216950","0.0-1.0-123.0-0.0","0","0","33248","","null","","","null","13","","","","","","","","","","","","","","","",""
"","ITI","","html-keyboard-response","96","217960","0.0-1.0-126.0","0","0","33248","","null","","","null","13","","","","","","","","","","","","","","","NaN",""
"","S1","","html-keyboard-response","97","218216","0.0-1.0-128.0","0","0","33248","","null","","","null","14","","","","","","","","","","","","","","","",""
"","ISI","","html-keyboard-response","98","218719","0.0-1.0-129.0","0","0","33248","","null","","","null","14","NaN","","","","","","","","","","","","","","",""
"","S2","","html-keyboard-response","99","219249","0.0-1.0-130.0","0","0","33248","","null","","","null","14","","NaN","","","","","","","","","","","","","",""
"","response","","html-keyboard-response","100","219645","0.0-1.0-131.0-0.0","0","0","33248","","394","","","68","14","","","1","14","training","adjacent","CD","3","4","N.jpg","P.jpg","1","1","1","",""
"","feedback","","html-keyboard-response","101","220664","0.0-1.0-132.0-0.0","0","0","33248","","null","","","null","14","","","","","","","","","","","","","","","",""
"","ITI","","html-keyboard-response","102","221672","0.0-1.0-135.0","0","0","33248","","null","","","null","14","","","","","","","","","","","","","","","NaN",""
"","S1","","html-keyboard-response","103","221928","0.0-1.0-137.0","0","0","33248","","null","","","null","15","","","","","","","","","","","","","","","",""
"","ISI","","html-keyboard-response","104","222432","0.0-1.0-138.0","0","0","33248","","null","","","null","15","NaN","","","","","","","","","","","","","","",""
"","S2","","html-keyboard-response","105","222688","0.0-1.0-139.0","0","0","33248","","null","","","null","15","","NaN","","","","","","","","","","","","","",""
"","response","","html-keyboard-response","106","223175","0.0-1.0-140.0-0.0","0","0","33248","","485","","","68","15","","","1","15","training","adjacent","CD","3","4","N.jpg","P.jpg","1","1","1","",""
"","feedback","","html-keyboard-response","107","224187","0.0-1.0-141.0-0.0","0","0","33248","","null","","","null","15","","","","","","","","","","","","","","","",""
"","ITI","","html-keyboard-response","108","225192","0.0-1.0-144.0","0","0","33248","","null","","","null","15","","","","","","","","","","","","","","","NaN",""
"","S1","","html-keyboard-response","109","225476","0.0-1.0-146.0","0","0","33248","","null","","","null","16","","","","","","","","","","","","","","","",""
"","ISI","","html-keyboard-response","110","225983","0.0-1.0-147.0","0","0","33248","","null","","","null","16","NaN","","","","","","","","","","","","","","",""
"","S2","","html-keyboard-response","111","226216","0.0-1.0-148.0","0","0","33248","","231","","","68","16","","d","1","16","training","adjacent","EF","5","6","O.jpg","R.jpg","1","1","1","",""
"","feedback","","html-keyboard-response","112","227224","0.0-1.0-150.0-0.0","0","0","33248","","null","","","null","16","","","","","","","","","","","","","","","",""
"","ITI","","html-keyboard-response","113","228232","0.0-1.0-153.0","0","0","33248","","null","","","null","16","","","","","","","","","","","","","","","NaN",""
"","S1","","html-keyboard-response","114","228507","0.0-1.0-155.0","0","0","33248","","null","","","null","17","","","","","","","","","","","","","","","",""
"","ISI","","html-keyboard-response","115","229015","0.0-1.0-156.0","0","0","33248","","null","","","null","17","NaN","","","","","","","","","","","","","","",""
"","S2","","html-keyboard-response","116","229272","0.0-1.0-157.0","0","0","33248","","null","","","null","17","","NaN","","","","","","","","","","","","","",""
"","response","","html-keyboard-response","117","229295","0.0-1.0-158.0-0.0","0","0","33248","","20","","","75","17","","","1","17","training","adjacent","GF","7","6","Q.jpg","R.jpg","0","0","1","",""
"","feedback","","html-keyboard-response","118","230303","0.0-1.0-159.0-0.0","0","0","33248","","null","","","null","17","","","","","","","","","","","","","","","",""
"","ITI","","html-keyboard-response","119","231476","0.0-1.0-162.0","0","0","33248","","null","","","null","17","","","","","","","","","","","","","","","NaN",""
"","S1","","html-keyboard-response","120","231736","0.0-1.0-164.0","0","0","33248","","null","","","null","18","","","","","","","","","","","","","","","",""
"","ISI","","html-keyboard-response","121","232239","0.0-1.0-165.0","0","0","33248","","256","","","75","18","k","","","","","","","","","","","","","","",""
"","S2","","html-keyboard-response","122","232496","0.0-1.0-166.0","0","0","33248","","null","","","null","18","","NaN","","","","","","","","","","","","","",""
"","response","","html-keyboard-response","123","233305","0.0-1.0-167.0-0.0","0","0","33248","","806","","","68","18","","","1","18","training","adjacent","EF","5","6","O.jpg","R.jpg","1","1","1","",""
"","feedback","","html-keyboard-response","124","234501","0.0-1.0-168.0-0.0","0","0","33248","","null","","","null","18","","","","","","","","","","","","","","","",""
"","ITI","","html-keyboard-response","125","235511","0.0-1.0-171.0","0","0","33248","","null","","","null","18","","","","","","","","","","","","","","","NaN",""
"","S1","","html-keyboard-response","126","235767","0.0-1.0-173.0","0","0","33248","","null","","","null","19","","","","","","","","","","","","","","","",""
"","ISI","","html-keyboard-response","127","236272","0.0-1.0-174.0","0","0","33248","","null","","","null","19","NaN","","","","","","","","","","","","","","",""
"","S2","","html-keyboard-response","128","236527","0.0-1.0-175.0","0","0","33248","","null","","","null","19","","NaN","","","","","","","","","","","","","",""
"","response","","html-keyboard-response","129","236714","0.0-1.0-176.0-0.0","0","0","33248","","185","","","75","19","","","1","19","training","adjacent","GF","7","6","Q.jpg","R.jpg","0","0","1","",""
"","feedback","","html-keyboard-response","130","237720","0.0-1.0-177.0-0.0","0","0","33248","","null","","","null","19","","","","","","","","","","","","","","","",""
"","ITI","","html-keyboard-response","131","238728","0.0-1.0-180.0","0","0","33248","","null","","","null","19","","","","","","","","","","","","","","","NaN",""
"","S1","","html-keyboard-response","132","238984","0.0-1.0-182.0","0","0","33248","","null","","","null","20","","","","","","","","","","","","","","","",""
"","ISI","","html-keyboard-response","133","239515","0.0-1.0-183.0","0","0","33248","","null","","","null","20","NaN","","","","","","","","","","","","","","",""
"","S2","","html-keyboard-response","134","239776","0.0-1.0-184.0","0","0","33248","","null","","","null","20","","NaN","","","","","","","","","","","","","",""
"","response","","html-keyboard-response","135","240916","0.0-1.0-185.0-0.0","0","0","33248","","1138","","","75","20","","","1","20","training","adjacent","DE","4","5","P.jpg","O.jpg","0","1","0","",""
"","feedback","","html-keyboard-response","136","241928","0.0-1.0-186.0-0.0","0","0","33248","","null","","","null","20","","","","","","","","","","","","","","","",""
"","time_out","","html-keyboard-response","137","244197","0.0-1.0-188.0-0.0","0","0","33248","","null","","","null","20","","","","","","","","","","","","","","","",""
"","ITI","","html-keyboard-response","138","245208","0.0-1.0-189.0","0","0","33248","","null","","","null","20","","","","","","","","","","","","","","","NaN",""
"","S1","","html-keyboard-response","139","245465","0.0-1.0-191.0","0","0","33248","","null","","","null","21","","","","","","","","","","","","","","","",""
"","ISI","","html-keyboard-response","140","245975","0.0-1.0-192.0","0","0","33248","","null","","","null","21","NaN","","","","","","","","","","","","","","",""
"","S2","","html-keyboard-response","141","246154","0.0-1.0-193.0","0","0","33248","","177","","","68","21","","d","1","21","training","adjacent","ED","5","4","O.jpg","P.jpg","1","0","0","",""
"","feedback","","html-keyboard-response","142","247159","0.0-1.0-195.0-0.0","0","0","33248","","null","","","null","21","","","","","","","","","","","","","","","",""
"","time_out","","html-keyboard-response","143","249174","0.0-1.0-197.0-0.0","0","0","33248","","null","","","null","21","","","","","","","","","","","","","","","",""
"","ITI","","html-keyboard-response","144","250189","0.0-1.0-198.0","0","0","33248","","null","","","null","21","","","","","","","","","","","","","","","NaN",""
"","S1","","html-keyboard-response","145","250448","0.0-1.0-200.0","0","0","33248","","null","","","null","22","","","","","","","","","","","","","","","",""
"","ISI","","html-keyboard-response","146","250962","0.0-1.0-201.0","0","0","33248","","null","","","null","22","NaN","","","","","","","","","","","","","","",""
"","S2","","html-keyboard-response","147","251459","0.0-1.0-202.0","0","0","33248","","null","","","null","22","","NaN","","","","","","","","","","","","","",""
"","response","","html-keyboard-response","148","252374","0.0-1.0-203.0-0.0","0","0","33248","","913","","","68","22","","","1","22","training","adjacent","FE","6","5","R.jpg","O.jpg","1","0","0","",""
"","feedback","","html-keyboard-response","149","253384","0.0-1.0-204.0-0.0","0","0","33248","","null","","","null","22","","","","","","","","","","","","","","","",""
"","time_out","","html-keyboard-response","150","255408","0.0-1.0-206.0-0.0","0","0","33248","","null","","","null","22","","","","","","","","","","","","","","","",""
"","ITI","","html-keyboard-response","151","256450","0.0-1.0-207.0","0","0","33248","","null","","","null","22","","","","","","","","","","","","","","","NaN",""
"","S1","","html-keyboard-response","152","256703","0.0-1.0-209.0","0","0","33248","","null","","","null","23","","","","","","","","","","","","","","","",""
"","ISI","","html-keyboard-response","153","257208","0.0-1.0-210.0","0","0","33248","","null","","","null","23","NaN","","","","","","","","","","","","","","",""
"","S2","","html-keyboard-response","154","257471","0.0-1.0-211.0","0","0","33248","","null","","","null","23","","NaN","","","","","","","","","","","","","",""
"","response","","html-keyboard-response","155","258233","0.0-1.0-212.0-0.0","0","0","33248","","759","","","68","23","","","1","23","training","adjacent","CB","3","2","N.jpg","M.jpg","1","0","0","",""
"","feedback","","html-keyboard-response","156","259239","0.0-1.0-213.0-0.0","0","0","33248","","null","","","null","23","","","","","","","","","","","","","","","",""
"","time_out","","html-keyboard-response","157","261247","0.0-1.0-215.0-0.0","0","0","33248","","null","","","null","23","","","","","","","","","","","","","","","",""
"","ITI","","html-keyboard-response","158","262255","0.0-1.0-216.0","0","0","33248","","null","","","null","23","","","","","","","","","","","","","","","NaN",""
"","S1","","html-keyboard-response","159","262512","0.0-1.0-218.0","0","0","33248","","null","","","null","24","","","","","","","","","","","","","","","",""
"","ISI","","html-keyboard-response","160","263016","0.0-1.0-219.0","0","0","33248","","null","","","null","24","NaN","","","","","","","","","","","","","","",""
"","S2","","html-keyboard-response","161","263273","0.0-1.0-220.0","0","0","33248","","null","","","null","24","","NaN","","","","","","","","","","","","","",""
"","response","","html-keyboard-response","162","263313","0.0-1.0-221.0-0.0","0","0","33248","","38","","","68","24","","","1","24","training","adjacent","ED","5","4","O.jpg","P.jpg","1","0","0","",""
"","feedback","","html-keyboard-response","163","264320","0.0-1.0-222.0-0.0","0","0","33248","","null","","","null","24","","","","","","","","","","","","","","","",""
"","time_out","","html-keyboard-response","164","266376","0.0-1.0-224.0-0.0","0","0","33248","","null","","","null","24","","","","","","","","","","","","","","","",""
"","ITI","","html-keyboard-response","165","267383","0.0-1.0-225.0","0","0","33248","","null","","","null","24","","","","","","","","","","","","","","","NaN",""
"","S1","","html-keyboard-response","166","267640","0.0-1.0-227.0","0","0","33248","","null","","","null","25","","","","","","","","","","","","","","","",""
"","ISI","","html-keyboard-response","167","268143","0.0-1.0-228.0","0","0","33248","","null","","","null","25","NaN","","","","","","","","","","","","","","",""
"","S2","","html-keyboard-response","168","268401","0.0-1.0-229.0","0","0","33248","","null","","","null","25","","NaN","","","","","","","","","","","","","",""
"","response","","html-keyboard-response","169","268693","0.0-1.0-230.0-0.0","0","0","33248","","291","","","75","25","","","1","25","training","adjacent","BA","2","1","M.jpg","L.jpg","0","0","1","",""
"","feedback","","html-keyboard-response","170","269704","0.0-1.0-231.0-0.0","0","0","33248","","null","","","null","25","","","","","","","","","","","","","","","",""
"","ITI","","html-keyboard-response","171","270712","0.0-1.0-234.0","0","0","33248","","null","","","null","25","","","","","","","","","","","","","","","NaN",""
"","S1","","html-keyboard-response","172","270969","0.0-1.0-236.0","0","0","33248","","null","","","null","26","","","","","","","","","","","","","","","",""
"","ISI","","html-keyboard-response","173","271480","0.0-1.0-237.0","0","0","33248","","null","","","null","26","NaN","","","","","","","","","","","","","","",""
"","S2","","html-keyboard-response","174","271735","0.0-1.0-238.0","0","0","33248","","null","","","null","26","","NaN","","","","","","","","","","","","","",""
"","response","","html-keyboard-response","175","271823","0.0-1.0-239.0-0.0","0","0","33248","","86","","","75","26","","","1","26","training","adjacent","BC","2","3","M.jpg","N.jpg","0","1","0","",""
"","feedback","","html-keyboard-response","176","272845","0.0-1.0-240.0-0.0","0","0","33248","","null","","","null","26","","","","","","","","","","","","","","","",""
"","time_out","","html-keyboard-response","177","274855","0.0-1.0-242.0-0.0","0","0","33248","","null","","","null","26","","","","","","","","","","","","","","","",""
"","ITI","","html-keyboard-response","178","275906","0.0-1.0-243.0","0","0","33248","","null","","","null","26","","","","","","","","","","","","","","","NaN",""
"","S1","","html-keyboard-response","179","276168","0.0-1.0-245.0","0","0","33248","","null","","","null","27","","","","","","","","","","","","","","","",""
"","ISI","","html-keyboard-response","180","276672","0.0-1.0-246.0","0","0","33248","","null","","","null","27","NaN","","","","","","","","","","","","","","",""
"","S2","","html-keyboard-response","181","276927","0.0-1.0-247.0","0","0","33248","","null","","","null","27","","NaN","","","","","","","","","","","","","",""
"","response","","html-keyboard-response","182","277823","0.0-1.0-248.0-0.0","0","0","33248","","894","","","75","27","","","1","27","training","adjacent","DC","4","3","P.jpg","N.jpg","0","0","1","",""
"","feedback","","html-keyboard-response","183","278832","0.0-1.0-249.0-0.0","0","0","33248","","null","","","null","27","","","","","","","","","","","","","","","",""
"","ITI","","html-keyboard-response","184","279840","0.0-1.0-252.0","0","0","33248","","null","","","null","27","","","","","","","","","","","","","","","NaN",""
"","S1","","html-keyboard-response","185","280303","0.0-1.0-254.0","0","0","33248","","null","","","null","28","","","","","","","","","","","","","","","",""
"","ISI","","html-keyboard-response","186","280808","0.0-1.0-255.0","0","0","33248","","null","","","null","28","NaN","","","","","","","","","","","","","","",""
"","S2","","html-keyboard-response","187","281065","0.0-1.0-256.0","0","0","33248","","null","","","null","28","","NaN","","","","","","","","","","","","","",""
"","response","","html-keyboard-response","188","281474","0.0-1.0-257.0-0.0","0","0","33248","","406","","","75","28","","","1","28","training","adjacent","BC","2","3","M.jpg","N.jpg","0","1","0","",""
"","feedback","","html-keyboard-response","189","282480","0.0-1.0-258.0-0.0","0","0","33248","","null","","","null","28","","","","","","","","","","","","","","","",""
"","time_out","","html-keyboard-response","190","284489","0.0-1.0-260.0-0.0","0","0","33248","","null","","","null","28","","","","","","","","","","","","","","","",""
"","ITI","","html-keyboard-response","191","285497","0.0-1.0-261.0","0","0","33248","","null","","","null","28","","","","","","","","","","","","","","","NaN",""
"","S1","","html-keyboard-response","192","285752","0.0-1.0-263.0","0","0","33248","","null","","","null","29","","","","","","","","","","","","","","","",""
"","ISI","","html-keyboard-response","193","286255","0.0-1.0-264.0","0","0","33248","","null","","","null","29","NaN","","","","","","","","","","","","","","",""
"","S2","","html-keyboard-response","194","286513","0.0-1.0-265.0","0","0","33248","","null","","","null","29","","NaN","","","","","","","","","","","","","",""
"","response","","html-keyboard-response","195","287663","0.0-1.0-266.0-0.0","0","0","33248","","1148","","","68","29","","","1","29","training","adjacent","FG","6","7","R.jpg","Q.jpg","1","1","1","",""
"","feedback","","html-keyboard-response","196","288867","0.0-1.0-267.0-0.0","0","0","33248","","null","","","null","29","","","","","","","","","","","","","","","",""
"","ITI","","html-keyboard-response","197","289872","0.0-1.0-270.0","0","0","33248","","null","","","null","29","","","","","","","","","","","","","","","NaN",""
"","S1","","html-keyboard-response","198","290128","0.0-1.0-272.0","0","0","33248","","null","","","null","30","","","","","","","","","","","","","","","",""
"","ISI","","html-keyboard-response","199","290640","0.0-1.0-273.0","0","0","33248","","null","","","null","30","NaN","","","","","","","","","","","","","","",""
"","S2","","html-keyboard-response","200","290896","0.0-1.0-274.0","0","0","33248","","null","","","null","30","","NaN","","","","","","","","","","","","","",""
"","response","","html-keyboard-response","201","291723","0.0-1.0-275.0-0.0","0","0","33248","","825","","","68","30","","","1","30","training","adjacent","BA","2","1","M.jpg","L.jpg","1","0","0","",""
"","feedback","","html-keyboard-response","202","292728","0.0-1.0-276.0-0.0","0","0","33248","","null","","","null","30","","","","","","","","","","","","","","","",""
"","time_out","","html-keyboard-response","203","294735","0.0-1.0-278.0-0.0","0","0","33248","","null","","","null","30","","","","","","","","","","","","","","","",""
"","ITI","","html-keyboard-response","204","295744","0.0-1.0-279.0","0","0","33248","","null","","","null","30","","","","","","","","","","","","","","","NaN",""
"","S1","","html-keyboard-response","205","296044","0.0-1.0-281.0","0","0","33248","","null","","","null","31","","","","","","","","","","","","","","","",""
"","ISI","","html-keyboard-response","206","296552","0.0-1.0-282.0","0","0","33248","","null","","","null","31","NaN","","","","","","","","","","","","","","",""
"","S2","","html-keyboard-response","207","296807","0.0-1.0-283.0","0","0","33248","","null","","","null","31","","NaN","","","","","","","","","","","","","",""
"","response","","html-keyboard-response","208","296963","0.0-1.0-284.0-0.0","0","0","33248","","153","","","75","31","","","1","31","training","adjacent","CB","3","2","N.jpg","M.jpg","0","0","1","",""
"","feedback","","html-keyboard-response","209","298228","0.0-1.0-285.0-0.0","0","0","33248","","null","","","null","31","","","","","","","","","","","","","","","",""
"","ITI","","html-keyboard-response","210","299231","0.0-1.0-288.0","0","0","33248","","null","","","null","31","","","","","","","","","","","","","","","NaN",""
"","S1","","html-keyboard-response","211","299487","0.0-1.0-290.0","0","0","33248","","null","","","null","32","","","","","","","","","","","","","","","",""
"","ISI","","html-keyboard-response","212","299992","0.0-1.0-291.0","0","0","33248","","null","","","null","32","NaN","","","","","","","","","","","","","","",""
"","S2","","html-keyboard-response","213","300248","0.0-1.0-292.0","0","0","33248","","null","","","null","32","","NaN","","","","","","","","","","","","","",""
"","response","","html-keyboard-response","214","300302","0.0-1.0-293.0-0.0","0","0","33248","","52","","","68","32","","","1","32","training","adjacent","ED","5","4","O.jpg","P.jpg","1","0","0","",""
"","feedback","","html-keyboard-response","215","301312","0.0-1.0-294.0-0.0","0","0","33248","","null","","","null","32","","","","","","","","","","","","","","","",""
"","time_out","","html-keyboard-response","216","303319","0.0-1.0-296.0-0.0","0","0","33248","","null","","","null","32","","","","","","","","","","","","","","","",""
"","ITI","","html-keyboard-response","217","304328","0.0-1.0-297.0","0","0","33248","","null","","","null","32","","","","","","","","","","","","","","","NaN",""
"","S1","","html-keyboard-response","218","304584","0.0-1.0-299.0","0","0","33248","","null","","","null","33","","","","","","","","","","","","","","","",""
"","ISI","","html-keyboard-response","219","305088","0.0-1.0-300.0","0","0","33248","","null","","","null","33","NaN","","","","","","","","","","","","","","",""
"","S2","","html-keyboard-response","220","305343","0.0-1.0-301.0","0","0","33248","","null","","","null","33","","NaN","","","","","","","","","","","","","",""
"","response","","html-keyboard-response","221","305572","0.0-1.0-302.0-0.0","0","0","33248","","227","","","75","33","","","1","33","training","adjacent","DE","4","5","P.jpg","O.jpg","0","1","0","",""
"","feedback","","html-keyboard-response","222","306584","0.0-1.0-303.0-0.0","0","0","33248","","null","","","null","33","","","","","","","","","","","","","","","",""
"","time_out","","html-keyboard-response","223","308607","0.0-1.0-305.0-0.0","0","0","33248","","null","","","null","33","","","","","","","","","","","","","","","",""
"","ITI","","html-keyboard-response","224","309616","0.0-1.0-306.0","0","0","33248","","null","","","null","33","","","","","","","","","","","","","","","NaN",""
"","S1","","html-keyboard-response","225","309872","0.0-1.0-308.0","0","0","33248","","null","","","null","34","","","","","","","","","","","","","","","",""
"","ISI","","html-keyboard-response","226","310383","0.0-1.0-309.0","0","0","33248","","null","","","null","34","NaN","","","","","","","","","","","","","","",""
"","S2","","html-keyboard-response","227","310640","0.0-1.0-310.0","0","0","33248","","null","","","null","34","","NaN","","","","","","","","","","","","","",""
"","response","","html-keyboard-response","228","311292","0.0-1.0-311.0-0.0","0","0","33248","","649","","","75","34","","","1","34","training","adjacent","AB","1","2","L.jpg","M.jpg","0","1","0","",""
"","feedback","","html-keyboard-response","229","312296","0.0-1.0-312.0-0.0","0","0","33248","","null","","","null","34","","","","","","","","","","","","","","","",""
"","time_out","","html-keyboard-response","230","314303","0.0-1.0-314.0-0.0","0","0","33248","","null","","","null","34","","","","","","","","","","","","","","","",""
"","ITI","","html-keyboard-response","231","315312","0.0-1.0-315.0","0","0","33248","","null","","","null","34","","","","","","","","","","","","","","","NaN",""
"","S1","","html-keyboard-response","232","315568","0.0-1.0-317.0","0","0","33248","","null","","","null","35","","","","","","","","","","","","","","","",""
"","ISI","","html-keyboard-response","233","316091","0.0-1.0-318.0","0","0","33248","","null","","","null","35","NaN","","","","","","","","","","","","","","",""
"","S2","","html-keyboard-response","234","316351","0.0-1.0-319.0","0","0","33248","","null","","","null","35","","NaN","","","","","","","","","","","","","",""
"","response","","html-keyboard-response","235","317061","0.0-1.0-320.0-0.0","0","0","33248","","708","","","75","35","","","1","35","training","adjacent","ED","5","4","O.jpg","P.jpg","0","0","1","",""
"","feedback","","html-keyboard-response","236","318164","0.0-1.0-321.0-0.0","0","0","33248","","null","","","null","35","","","","","","","","","","","","","","","",""
"","ITI","","html-keyboard-response","237","319176","0.0-1.0-324.0","0","0","33248","","null","","","null","35","","","","","","","","","","","","","","","NaN",""
"","S1","","html-keyboard-response","238","319432","0.0-1.0-326.0","0","0","33248","","null","","","null","36","","","","","","","","","","","","","","","",""
"","ISI","","html-keyboard-response","239","319935","0.0-1.0-327.0","0","0","33248","","null","","","null","36","NaN","","","","","","","","","","","","","","",""
"","S2","","html-keyboard-response","240","320191","0.0-1.0-328.0","0","0","33248","","null","","","null","36","","NaN","","","","","","","","","","","","","",""
"","response","","html-keyboard-response","241","321234","0.0-1.0-329.0-0.0","0","0","33248","","1040","","","68","36","","","1","36","training","adjacent","FG","6","7","R.jpg","Q.jpg","1","1","1","",""
"","feedback","","html-keyboard-response","242","322240","0.0-1.0-330.0-0.0","0","0","33248","","null","","","null","36","","","","","","","","","","","","","","","",""
"","ITI","","html-keyboard-response","243","323255","0.0-1.0-333.0","0","0","33248","","null","","","null","36","","","","","","","","","","","","","","","NaN",""
"","S1","","html-keyboard-response","244","323511","0.0-1.0-335.0","0","0","33248","","null","","","null","37","","","","","","","","","","","","","","","",""
"","ISI","","html-keyboard-response","245","324015","0.0-1.0-336.0","0","0","33248","","null","","","null","37","NaN","","","","","","","","","","","","","","",""
"","S2","","html-keyboard-response","246","324272","0.0-1.0-337.0","0","0","33248","","null","","","null","37","","NaN","","","","","","","","","","","","","",""
"","response","","html-keyboard-response","247","325462","0.0-1.0-338.0-0.0","0","0","33248","","1187","","","68","37","","","1","37","training","adjacent","CB","3","2","N.jpg","M.jpg","1","0","0","",""
"","feedback","","html-keyboard-response","248","326472","0.0-1.0-339.0-0.0","0","0","33248","","null","","","null","37","","","","","","","","","","","","","","","",""
"","time_out","","html-keyboard-response","249","328479","0.0-1.0-341.0-0.0","0","0","33248","","null","","","null","37","","","","","","","","","","","","","","","",""
"","ITI","","html-keyboard-response","250","329488","0.0-1.0-342.0","0","0","33248","","null","","","null","37","","","","","","","","","","","","","","","NaN",""
"","S1","","html-keyboard-response","251","329744","0.0-1.0-344.0","0","0","33248","","null","","","null","38","","","","","","","","","","","","","","","",""
"","ISI","","html-keyboard-response","252","330321","0.0-1.0-345.0","0","0","33248","","null","","","null","38","NaN","","","","","","","","","","","","","","",""
"","S2","","html-keyboard-response","253","330575","0.0-1.0-346.0","0","0","33248","","null","","","null","38","","NaN","","","","","","","","","","","","","",""
"","response","","html-keyboard-response","254","330971","0.0-1.0-347.0-0.0","0","0","33248","","394","","","68","38","","","1","38","training","adjacent","AB","1","2","L.jpg","M.jpg","1","1","1","",""
"","feedback","","html-keyboard-response","255","331975","0.0-1.0-348.0-0.0","0","0","33248","","null","","","null","38","","","","","","","","","","","","","","","",""
"","ITI","","html-keyboard-response","256","333123","0.0-1.0-351.0","0","0","33248","","null","","","null","38","","","","","","","","","","","","","","","NaN",""
"","S1","","html-keyboard-response","257","333384","0.0-1.0-353.0","0","0","33248","","null","","","null","39","","","","","","","","","","","","","","","",""
"","ISI","","html-keyboard-response","258","333888","0.0-1.0-354.0","0","0","33248","","null","","","null","39","NaN","","","","","","","","","","","","","","",""
"","S2","","html-keyboard-response","259","334152","0.0-1.0-355.0","0","0","33248","","null","","","null","39","","NaN","","","","","","","","","","","","","",""
"","response","","html-keyboard-response","260","335391","0.0-1.0-356.0-0.0","0","0","33248","","1236","","","75","39","","","1","39","training","adjacent","DC","4","3","P.jpg","N.jpg","0","0","1","",""
"","feedback","","html-keyboard-response","261","336400","0.0-1.0-357.0-0.0","0","0","33248","","null","","","null","39","","","","","","","","","","","","","","","",""
"","ITI","","html-keyboard-response","262","337407","0.0-1.0-360.0","0","0","33248","","null","","","null","39","","","","","","","","","","","","","","","NaN",""
"","S1","","html-keyboard-response","263","338652","0.0-1.0-362.0","0","0","33248","","null","","","null","40","","","","","","","","","","","","","","","",""
"","ISI","","html-keyboard-response","264","339161","0.0-1.0-363.0","0","0","33248","","null","","","null","40","NaN","","","","","","","","","","","","","","",""
"","S2","","html-keyboard-response","265","339804","0.0-1.0-364.0","0","0","33248","","null","","","null","40","","NaN","","","","","","","","","","","","","",""
"","response","","html-keyboard-response","266","340281","0.0-1.0-365.0-0.0","0","0","33248","","473","","","68","40","","","1","40","training","adjacent","EF","5","6","O.jpg","R.jpg","1","1","1","",""
"","feedback","","html-keyboard-response","267","341289","0.0-1.0-366.0-0.0","0","0","33248","","null","","","null","40","","","","","","","","","","","","","","","",""
"","ITI","","html-keyboard-response","268","342296","0.0-1.0-369.0","0","0","33248","","null","","","null","40","","","","","","","","","","","","","","","NaN",""
"","S1","","html-keyboard-response","269","342552","0.0-1.0-371.0","0","0","33248","","null","","","null","41","","","","","","","","","","","","","","","",""
"","ISI","","html-keyboard-response","270","343064","0.0-1.0-372.0","0","0","33248","","null","","","null","41","NaN","","","","","","","","","","","","","","",""
"","S2","","html-keyboard-response","271","343345","0.0-1.0-373.0","0","0","33248","","null","","","null","41","","NaN","","","","","","","","","","","","","",""
"","response","","html-keyboard-response","272","344158","0.0-1.0-374.0-0.0","0","0","33248","","810","","","75","41","","","1","41","training","adjacent","BC","2","3","M.jpg","N.jpg","0","1","0","",""
"","feedback","","html-keyboard-response","273","345168","0.0-1.0-375.0-0.0","0","0","33248","","null","","","null","41","","","","","","","","","","","","","","","",""
"","time_out","","html-keyboard-response","274","347175","0.0-1.0-377.0-0.0","0","0","33248","","null","","","null","41","","","","","","","","","","","","","","","",""
"","ITI","","html-keyboard-response","275","348184","0.0-1.0-378.0","0","0","33248","","null","","","null","41","","","","","","","","","","","","","","","NaN",""
"","S1","","html-keyboard-response","276","348440","0.0-1.0-380.0","0","0","33248","","null","","","null","42","","","","","","","","","","","","","","","",""
"","ISI","","html-keyboard-response","277","348945","0.0-1.0-381.0","0","0","33248","","null","","","null","42","NaN","","","","","","","","","","","","","","",""
"","S2","","html-keyboard-response","278","349199","0.0-1.0-382.0","0","0","33248","","null","","","null","42","","NaN","","","","","","","","","","","","","",""
"","response","","html-keyboard-response","279","349960","0.0-1.0-383.0-0.0","0","0","33248","","759","","","68","42","","","1","42","training","adjacent","AB","1","2","L.jpg","M.jpg","1","1","1","",""
"","feedback","","html-keyboard-response","280","350967","0.0-1.0-384.0-0.0","0","0","33248","","null","","","null","42","","","","","","","","","","","","","","","",""
"","ITI","","html-keyboard-response","281","351975","0.0-1.0-387.0","0","0","33248","","null","","","null","42","","","","","","","","","","","","","","","NaN",""
"","S1","","html-keyboard-response","282","352232","0.0-1.0-389.0","0","0","33248","","null","","","null","43","","","","","","","","","","","","","","","",""
"","ISI","","html-keyboard-response","283","352737","0.0-1.0-390.0","0","0","33248","","null","","","null","43","NaN","","","","","","","","","","","","","","",""
"","S2","","html-keyboard-response","284","352999","0.0-1.0-391.0","0","0","33248","","null","","","null","43","","NaN","","","","","","","","","","","","","",""
"","response","","html-keyboard-response","285","354430","0.0-1.0-392.0-0.0","0","0","33248","","1429","","","75","43","","","1","43","training","adjacent","BC","2","3","M.jpg","N.jpg","0","1","0","",""
"","feedback","","html-keyboard-response","286","355440","0.0-1.0-393.0-0.0","0","0","33248","","null","","","null","43","","","","","","","","","","","","","","","",""
"","time_out","","html-keyboard-response","287","357448","0.0-1.0-395.0-0.0","0","0","33248","","null","","","null","43","","","","","","","","","","","","","","","",""
"","ITI","","html-keyboard-response","288","358455","0.0-1.0-396.0","0","0","33248","","null","","","null","43","","","","","","","","","","","","","","","NaN",""
"","S1","","html-keyboard-response","289","358711","0.0-1.0-398.0","0","0","33248","","null","","","null","44","","","","","","","","","","","","","","","",""
"","ISI","","html-keyboard-response","290","359216","0.0-1.0-399.0","0","0","33248","","null","","","null","44","NaN","","","","","","","","","","","","","","",""
"","S2","","html-keyboard-response","291","359471","0.0-1.0-400.0","0","0","33248","","null","","","null","44","","NaN","","","","","","","","","","","","","",""
"","response","","html-keyboard-response","292","360840","0.0-1.0-401.0-0.0","0","0","33248","","1366","","","75","44","","","1","44","training","adjacent","FE","6","5","R.jpg","O.jpg","0","0","1","",""
"","feedback","","html-keyboard-response","293","361848","0.0-1.0-402.0-0.0","0","0","33248","","null","","","null","44","","","","","","","","","","","","","","","",""
"","ITI","","html-keyboard-response","294","362855","0.0-1.0-405.0","0","0","33248","","null","","","null","44","","","","","","","","","","","","","","","NaN",""
"","S1","","html-keyboard-response","295","363111","0.0-1.0-407.0","0","0","33248","","null","","","null","45","","","","","","","","","","","","","","","",""
"","ISI","","html-keyboard-response","296","363616","0.0-1.0-408.0","0","0","33248","","null","","","null","45","NaN","","","","","","","","","","","","","","",""
"","S2","","html-keyboard-response","297","363872","0.0-1.0-409.0","0","0","33248","","null","","","null","45","","NaN","","","","","","","","","","","","","",""
"","response","","html-keyboard-response","298","364469","0.0-1.0-410.0-0.0","0","0","33248","","594","","","75","45","","","1","45","training","adjacent","DC","4","3","P.jpg","N.jpg","0","0","1","",""
"","feedback","","html-keyboard-response","299","365480","0.0-1.0-411.0-0.0","0","0","33248","","null","","","null","45","","","","","","","","","","","","","","","",""
"","ITI","","html-keyboard-response","300","366488","0.0-1.0-414.0","0","0","33248","","null","","","null","45","","","","","","","","","","","","","","","NaN",""
"","S1","","html-keyboard-response","301","366744","0.0-1.0-416.0","0","0","33248","","null","","","null","46","","","","","","","","","","","","","","","",""
"","ISI","","html-keyboard-response","302","367247","0.0-1.0-417.0","0","0","33248","","null","","","null","46","NaN","","","","","","","","","","","","","","",""
"","S2","","html-keyboard-response","303","367503","0.0-1.0-418.0","0","0","33248","","null","","","null","46","","NaN","","","","","","","","","","","","","",""
"","response","","html-keyboard-response","304","367870","0.0-1.0-419.0-0.0","0","0","33248","","365","","","75","46","","","1","46","training","adjacent","GF","7","6","Q.jpg","R.jpg","0","0","1","",""
"","feedback","","html-keyboard-response","305","369015","0.0-1.0-420.0-0.0","0","0","33248","","null","","","null","46","","","","","","","","","","","","","","","",""
"","ITI","","html-keyboard-response","306","370024","0.0-1.0-423.0","0","0","33248","","null","","","null","46","","","","","","","","","","","","","","","NaN",""
"","S1","","html-keyboard-response","307","370280","0.0-1.0-425.0","0","0","33248","","null","","","null","47","","","","","","","","","","","","","","","",""
"","ISI","","html-keyboard-response","308","370797","0.0-1.0-426.0","0","0","33248","","null","","","null","47","NaN","","","","","","","","","","","","","","",""
"","S2","","html-keyboard-response","309","371073","0.0-1.0-427.0","0","0","33248","","null","","","null","47","","NaN","","","","","","","","","","","","","",""
"","response","","html-keyboard-response","310","371649","0.0-1.0-428.0-0.0","0","0","33248","","574","","","75","47","","","1","47","training","adjacent","CB","3","2","N.jpg","M.jpg","0","0","1","",""
"","feedback","","html-keyboard-response","311","372656","0.0-1.0-429.0-0.0","0","0","33248","","null","","","null","47","","","","","","","","","","","","","","","",""
"","ITI","","html-keyboard-response","312","373663","0.0-1.0-432.0","0","0","33248","","null","","","null","47","","","","","","","","","","","","","","","NaN",""
"","block_over","","html-keyboard-response","313","376499","0.0-1.0-433.0-0.0","0","0","33248","","2833","","","32","47","","","","","","","","","","","","","","","",""
"","S1","","html-keyboard-response","314","376765","0.0-1.0-434.0","0","0","33248","","null","","","null","48","","","","","","","","","","","","","","","",""
"","ISI","","html-keyboard-response","315","377271","0.0-1.0-435.0","0","0","33248","","null","","","null","48","NaN","","","","","","","","","","","","","","",""
"","S2","","html-keyboard-response","316","377528","0.0-1.0-436.0","0","0","33248","","null","","","null","48","","NaN","","","","","","","","","","","","","",""
"","response","","html-keyboard-response","317","378329","0.0-1.0-437.0-0.0","0","0","33248","","799","","","75","48","","","2","48","training","adjacent","DC","4","3","P.jpg","N.jpg","0","0","1","",""
"","feedback","","html-keyboard-response","318","379336","0.0-1.0-438.0-0.0","0","0","33248","","null","","","null","48","","","","","","","","","","","","","","","",""
"","ITI","","html-keyboard-response","319","380360","0.0-1.0-441.0","0","0","33248","","null","","","null","48","","","","","","","","","","","","","","","NaN",""
"","S1","","html-keyboard-response","320","380615","0.0-1.0-443.0","0","0","33248","","null","","","null","49","","","","","","","","","","","","","","","",""
"","ISI","","html-keyboard-response","321","381120","0.0-1.0-444.0","0","0","33248","","null","","","null","49","NaN","","","","","","","","","","","","","","",""
"","S2","","html-keyboard-response","322","381375","0.0-1.0-445.0","0","0","33248","","null","","","null","49","","NaN","","","","","","","","","","","","","",""
"","response","","html-keyboard-response","323","381481","0.0-1.0-446.0-0.0","0","0","33248","","103","","","75","49","","","2","49","training","adjacent","DE","4","5","P.jpg","O.jpg","0","1","0","",""
"","feedback","","html-keyboard-response","324","382487","0.0-1.0-447.0-0.0","0","0","33248","","null","","","null","49","","","","","","","","","","","","","","","",""
"","time_out","","html-keyboard-response","325","384496","0.0-1.0-449.0-0.0","0","0","33248","","null","","","null","49","","","","","","","","","","","","","","","",""
"","ITI","","html-keyboard-response","326","385504","0.0-1.0-450.0","0","0","33248","","null","","","null","49","","","","","","","","","","","","","","","NaN",""
"","S1","","html-keyboard-response","327","385759","0.0-1.0-452.0","0","0","33248","","null","","","null","50","","","","","","","","","","","","","","","",""
"","ISI","","html-keyboard-response","328","386263","0.0-1.0-453.0","0","0","33248","","null","","","null","50","NaN","","","","","","","","","","","","","","",""
"","S2","","html-keyboard-response","329","386520","0.0-1.0-454.0","0","0","33248","","null","","","null","50","","NaN","","","","","","","","","","","","","",""
"","response","","html-keyboard-response","330","388241","0.0-1.0-455.0-0.0","0","0","33248","","1718","","","68","50","","","2","50","training","adjacent","FG","6","7","R.jpg","Q.jpg","1","1","1","",""
"","feedback","","html-keyboard-response","331","389249","0.0-1.0-456.0-0.0","0","0","33248","","null","","","null","50","","","","","","","","","","","","","","","",""
"","ITI","","html-keyboard-response","332","390256","0.0-1.0-459.0","0","0","33248","","null","","","null","50","","","","","","","","","","","","","","","NaN",""
"","S1","","html-keyboard-response","333","390511","0.0-1.0-461.0","0","0","33248","","null","","","null","51","","","","","","","","","","","","","","","",""
"","ISI","","html-keyboard-response","334","391100","0.0-1.0-462.0","0","0","33248","","null","","","null","51","NaN","","","","","","","","","","","","","","",""
"","S2","","html-keyboard-response","335","391360","0.0-1.0-463.0","0","0","33248","","null","","","null","51","","NaN","","","","","","","","","","","","","",""
"","response","","html-keyboard-response","336","391649","0.0-1.0-464.0-0.0","0","0","33248","","286","","","75","51","","","2","51","training","adjacent","CD","3","4","N.jpg","P.jpg","0","1","0","",""
"","feedback","","html-keyboard-response","337","392656","0.0-1.0-465.0-0.0","0","0","33248","","null","","","null","51","","","","","","","","","","","","","","","",""
"","time_out","","html-keyboard-response","338","394663","0.0-1.0-467.0-0.0","0","0","33248","","null","","","null","51","","","","","","","","","","","","","","","",""
"","ITI","","html-keyboard-response","339","395672","0.0-1.0-468.0","0","0","33248","","null","","","null","51","","","","","","","","","","","","","","","NaN",""
"","S1","","html-keyboard-response","340","395927","0.0-1.0-470.0","0","0","33248","","null","","","null","52","","","","","","","","","","","","","","","",""
"","ISI","","html-keyboard-response","341","396432","0.0-1.0-471.0","0","0","33248","","null","","","null","52","NaN","","","","","","","","","","","","","","",""
"","S2","","html-keyboard-response","342","396689","0.0-1.0-472.0","0","0","33248","","null","","","null","52","","NaN","","","","","","","","","","","","","",""
"","response","","html-keyboard-response","343","396998","0.0-1.0-473.0-0.0","0","0","33248","","307","","","68","52","","","2","52","training","adjacent","FE","6","5","R.jpg","O.jpg","1","0","0","",""
"","feedback","","html-keyboard-response","344","398008","0.0-1.0-474.0-0.0","0","0","33248","","null","","","null","52","","","","","","","","","","","","","","","",""
"","time_out","","html-keyboard-response","345","400015","0.0-1.0-476.0-0.0","0","0","33248","","null","","","null","52","","","","","","","","","","","","","","","",""
"","ITI","","html-keyboard-response","346","401024","0.0-1.0-477.0","0","0","33248","","null","","","null","52","","","","","","","","","","","","","","","NaN",""
"","S1","","html-keyboard-response","347","401280","0.0-1.0-479.0","0","0","33248","","null","","","null","53","","","","","","","","","","","","","","","",""
"","ISI","","html-keyboard-response","348","401792","0.0-1.0-480.0","0","0","33248","","null","","","null","53","NaN","","","","","","","","","","","","","","",""
"","S2","","html-keyboard-response","349","402049","0.0-1.0-481.0","0","0","33248","","null","","","null","53","","NaN","","","","","","","","","","","","","",""
"","response","","html-keyboard-response","350","402278","0.0-1.0-482.0-0.0","0","0","33248","","227","","","75","53","","","2","53","training","adjacent","BA","2","1","M.jpg","L.jpg","0","0","1","",""
"","feedback","","html-keyboard-response","351","403288","0.0-1.0-483.0-0.0","0","0","33248","","null","","","null","53","","","","","","","","","","","","","","","",""
"","ITI","","html-keyboard-response","352","404335","0.0-1.0-486.0","0","0","33248","","null","","","null","53","","","","","","","","","","","","","","","NaN",""
"","S1","","html-keyboard-response","353","404591","0.0-1.0-488.0","0","0","33248","","null","","","null","54","","","","","","","","","","","","","","","",""
"","ISI","","html-keyboard-response","354","405096","0.0-1.0-489.0","0","0","33248","","null","","","null","54","NaN","","","","","","","","","","","","","","",""
"","S2","","html-keyboard-response","355","405353","0.0-1.0-490.0","0","0","33248","","null","","","null","54","","NaN","","","","","","","","","","","","","",""
"","response","","html-keyboard-response","356","405788","0.0-1.0-491.0-0.0","0","0","33248","","433","","","75","54","","","2","54","training","adjacent","CB","3","2","N.jpg","M.jpg","0","0","1","",""
"","feedback","","html-keyboard-response","357","406801","0.0-1.0-492.0-0.0","0","0","33248","","null","","","null","54","","","","","","","","","","","","","","","",""
"","ITI","","html-keyboard-response","358","407808","0.0-1.0-495.0","0","0","33248","","null","","","null","54","","","","","","","","","","","","","","","NaN",""
"","S1","","html-keyboard-response","359","408118","0.0-1.0-497.0","0","0","33248","","null","","","null","55","","","","","","","","","","","","","","","",""
"","ISI","","html-keyboard-response","360","408633","0.0-1.0-498.0","0","0","33248","","null","","","null","55","NaN","","","","","","","","","","","","","","",""
"","S2","","html-keyboard-response","361","408888","0.0-1.0-499.0","0","0","33248","","null","","","null","55","","NaN","","","","","","","","","","","","","",""
"","response","","html-keyboard-response","362","409938","0.0-1.0-500.0-0.0","0","0","33248","","1047","","","68","55","","","2","55","training","adjacent","BA","2","1","M.jpg","L.jpg","1","0","0","",""
"","feedback","","html-keyboard-response","363","410943","0.0-1.0-501.0-0.0","0","0","33248","","null","","","null","55","","","","","","","","","","","","","","","",""
"","time_out","","html-keyboard-response","364","412951","0.0-1.0-503.0-0.0","0","0","33248","","null","","","null","55","","","","","","","","","","","","","","","",""
"","ITI","","html-keyboard-response","365","413961","0.0-1.0-504.0","0","0","33248","","null","","","null","55","","","","","","","","","","","","","","","NaN",""
"","S1","","html-keyboard-response","366","414223","0.0-1.0-506.0","0","0","33248","","null","","","null","56","","","","","","","","","","","","","","","",""
"","ISI","","html-keyboard-response","367","414728","0.0-1.0-507.0","0","0","33248","","null","","","null","56","NaN","","","","","","","","","","","","","","",""
"","S2","","html-keyboard-response","368","414983","0.0-1.0-508.0","0","0","33248","","null","","","null","56","","NaN","","","","","","","","","","","","","",""
"","response","","html-keyboard-response","369","415648","0.0-1.0-509.0-0.0","0","0","33248","","663","","","75","56","","","2","56","training","adjacent","BC","2","3","M.jpg","N.jpg","0","1","0","",""
"","feedback","","html-keyboard-response","370","416658","0.0-1.0-510.0-0.0","0","0","33248","","null","","","null","56","","","","","","","","","","","","","","","",""
"","time_out","","html-keyboard-response","371","418664","0.0-1.0-512.0-0.0","0","0","33248","","null","","","null","56","","","","","","","","","","","","","","","",""
"","ITI","","html-keyboard-response","372","419672","0.0-1.0-513.0","0","0","33248","","null","","","null","56","","","","","","","","","","","","","","","NaN",""
"","S1","","html-keyboard-response","373","419928","0.0-1.0-515.0","0","0","33248","","null","","","null","57","","","","","","","","","","","","","","","",""
"","ISI","","html-keyboard-response","374","420498","0.0-1.0-516.0","0","0","33248","","null","","","null","57","NaN","","","","","","","","","","","","","","",""
"","S2","","html-keyboard-response","375","420718","0.0-1.0-517.0","0","0","33248","","217","","","68","57","","d","2","57","training","adjacent","AB","1","2","L.jpg","M.jpg","1","1","1","",""
"","feedback","","html-keyboard-response","376","421727","0.0-1.0-519.0-0.0","0","0","33248","","null","","","null","57","","","","","","","","","","","","","","","",""
"","ITI","","html-keyboard-response","377","422736","0.0-1.0-522.0","0","0","33248","","null","","","null","57","","","","","","","","","","","","","","","NaN",""
"","S1","","html-keyboard-response","378","422991","0.0-1.0-524.0","0","0","33248","","null","","","null","58","","","","","","","","","","","","","","","",""
"","ISI","","html-keyboard-response","379","423495","0.0-1.0-525.0","0","0","33248","","null","","","null","58","NaN","","","","","","","","","","","","","","",""
"","S2","","html-keyboard-response","380","423751","0.0-1.0-526.0","0","0","33248","","null","","","null","58","","NaN","","","","","","","","","","","","","",""
"","response","","html-keyboard-response","381","423968","0.0-1.0-527.0-0.0","0","0","33248","","215","","","68","58","","","2","58","training","adjacent","ED","5","4","O.jpg","P.jpg","1","0","0","",""
"","feedback","","html-keyboard-response","382","425061","0.0-1.0-528.0-0.0","0","0","33248","","null","","","null","58","","","","","","","","","","","","","","","",""
"","time_out","","html-keyboard-response","383","427215","0.0-1.0-530.0-0.0","0","0","33248","","null","","","null","58","","","","","","","","","","","","","","","",""
"","ITI","","html-keyboard-response","384","428225","0.0-1.0-531.0","0","0","33248","","null","","","null","58","","","","","","","","","","","","","","","NaN",""
"","S1","","html-keyboard-response","385","428480","0.0-1.0-533.0","0","0","33248","","null","","","null","59","","","","","","","","","","","","","","","",""
"","ISI","","html-keyboard-response","386","428984","0.0-1.0-534.0","0","0","33248","","null","","","null","59","NaN","","","","","","","","","","","","","","",""
"","S2","","html-keyboard-response","387","429241","0.0-1.0-535.0","0","0","33248","","null","","","null","59","","NaN","","","","","","","","","","","","","",""
"","response","","html-keyboard-response","388","429628","0.0-1.0-536.0-0.0","0","0","33248","","386","","","68","59","","","2","59","training","adjacent","AB","1","2","L.jpg","M.jpg","1","1","1","",""
"","feedback","","html-keyboard-response","389","430633","0.0-1.0-537.0-0.0","0","0","33248","","null","","","null","59","","","","","","","","","","","","","","","",""
"","ITI","","html-keyboard-response","390","431641","0.0-1.0-540.0","0","0","33248","","null","","","null","59","","","","","","","","","","","","","","","NaN",""
"","S1","","html-keyboard-response","391","431895","0.0-1.0-542.0","0","0","33248","","null","","","null","60","","","","","","","","","","","","","","","",""
"","ISI","","html-keyboard-response","392","432401","0.0-1.0-543.0","0","0","33248","","null","","","null","60","NaN","","","","","","","","","","","","","","",""
"","S2","","html-keyboard-response","393","432657","0.0-1.0-544.0","0","0","33248","","null","","","null","60","","NaN","","","","","","","","","","","","","",""
"","response","","html-keyboard-response","394","433628","0.0-1.0-545.0-0.0","0","0","33248","","968","","","68","60","","","2","60","training","adjacent","EF","5","6","O.jpg","R.jpg","1","1","1","",""
"","feedback","","html-keyboard-response","395","434632","0.0-1.0-546.0-0.0","0","0","33248","","null","","","null","60","","","","","","","","","","","","","","","",""
"","ITI","","html-keyboard-response","396","435657","0.0-1.0-549.0","0","0","33248","","null","","","null","60","","","","","","","","","","","","","","","NaN",""
"","S1","","html-keyboard-response","397","435912","0.0-1.0-551.0","0","0","33248","","null","","","null","61","","","","","","","","","","","","","","","",""
"","ISI","","html-keyboard-response","398","436417","0.0-1.0-552.0","0","0","33248","","null","","","null","61","NaN","","","","","","","","","","","","","","",""
"","S2","","html-keyboard-response","399","436673","0.0-1.0-553.0","0","0","33248","","null","","","null","61","","NaN","","","","","","","","","","","","","",""
"","response","","html-keyboard-response","400","438022","0.0-1.0-554.0-0.0","0","0","33248","","1346","","","75","61","","","2","61","training","adjacent","ED","5","4","O.jpg","P.jpg","0","0","1","",""
"","feedback","","html-keyboard-response","401","439032","0.0-1.0-555.0-0.0","0","0","33248","","null","","","null","61","","","","","","","","","","","","","","","",""
"","ITI","","html-keyboard-response","402","440040","0.0-1.0-558.0","0","0","33248","","null","","","null","61","","","","","","","","","","","","","","","NaN",""
"","S1","","html-keyboard-response","403","440297","0.0-1.0-560.0","0","0","33248","","null","","","null","62","","","","","","","","","","","","","","","",""
"","ISI","","html-keyboard-response","404","440800","0.0-1.0-561.0","0","0","33248","","null","","","null","62","NaN","","","","","","","","","","","","","","",""
"","S2","","html-keyboard-response","405","441057","0.0-1.0-562.0","0","0","33248","","null","","","null","62","","NaN","","","","","","","","","","","","","",""
"","response","","html-keyboard-response","406","442287","0.0-1.0-563.0-0.0","0","0","33248","","1228","","","75","62","","","2","62","training","adjacent","BA","2","1","M.jpg","L.jpg","0","0","1","",""
"","feedback","","html-keyboard-response","407","443297","0.0-1.0-564.0-0.0","0","0","33248","","null","","","null","62","","","","","","","","","","","","","","","",""
"","ITI","","html-keyboard-response","408","444305","0.0-1.0-567.0","0","0","33248","","null","","","null","62","","","","","","","","","","","","","","","NaN",""
"","S1","","html-keyboard-response","409","444560","0.0-1.0-569.0","0","0","33248","","null","","","null","63","","","","","","","","","","","","","","","",""
"","ISI","","html-keyboard-response","410","445065","0.0-1.0-570.0","0","0","33248","","null","","","null","63","NaN","","","","","","","","","","","","","","",""
"","S2","","html-keyboard-response","411","445321","0.0-1.0-571.0","0","0","33248","","null","","","null","63","","NaN","","","","","","","","","","","","","",""
"","response","","html-keyboard-response","412","445827","0.0-1.0-572.0-0.0","0","0","33248","","505","","","75","63","","","2","63","training","adjacent","DE","4","5","P.jpg","O.jpg","0","1","0","",""
"","feedback","","html-keyboard-response","413","446832","0.0-1.0-573.0-0.0","0","0","33248","","null","","","null","63","","","","","","","","","","","","","","","",""
"","time_out","","html-keyboard-response","414","448841","0.0-1.0-575.0-0.0","0","0","33248","","null","","","null","63","","","","","","","","","","","","","","","",""
"","ITI","","html-keyboard-response","415","449849","0.0-1.0-576.0","0","0","33248","","null","","","null","63","","","","","","","","","","","","","","","NaN",""
"","S1","","html-keyboard-response","416","450104","0.0-1.0-578.0","0","0","33248","","null","","","null","64","","","","","","","","","","","","","","","",""
"","ISI","","html-keyboard-response","417","450607","0.0-1.0-579.0","0","0","33248","","null","","","null","64","NaN","","","","","","","","","","","","","","",""
"","S2","","html-keyboard-response","418","450864","0.0-1.0-580.0","0","0","33248","","null","","","null","64","","NaN","","","","","","","","","","","","","",""
"","response","","html-keyboard-response","419","452027","0.0-1.0-581.0-0.0","0","0","33248","","1160","","","68","64","","","2","64","training","adjacent","DE","4","5","P.jpg","O.jpg","1","1","1","",""
"","feedback","","html-keyboard-response","420","453031","0.0-1.0-582.0-0.0","0","0","33248","","null","","","null","64","","","","","","","","","","","","","","","",""
"","ITI","","html-keyboard-response","421","454340","0.0-1.0-585.0","0","0","33248","","null","","","null","64","","","","","","","","","","","","","","","NaN",""
"","S1","","html-keyboard-response","422","454612","0.0-1.0-587.0","0","0","33248","","null","","","null","65","","","","","","","","","","","","","","","",""
"","ISI","","html-keyboard-response","423","455119","0.0-1.0-588.0","0","0","33248","","null","","","null","65","NaN","","","","","","","","","","","","","","",""
"","S2","","html-keyboard-response","424","455375","0.0-1.0-589.0","0","0","33248","","null","","","null","65","","NaN","","","","","","","","","","","","","",""
"","response","","html-keyboard-response","425","456058","0.0-1.0-590.0-0.0","0","0","33248","","679","","","68","65","","","2","65","training","adjacent","EF","5","6","O.jpg","R.jpg","1","1","1","",""
"","feedback","","html-keyboard-response","426","457065","0.0-1.0-591.0-0.0","0","0","33248","","null","","","null","65","","","","","","","","","","","","","","","",""
"","ITI","","html-keyboard-response","427","458072","0.0-1.0-594.0","0","0","33248","","null","","","null","65","","","","","","","","","","","","","","","NaN",""
"","S1","","html-keyboard-response","428","458329","0.0-1.0-596.0","0","0","33248","","null","","","null","66","","","","","","","","","","","","","","","",""
"","ISI","","html-keyboard-response","429","458840","0.0-1.0-597.0","0","0","33248","","null","","","null","66","NaN","","","","","","","","","","","","","","",""
"","S2","","html-keyboard-response","430","459096","0.0-1.0-598.0","0","0","33248","","null","","","null","66","","NaN","","","","","","","","","","","","","",""
"","response","","html-keyboard-response","431","459947","0.0-1.0-599.0-0.0","0","0","33248","","848","","","75","66","","","2","66","training","adjacent","BC","2","3","M.jpg","N.jpg","0","1","0","",""
"","feedback","","html-keyboard-response","432","460952","0.0-1.0-600.0-0.0","0","0","33248","","null","","","null","66","","","","","","","","","","","","","","","",""
"","time_out","","html-keyboard-response","433","462960","0.0-1.0-602.0-0.0","0","0","33248","","null","","","null","66","","","","","","","","","","","","","","","",""
"","ITI","","html-keyboard-response","434","463969","0.0-1.0-603.0","0","0","33248","","null","","","null","66","","","","","","","","","","","","","","","NaN",""
"","S1","","html-keyboard-response","435","464225","0.0-1.0-605.0","0","0","33248","","null","","","null","67","","","","","","","","","","","","","","","",""
"","ISI","","html-keyboard-response","436","464729","0.0-1.0-606.0","0","0","33248","","null","","","null","67","NaN","","","","","","","","","","","","","","",""
"","S2","","html-keyboard-response","437","464984","0.0-1.0-607.0","0","0","33248","","null","","","null","67","","NaN","","","","","","","","","","","","","",""
"","response","","html-keyboard-response","438","465476","0.0-1.0-608.0-0.0","0","0","33248","","490","","","68","67","","","2","67","training","adjacent","CD","3","4","N.jpg","P.jpg","1","1","1","",""
"","feedback","","html-keyboard-response","439","466480","0.0-1.0-609.0-0.0","0","0","33248","","null","","","null","67","","","","","","","","","","","","","","","",""
"","ITI","","html-keyboard-response","440","467488","0.0-1.0-612.0","0","0","33248","","null","","","null","67","","","","","","","","","","","","","","","NaN",""
"","S1","","html-keyboard-response","441","467936","0.0-1.0-614.0","0","0","33248","","null","","","null","68","","","","","","","","","","","","","","","",""
"","ISI","","html-keyboard-response","442","468441","0.0-1.0-615.0","0","0","33248","","null","","","null","68","NaN","","","","","","","","","","","","","","",""
"","S2","","html-keyboard-response","443","468696","0.0-1.0-616.0","0","0","33248","","null","","","null","68","","NaN","","","","","","","","","","","","","",""
"","response","","html-keyboard-response","444","469413","0.0-1.0-617.0-0.0","0","0","33248","","714","","","68","68","","","2","68","training","adjacent","BC","2","3","M.jpg","N.jpg","1","1","1","",""
"","feedback","","html-keyboard-response","445","470424","0.0-1.0-618.0-0.0","0","0","33248","","null","","","null","68","","","","","","","","","","","","","","","",""
"","ITI","","html-keyboard-response","446","471433","0.0-1.0-621.0","0","0","33248","","null","","","null","68","","","","","","","","","","","","","","","NaN",""
"","S1","","html-keyboard-response","447","471689","0.0-1.0-623.0","0","0","33248","","null","","","null","69","","","","","","","","","","","","","","","",""
"","ISI","","html-keyboard-response","448","472192","0.0-1.0-624.0","0","0","33248","","null","","","null","69","NaN","","","","","","","","","","","","","","",""
"","S2","","html-keyboard-response","449","472464","0.0-1.0-625.0","0","0","33248","","null","","","null","69","","NaN","","","","","","","","","","","","","",""
"","response","","html-keyboard-response","450","473076","0.0-1.0-626.0-0.0","0","0","33248","","610","","","68","69","","","2","69","training","adjacent","AB","1","2","L.jpg","M.jpg","1","1","1","",""
"","feedback","","html-keyboard-response","451","474081","0.0-1.0-627.0-0.0","0","0","33248","","null","","","null","69","","","","","","","","","","","","","","","",""
"","ITI","","html-keyboard-response","452","475088","0.0-1.0-630.0","0","0","33248","","null","","","null","69","","","","","","","","","","","","","","","NaN",""
"","S1","","html-keyboard-response","453","475345","0.0-1.0-632.0","0","0","33248","","null","","","null","70","","","","","","","","","","","","","","","",""
"","ISI","","html-keyboard-response","454","475901","0.0-1.0-633.0","0","0","33248","","null","","","null","70","NaN","","","","","","","","","","","","","","",""
"","S2","","html-keyboard-response","455","476168","0.0-1.0-634.0","0","0","33248","","null","","","null","70","","NaN","","","","","","","","","","","","","",""
"","response","","html-keyboard-response","456","476936","0.0-1.0-635.0-0.0","0","0","33248","","766","","","68","70","","","2","70","training","adjacent","DC","4","3","P.jpg","N.jpg","1","0","0","",""
"","feedback","","html-keyboard-response","457","477946","0.0-1.0-636.0-0.0","0","0","33248","","null","","","null","70","","","","","","","","","","","","","","","",""
"","time_out","","html-keyboard-response","458","479952","0.0-1.0-638.0-0.0","0","0","33248","","null","","","null","70","","","","","","","","","","","","","","","",""
"","ITI","","html-keyboard-response","459","480962","0.0-1.0-639.0","0","0","33248","","null","","","null","70","","","","","","","","","","","","","","","NaN",""
"","S1","","html-keyboard-response","460","481216","0.0-1.0-641.0","0","0","33248","","null","","","null","71","","","","","","","","","","","","","","","",""
"","ISI","","html-keyboard-response","461","481720","0.0-1.0-642.0","0","0","33248","","null","","","null","71","NaN","","","","","","","","","","","","","","",""
"","S2","","html-keyboard-response","462","481975","0.0-1.0-643.0","0","0","33248","","null","","","null","71","","NaN","","","","","","","","","","","","","",""
"","response","","html-keyboard-response","463","482526","0.0-1.0-644.0-0.0","0","0","33248","","549","","","68","71","","","2","71","training","adjacent","EF","5","6","O.jpg","R.jpg","1","1","1","",""
"","feedback","","html-keyboard-response","464","483535","0.0-1.0-645.0-0.0","0","0","33248","","null","","","null","71","","","","","","","","","","","","","","","",""
"","ITI","","html-keyboard-response","465","484546","0.0-1.0-648.0","0","0","33248","","null","","","null","71","","","","","","","","","","","","","","","NaN",""
"","S1","","html-keyboard-response","466","484800","0.0-1.0-650.0","0","0","33248","","null","","","null","72","","","","","","","","","","","","","","","",""
"","ISI","","html-keyboard-response","467","485357","0.0-1.0-651.0","0","0","33248","","null","","","null","72","NaN","","","","","","","","","","","","","","",""
"","S2","","html-keyboard-response","468","485616","0.0-1.0-652.0","0","0","33248","","null","","","null","72","","NaN","","","","","","","","","","","","","",""
"","response","","html-keyboard-response","469","486086","0.0-1.0-653.0-0.0","0","0","33248","","467","","","75","72","","","2","72","training","adjacent","DC","4","3","P.jpg","N.jpg","0","0","1","",""
"","feedback","","html-keyboard-response","470","487097","0.0-1.0-654.0-0.0","0","0","33248","","null","","","null","72","","","","","","","","","","","","","","","",""
"","ITI","","html-keyboard-response","471","488358","0.0-1.0-657.0","0","0","33248","","null","","","null","72","","","","","","","","","","","","","","","NaN",""
"","S1","","html-keyboard-response","472","488616","0.0-1.0-659.0","0","0","33248","","null","","","null","73","","","","","","","","","","","","","","","",""
"","ISI","","html-keyboard-response","473","489119","0.0-1.0-660.0","0","0","33248","","null","","","null","73","NaN","","","","","","","","","","","","","","",""
"","S2","","html-keyboard-response","474","489375","0.0-1.0-661.0","0","0","33248","","null","","","null","73","","NaN","","","","","","","","","","","","","",""
"","response","","html-keyboard-response","475","489845","0.0-1.0-662.0-0.0","0","0","33248","","468","","","68","73","","","2","73","training","adjacent","CB","3","2","N.jpg","M.jpg","1","0","0","",""
"","feedback","","html-keyboard-response","476","490855","0.0-1.0-663.0-0.0","0","0","33248","","null","","","null","73","","","","","","","","","","","","","","","",""
"","time_out","","html-keyboard-response","477","493068","0.0-1.0-665.0-0.0","0","0","33248","","null","","","null","73","","","","","","","","","","","","","","","",""
"","ITI","","html-keyboard-response","478","494080","0.0-1.0-666.0","0","0","33248","","null","","","null","73","","","","","","","","","","","","","","","NaN",""
"","S1","","html-keyboard-response","479","494336","0.0-1.0-668.0","0","0","33248","","null","","","null","74","","","","","","","","","","","","","","","",""
"","ISI","","html-keyboard-response","480","494847","0.0-1.0-669.0","0","0","33248","","null","","","null","74","NaN","","","","","","","","","","","","","","",""
"","S2","","html-keyboard-response","481","495103","0.0-1.0-670.0","0","0","33248","","null","","","null","74","","NaN","","","","","","","","","","","","","",""
"","response","","html-keyboard-response","482","495515","0.0-1.0-671.0-0.0","0","0","33248","","409","","","68","74","","","2","74","training","adjacent","CD","3","4","N.jpg","P.jpg","1","1","1","",""
"","feedback","","html-keyboard-response","483","496520","0.0-1.0-672.0-0.0","0","0","33248","","null","","","null","74","","","","","","","","","","","","","","","",""
"","ITI","","html-keyboard-response","484","497528","0.0-1.0-675.0","0","0","33248","","null","","","null","74","","","","","","","","","","","","","","","NaN",""
"","S1","","html-keyboard-response","485","497792","0.0-1.0-677.0","0","0","33248","","null","","","null","75","","","","","","","","","","","","","","","",""
"","ISI","","html-keyboard-response","486","498295","0.0-1.0-678.0","0","0","33248","","null","","","null","75","NaN","","","","","","","","","","","","","","",""
"","S2","","html-keyboard-response","487","498552","0.0-1.0-679.0","0","0","33248","","null","","","null","75","","NaN","","","","","","","","","","","","","",""
"","response","","html-keyboard-response","488","500311","0.0-1.0-680.0-0.0","0","0","33248","","null","","","null","75","","","2","75","training","adjacent","FG","6","7","R.jpg","Q.jpg","NaN","1","0","",""
"","too_slow_prompt","","html-keyboard-response","489","501319","0.0-1.0-682.0-0.0","1","0","33248","","null","","","null","","","","","","","","","","","","","","","","",""
"","time_out","","html-keyboard-response","490","503328","0.0-1.0-683.0-0.0","0","0","33248","","null","","","null","75","","","","","","","","","","","","","","","",""
"","ITI","","html-keyboard-response","491","504336","0.0-1.0-684.0","0","0","33248","","null","","","null","75","","","","","","","","","","","","","","","NaN",""
"","S1","","html-keyboard-response","492","504591","0.0-1.0-686.0","0","0","33248","","null","","","null","76","","","","","","","","","","","","","","","",""
"","ISI","","html-keyboard-response","493","505095","0.0-1.0-687.0","0","0","33248","","null","","","null","76","NaN","","","","","","","","","","","","","","",""
"","S2","","html-keyboard-response","494","505351","0.0-1.0-688.0","0","0","33248","","null","","","null","76","","NaN","","","","","","","","","","","","","",""
"","response","","html-keyboard-response","495","506274","0.0-1.0-689.0-0.0","0","0","33248","","921","","","68","76","","","2","76","training","adjacent","FG","6","7","R.jpg","Q.jpg","1","1","1","",""
"","feedback","","html-keyboard-response","496","507280","0.0-1.0-690.0-0.0","0","0","33248","","null","","","null","76","","","","","","","","","","","","","","","",""
"","ITI","","html-keyboard-response","497","508301","0.0-1.0-693.0","0","0","33248","","null","","","null","76","","","","","","","","","","","","","","","NaN",""
"","S1","","html-keyboard-response","498","508559","0.0-1.0-695.0","0","0","33248","","null","","","null","77","","","","","","","","","","","","","","","",""
"","ISI","","html-keyboard-response","499","509063","0.0-1.0-696.0","0","0","33248","","null","","","null","77","NaN","","","","","","","","","","","","","","",""
"","S2","","html-keyboard-response","500","509319","0.0-1.0-697.0","0","0","33248","","null","","","null","77","","NaN","","","","","","","","","","","","","",""
"","response","","html-keyboard-response","501","509994","0.0-1.0-698.0-0.0","0","0","33248","","672","","","68","77","","","2","77","training","adjacent","CB","3","2","N.jpg","M.jpg","1","0","0","",""
"","feedback","","html-keyboard-response","502","510998","0.0-1.0-699.0-0.0","0","0","33248","","null","","","null","77","","","","","","","","","","","","","","","",""
"","time_out","","html-keyboard-response","503","513106","0.0-1.0-701.0-0.0","0","0","33248","","null","","","null","77","","","","","","","","","","","","","","","",""
"","ITI","","html-keyboard-response","504","514110","0.0-1.0-702.0","0","0","33248","","null","","","null","77","","","","","","","","","","","","","","","NaN",""
"","S1","","html-keyboard-response","505","514367","0.0-1.0-704.0","0","0","33248","","null","","","null","78","","","","","","","","","","","","","","","",""
"","ISI","","html-keyboard-response","506","514871","0.0-1.0-705.0","0","0","33248","","null","","","null","78","NaN","","","","","","","","","","","","","","",""
"","S2","","html-keyboard-response","507","515127","0.0-1.0-706.0","0","0","33248","","null","","","null","78","","NaN","","","","","","","","","","","","","",""
"","response","","html-keyboard-response","508","516090","0.0-1.0-707.0-0.0","0","0","33248","","960","","","68","78","","","2","78","training","adjacent","CD","3","4","N.jpg","P.jpg","1","1","1","",""
"","feedback","","html-keyboard-response","509","517096","0.0-1.0-708.0-0.0","0","0","33248","","null","","","null","78","","","","","","","","","","","","","","","",""
"","ITI","","html-keyboard-response","510","518103","0.0-1.0-711.0","0","0","33248","","null","","","null","78","","","","","","","","","","","","","","","NaN",""
"","S1","","html-keyboard-response","511","518359","0.0-1.0-713.0","0","0","33248","","null","","","null","79","","","","","","","","","","","","","","","",""
"","ISI","","html-keyboard-response","512","518863","0.0-1.0-714.0","0","0","33248","","null","","","null","79","NaN","","","","","","","","","","","","","","",""
"","S2","","html-keyboard-response","513","519120","0.0-1.0-715.0","0","0","33248","","null","","","null","79","","NaN","","","","","","","","","","","","","",""
"","response","","html-keyboard-response","514","519665","0.0-1.0-716.0-0.0","0","0","33248","","542","","","68","79","","","2","79","training","adjacent","AB","1","2","L.jpg","M.jpg","1","1","1","",""
"","feedback","","html-keyboard-response","515","520672","0.0-1.0-717.0-0.0","0","0","33248","","null","","","null","79","","","","","","","","","","","","","","","",""
"","ITI","","html-keyboard-response","516","521679","0.0-1.0-720.0","0","0","33248","","null","","","null","79","","","","","","","","","","","","","","","NaN",""
"","S1","","html-keyboard-response","517","521935","0.0-1.0-722.0","0","0","33248","","null","","","null","80","","","","","","","","","","","","","","","",""
"","ISI","","html-keyboard-response","518","522440","0.0-1.0-723.0","0","0","33248","","null","","","null","80","NaN","","","","","","","","","","","","","","",""
"","S2","","html-keyboard-response","519","522695","0.0-1.0-724.0","0","0","33248","","null","","","null","80","","NaN","","","","","","","","","","","","","",""
"","response","","html-keyboard-response","520","523773","0.0-1.0-725.0-0.0","0","0","33248","","1076","","","75","80","","","2","80","training","adjacent","FE","6","5","R.jpg","O.jpg","0","0","1","",""
"","feedback","","html-keyboard-response","521","524784","0.0-1.0-726.0-0.0","0","0","33248","","null","","","null","80","","","","","","","","","","","","","","","",""
"","ITI","","html-keyboard-response","522","525792","0.0-1.0-729.0","0","0","33248","","null","","","null","80","","","","","","","","","","","","","","","NaN",""
"","S1","","html-keyboard-response","523","526048","0.0-1.0-731.0","0","0","33248","","null","","","null","81","","","","","","","","","","","","","","","",""
"","ISI","","html-keyboard-response","524","526552","0.0-1.0-732.0","0","0","33248","","null","","","null","81","NaN","","","","","","","","","","","","","","",""
"","S2","","html-keyboard-response","525","526808","0.0-1.0-733.0","0","0","33248","","null","","","null","81","","NaN","","","","","","","","","","","","","",""
"","response","","html-keyboard-response","526","526933","0.0-1.0-734.0-0.0","0","0","33248","","123","","","75","81","","","2","81","training","adjacent","GF","7","6","Q.jpg","R.jpg","0","0","1","",""
"","feedback","","html-keyboard-response","527","527944","0.0-1.0-735.0-0.0","0","0","33248","","null","","","null","81","","","","","","","","","","","","","","","",""
"","ITI","","html-keyboard-response","528","529148","0.0-1.0-738.0","0","0","33248","","null","","","null","81","","","","","","","","","","","","","","","NaN",""
"","S1","","html-keyboard-response","529","529408","0.0-1.0-740.0","0","0","33248","","null","","","null","82","","","","","","","","","","","","","","","",""
"","ISI","","html-keyboard-response","530","529936","0.0-1.0-741.0","0","0","33248","","null","","","null","82","NaN","","","","","","","","","","","","","","",""
"","S2","","html-keyboard-response","531","530196","0.0-1.0-742.0","0","0","33248","","null","","","null","82","","NaN","","","","","","","","","","","","","",""
"","response","","html-keyboard-response","532","531463","0.0-1.0-743.0-0.0","0","0","33248","","1264","","","75","82","","","2","82","training","adjacent","FE","6","5","R.jpg","O.jpg","0","0","1","",""
"","feedback","","html-keyboard-response","533","532472","0.0-1.0-744.0-0.0","0","0","33248","","null","","","null","82","","","","","","","","","","","","","","","",""
"","ITI","","html-keyboard-response","534","533480","0.0-1.0-747.0","0","0","33248","","null","","","null","82","","","","","","","","","","","","","","","NaN",""
"","S1","","html-keyboard-response","535","533738","0.0-1.0-749.0","0","0","33248","","null","","","null","83","","","","","","","","","","","","","","","",""
"","ISI","","html-keyboard-response","536","534248","0.0-1.0-750.0","0","0","33248","","null","","","null","83","NaN","","","","","","","","","","","","","","",""
"","S2","","html-keyboard-response","537","534503","0.0-1.0-751.0","0","0","33248","","null","","","null","83","","NaN","","","","","","","","","","","","","",""
"","response","","html-keyboard-response","538","535343","0.0-1.0-752.0-0.0","0","0","33248","","838","","","75","83","","","2","83","training","adjacent","ED","5","4","O.jpg","P.jpg","0","0","1","",""
"","feedback","","html-keyboard-response","539","536352","0.0-1.0-753.0-0.0","0","0","33248","","null","","","null","83","","","","","","","","","","","","","","","",""
"","ITI","","html-keyboard-response","540","537360","0.0-1.0-756.0","0","0","33248","","null","","","null","83","","","","","","","","","","","","","","","NaN",""
"","S1","","html-keyboard-response","541","537615","0.0-1.0-758.0","0","0","33248","","null","","","null","84","","","","","","","","","","","","","","","",""
"","ISI","","html-keyboard-response","542","538119","0.0-1.0-759.0","0","0","33248","","null","","","null","84","NaN","","","","","","","","","","","","","","",""
"","S2","","html-keyboard-response","543","538375","0.0-1.0-760.0","0","0","33248","","null","","","null","84","","NaN","","","","","","","","","","","","","",""
"","response","","html-keyboard-response","544","538473","0.0-1.0-761.0-0.0","0","0","33248","","95","","","75","84","","","2","84","training","adjacent","GF","7","6","Q.jpg","R.jpg","0","0","1","",""
"","feedback","","html-keyboard-response","545","539481","0.0-1.0-762.0-0.0","0","0","33248","","null","","","null","84","","","","","","","","","","","","","","","",""
"","ITI","","html-keyboard-response","546","540487","0.0-1.0-765.0","0","0","33248","","null","","","null","84","","","","","","","","","","","","","","","NaN",""
"","S1","","html-keyboard-response","547","540743","0.0-1.0-767.0","0","0","33248","","null","","","null","85","","","","","","","","","","","","","","","",""
"","ISI","","html-keyboard-response","548","541258","0.0-1.0-768.0","0","0","33248","","null","","","null","85","NaN","","","","","","","","","","","","","","",""
"","S2","","html-keyboard-response","549","541513","0.0-1.0-769.0","0","0","33248","","252","","","75","85","","k","2","85","training","adjacent","GF","7","6","Q.jpg","R.jpg","0","0","1","",""
"","feedback","","html-keyboard-response","550","542519","0.0-1.0-771.0-0.0","0","0","33248","","null","","","null","85","","","","","","","","","","","","","","","",""
"","ITI","","html-keyboard-response","551","543527","0.0-1.0-774.0","0","0","33248","","null","","","null","85","","","","","","","","","","","","","","","NaN",""
"","S1","","html-keyboard-response","552","543783","0.0-1.0-776.0","0","0","33248","","null","","","null","86","","","","","","","","","","","","","","","",""
"","ISI","","html-keyboard-response","553","544287","0.0-1.0-777.0","0","0","33248","","null","","","null","86","NaN","","","","","","","","","","","","","","",""
"","S2","","html-keyboard-response","554","544543","0.0-1.0-778.0","0","0","33248","","null","","","null","86","","NaN","","","","","","","","","","","","","",""
"","response","","html-keyboard-response","555","544932","0.0-1.0-779.0-0.0","0","0","33248","","385","","","68","86","","","2","86","training","adjacent","FE","6","5","R.jpg","O.jpg","1","0","0","",""
"","feedback","","html-keyboard-response","556","545944","0.0-1.0-780.0-0.0","0","0","33248","","null","","","null","86","","","","","","","","","","","","","","","",""
"","time_out","","html-keyboard-response","557","547951","0.0-1.0-782.0-0.0","0","0","33248","","null","","","null","86","","","","","","","","","","","","","","","",""
"","ITI","","html-keyboard-response","558","548959","0.0-1.0-783.0","0","0","33248","","null","","","null","86","","","","","","","","","","","","","","","NaN",""
"","S1","","html-keyboard-response","559","549216","0.0-1.0-785.0","0","0","33248","","null","","","null","87","","","","","","","","","","","","","","","",""
"","ISI","","html-keyboard-response","560","549728","0.0-1.0-786.0","0","0","33248","","null","","","null","87","NaN","","","","","","","","","","","","","","",""
"","S2","","html-keyboard-response","561","549983","0.0-1.0-787.0","0","0","33248","","null","","","null","87","","NaN","","","","","","","","","","","","","",""
"","response","","html-keyboard-response","562","551013","0.0-1.0-788.0-0.0","0","0","33248","","1027","","","75","87","","","2","87","training","adjacent","BA","2","1","M.jpg","L.jpg","0","0","1","",""
"","feedback","","html-keyboard-response","563","552159","0.0-1.0-789.0-0.0","0","0","33248","","null","","","null","87","","","","","","","","","","","","","","","",""
"","ITI","","html-keyboard-response","564","553172","0.0-1.0-792.0","0","0","33248","","null","","","null","87","","","","","","","","","","","","","","","NaN",""
"","S1","","html-keyboard-response","565","553431","0.0-1.0-794.0","0","0","33248","","null","","","null","88","","","","","","","","","","","","","","","",""
"","ISI","","html-keyboard-response","566","553935","0.0-1.0-795.0","0","0","33248","","null","","","null","88","NaN","","","","","","","","","","","","","","",""
"","S2","","html-keyboard-response","567","554192","0.0-1.0-796.0","0","0","33248","","null","","","null","88","","NaN","","","","","","","","","","","","","",""
"","response","","html-keyboard-response","568","554363","0.0-1.0-797.0-0.0","0","0","33248","","168","","","75","88","","","2","88","training","adjacent","GF","7","6","Q.jpg","R.jpg","0","0","1","",""
"","feedback","","html-keyboard-response","569","555367","0.0-1.0-798.0-0.0","0","0","33248","","null","","","null","88","","","","","","","","","","","","","","","",""
"","ITI","","html-keyboard-response","570","556376","0.0-1.0-801.0","0","0","33248","","null","","","null","88","","","","","","","","","","","","","","","NaN",""
"","S1","","html-keyboard-response","571","556632","0.0-1.0-803.0","0","0","33248","","null","","","null","89","","","","","","","","","","","","","","","",""
"","ISI","","html-keyboard-response","572","557136","0.0-1.0-804.0","0","0","33248","","null","","","null","89","NaN","","","","","","","","","","","","","","",""
"","S2","","html-keyboard-response","573","557392","0.0-1.0-805.0","0","0","33248","","null","","","null","89","","NaN","","","","","","","","","","","","","",""
"","response","","html-keyboard-response","574","558573","0.0-1.0-806.0-0.0","0","0","33248","","1178","","","75","89","","","2","89","training","adjacent","DE","4","5","P.jpg","O.jpg","0","1","0","",""
"","feedback","","html-keyboard-response","575","560012","0.0-1.0-807.0-0.0","0","0","33248","","null","","","null","89","","","","","","","","","","","","","","","",""
"","time_out","","html-keyboard-response","576","562015","0.0-1.0-809.0-0.0","0","0","33248","","null","","","null","89","","","","","","","","","","","","","","","",""
"","ITI","","html-keyboard-response","577","563024","0.0-1.0-810.0","0","0","33248","","null","","","null","89","","","","","","","","","","","","","","","NaN",""
"","S1","","html-keyboard-response","578","563280","0.0-1.0-812.0","0","0","33248","","null","","","null","90","","","","","","","","","","","","","","","",""
"","ISI","","html-keyboard-response","579","563784","0.0-1.0-813.0","0","0","33248","","null","","","null","90","NaN","","","","","","","","","","","","","","",""
"","S2","","html-keyboard-response","580","564068","0.0-1.0-814.0","0","0","33248","","null","","","null","90","","NaN","","","","","","","","","","","","","",""
