"success","ttype","start_time","trial_type","trial_index","time_elapsed","internal_node_id","warning","missed_checkup","PID","view_history","rt","responses","repeat_instructions","key_press","index","keypress_isi","keypress_S2","block","trial_num","phase","group_type","pair_type","S1_stim","S2_stim","S1_img","S2_img","S1_chosen","S1_higher","accuracy","keypress_iti","total_bonus_tally"
"true","full_screen","d03072023hr1746","fullscreen","0","17604","0.0-0.0","0","0","24925","","","","","","","","","","","","","","","","","","","","","",""
"","instructions","","instructions","1","94344","0.0-1.0-0.0-0.0","0","0","24925","[{""page_index"":0,""viewing_time"":12168},{""page_index"":1,""viewing_time"":30850},{""page_index"":2,""viewing_time"":31533},{""page_index"":3,""viewing_time"":2184}]","76736","","","","","","","","","","","","","","","","","","","",""
"","comprehension_check","","survey-multi-choice","2","120460","0.0-1.0-0.0-1.0","0","0","24925","","26109","{""Q0"":""True"",""Q1"":""K"",""Q2"":""Once the second image appears and while the screen 'MAKE A CHOICE' is shown"",""Q3"":""Green mark"",""Q4"":""either D or K""}","0","","","","","","","","","","","","","","","","","",""
"","start_exp","","html-keyboard-response","3","123193","0.0-1.0-1.0","0","0","24925","","2726","","","32","","","","","","","","","","","","","","","","",""
"","S1","","html-keyboard-response","4","123457","0.0-1.0-2.0","0","0","24925","","null","","","null","0","","","","","","","","","","","","","","","",""
"","ISI","","html-keyboard-response","5","124472","0.0-1.0-3.0","0","0","24925","","null","","","null","0","NaN","","","","","","","","","","","","","","",""
"","S2","","html-keyboard-response","6","124737","0.0-1.0-4.0","0","0","24925","","null","","","null","0","","NaN","","","","","","","","","","","","","",""
"","response","","html-keyboard-response","7","125528","0.0-1.0-5.0-0.0","0","0","24925","","785","","","75","0","","","1","0","training","adjacent","ED","5","4","N.jpg","P.jpg","1","0","0","",""
"","feedback","","html-keyboard-response","8","126545","0.0-1.0-6.0-0.0","0","0","24925","","null","","","null","0","","","","","","","","","","","","","","","",""
"","time_out","","html-keyboard-response","9","128561","0.0-1.0-8.0-0.0","0","0","24925","","null","","","null","0","","","","","","","","","","","","","","","",""
"","ITI","","html-keyboard-response","10","129576","0.0-1.0-9.0","0","0","24925","","null","","","null","0","","","","","","","","","","","","","","","NaN",""
"","S1","","html-keyboard-response","11","129841","0.0-1.0-11.0","0","0","24925","","null","","","null","1","","","","","","","","","","","","","","","",""
"","ISI","","html-keyboard-response","12","130856","0.0-1.0-12.0","0","0","24925","","null","","","null","1","NaN","","","","","","","","","","","","","","",""
"","S2","","html-keyboard-response","13","131121","0.0-1.0-13.0","0","0","24925","","null","","","null","1","","NaN","","","","","","","","","","","","","",""
"","response","","html-keyboard-response","14","132288","0.0-1.0-14.0-0.0","0","0","24925","","1162","","","68","1","","","1","1","training","adjacent","GF","7","6","O.jpg","L.jpg","0","0","1","",""
"","feedback","","html-keyboard-response","15","133304","0.0-1.0-15.0-0.0","0","0","24925","","null","","","null","1","","","","","","","","","","","","","","","",""
"","ITI","","html-keyboard-response","16","134321","0.0-1.0-18.0","0","0","24925","","null","","","null","1","","","","","","","","","","","","","","","NaN",""
"","S1","","html-keyboard-response","17","134584","0.0-1.0-20.0","0","0","24925","","null","","","null","2","","","","","","","","","","","","","","","",""
"","ISI","","html-keyboard-response","18","135601","0.0-1.0-21.0","0","0","24925","","null","","","null","2","NaN","","","","","","","","","","","","","","",""
"","S2","","html-keyboard-response","19","135863","0.0-1.0-22.0","0","0","24925","","null","","","null","2","","NaN","","","","","","","","","","","","","",""
"","response","","html-keyboard-response","20","136840","0.0-1.0-23.0-0.0","0","0","24925","","972","","","75","2","","","1","2","training","adjacent","FE","6","5","L.jpg","N.jpg","1","0","0","",""
"","feedback","","html-keyboard-response","21","137857","0.0-1.0-24.0-0.0","0","0","24925","","null","","","null","2","","","","","","","","","","","","","","","",""
"","time_out","","html-keyboard-response","22","139873","0.0-1.0-26.0-0.0","0","0","24925","","null","","","null","2","","","","","","","","","","","","","","","",""
"","ITI","","html-keyboard-response","23","140888","0.0-1.0-27.0","0","0","24925","","null","","","null","2","","","","","","","","","","","","","","","NaN",""
"","S1","","html-keyboard-response","24","141153","0.0-1.0-29.0","0","0","24925","","null","","","null","3","","","","","","","","","","","","","","","",""
"","ISI","","html-keyboard-response","25","142168","0.0-1.0-30.0","0","0","24925","","null","","","null","3","NaN","","","","","","","","","","","","","","",""
"","S2","","html-keyboard-response","26","142433","0.0-1.0-31.0","0","0","24925","","null","","","null","3","","NaN","","","","","","","","","","","","","",""
"","response","","html-keyboard-response","27","144088","0.0-1.0-32.0-0.0","0","0","24925","","1650","","","68","3","","","1","3","training","adjacent","CD","3","4","Q.jpg","P.jpg","0","1","0","",""
"","feedback","","html-keyboard-response","28","145105","0.0-1.0-33.0-0.0","0","0","24925","","null","","","null","3","","","","","","","","","","","","","","","",""
"","time_out","","html-keyboard-response","29","147121","0.0-1.0-35.0-0.0","0","0","24925","","null","","","null","3","","","","","","","","","","","","","","","",""
"","ITI","","html-keyboard-response","30","148136","0.0-1.0-36.0","0","0","24925","","null","","","null","3","","","","","","","","","","","","","","","NaN",""
"","S1","","html-keyboard-response","31","148401","0.0-1.0-38.0","0","0","24925","","null","","","null","4","","","","","","","","","","","","","","","",""
"","ISI","","html-keyboard-response","32","149415","0.0-1.0-39.0","0","0","24925","","null","","","null","4","NaN","","","","","","","","","","","","","","",""
"","S2","","html-keyboard-response","33","149681","0.0-1.0-40.0","0","0","24925","","null","","","null","4","","NaN","","","","","","","","","","","","","",""
"","response","","html-keyboard-response","34","150617","0.0-1.0-41.0-0.0","0","0","24925","","931","","","68","4","","","1","4","training","adjacent","EF","5","6","N.jpg","L.jpg","0","1","0","",""
"","feedback","","html-keyboard-response","35","151633","0.0-1.0-42.0-0.0","0","0","24925","","null","","","null","4","","","","","","","","","","","","","","","",""
"","time_out","","html-keyboard-response","36","153649","0.0-1.0-44.0-0.0","0","0","24925","","null","","","null","4","","","","","","","","","","","","","","","",""
"","ITI","","html-keyboard-response","37","154663","0.0-1.0-45.0","0","0","24925","","null","","","null","4","","","","","","","","","","","","","","","NaN",""
"","S1","","html-keyboard-response","38","154928","0.0-1.0-47.0","0","0","24925","","null","","","null","5","","","","","","","","","","","","","","","",""
"","ISI","","html-keyboard-response","39","155943","0.0-1.0-48.0","0","0","24925","","null","","","null","5","NaN","","","","","","","","","","","","","","",""
"","S2","","html-keyboard-response","40","156209","0.0-1.0-49.0","0","0","24925","","null","","","null","5","","NaN","","","","","","","","","","","","","",""
"","response","","html-keyboard-response","41","156976","0.0-1.0-50.0-0.0","0","0","24925","","762","","","75","5","","","1","5","training","adjacent","CB","3","2","Q.jpg","R.jpg","1","0","0","",""
"","feedback","","html-keyboard-response","42","157991","0.0-1.0-51.0-0.0","0","0","24925","","null","","","null","5","","","","","","","","","","","","","","","",""
"","time_out","","html-keyboard-response","43","160008","0.0-1.0-53.0-0.0","0","0","24925","","null","","","null","5","","","","","","","","","","","","","","","",""
"","ITI","","html-keyboard-response","44","161025","0.0-1.0-54.0","0","0","24925","","null","","","null","5","","","","","","","","","","","","","","","NaN",""
"","S1","","html-keyboard-response","45","161287","0.0-1.0-56.0","0","0","24925","","null","","","null","6","","","","","","","","","","","","","","","",""
"","ISI","","html-keyboard-response","46","162305","0.0-1.0-57.0","0","0","24925","","null","","","null","6","NaN","","","","","","","","","","","","","","",""
"","S2","","html-keyboard-response","47","162567","0.0-1.0-58.0","0","0","24925","","null","","","null","6","","NaN","","","","","","","","","","","","","",""
"","response","","html-keyboard-response","48","163241","0.0-1.0-59.0-0.0","0","0","24925","","668","","","75","6","","","1","6","training","adjacent","EF","5","6","N.jpg","L.jpg","1","1","1","",""
"","feedback","","html-keyboard-response","49","164257","0.0-1.0-60.0-0.0","0","0","24925","","null","","","null","6","","","","","","","","","","","","","","","",""
"","ITI","","html-keyboard-response","50","165271","0.0-1.0-63.0","0","0","24925","","null","","","null","6","","","","","","","","","","","","","","","NaN",""
"","S1","","html-keyboard-response","51","165537","0.0-1.0-65.0","0","0","24925","","null","","","null","7","","","","","","","","","","","","","","","",""
"","ISI","","html-keyboard-response","52","166552","0.0-1.0-66.0","0","0","24925","","null","","","null","7","NaN","","","","","","","","","","","","","","",""
"","S2","","html-keyboard-response","53","166817","0.0-1.0-67.0","0","0","24925","","null","","","null","7","","NaN","","","","","","","","","","","","","",""
"","response","","html-keyboard-response","54","167528","0.0-1.0-68.0-0.0","0","0","24925","","707","","","75","7","","","1","7","training","adjacent","ED","5","4","N.jpg","P.jpg","1","0","0","",""
"","feedback","","html-keyboard-response","55","168545","0.0-1.0-69.0-0.0","0","0","24925","","null","","","null","7","","","","","","","","","","","","","","","",""
"","time_out","","html-keyboard-response","56","170561","0.0-1.0-71.0-0.0","0","0","24925","","null","","","null","7","","","","","","","","","","","","","","","",""
"","ITI","","html-keyboard-response","57","171576","0.0-1.0-72.0","0","0","24925","","null","","","null","7","","","","","","","","","","","","","","","NaN",""
"","S1","","html-keyboard-response","58","171841","0.0-1.0-74.0","0","0","24925","","null","","","null","8","","","","","","","","","","","","","","","",""
"","ISI","","html-keyboard-response","59","172855","0.0-1.0-75.0","0","0","24925","","null","","","null","8","NaN","","","","","","","","","","","","","","",""
"","S2","","html-keyboard-response","60","173121","0.0-1.0-76.0","0","0","24925","","null","","","null","8","","NaN","","","","","","","","","","","","","",""
"","response","","html-keyboard-response","61","173841","0.0-1.0-77.0-0.0","0","0","24925","","714","","","75","8","","","1","8","training","adjacent","FG","6","7","L.jpg","O.jpg","1","1","1","",""
"","feedback","","html-keyboard-response","62","174855","0.0-1.0-78.0-0.0","0","0","24925","","null","","","null","8","","","","","","","","","","","","","","","",""
"","ITI","","html-keyboard-response","63","175873","0.0-1.0-81.0","0","0","24925","","null","","","null","8","","","","","","","","","","","","","","","NaN",""
"","S1","","html-keyboard-response","64","176135","0.0-1.0-83.0","0","0","24925","","null","","","null","9","","","","","","","","","","","","","","","",""
"","ISI","","html-keyboard-response","65","177153","0.0-1.0-84.0","0","0","24925","","null","","","null","9","NaN","","","","","","","","","","","","","","",""
"","S2","","html-keyboard-response","66","177415","0.0-1.0-85.0","0","0","24925","","null","","","null","9","","NaN","","","","","","","","","","","","","",""
"","response","","html-keyboard-response","67","178232","0.0-1.0-86.0-0.0","0","0","24925","","811","","","68","9","","","1","9","training","adjacent","DC","4","3","P.jpg","Q.jpg","0","0","1","",""
"","feedback","","html-keyboard-response","68","179248","0.0-1.0-87.0-0.0","0","0","24925","","null","","","null","9","","","","","","","","","","","","","","","",""
"","ITI","","html-keyboard-response","69","180263","0.0-1.0-90.0","0","0","24925","","null","","","null","9","","","","","","","","","","","","","","","NaN",""
"","S1","","html-keyboard-response","70","180529","0.0-1.0-92.0","0","0","24925","","null","","","null","10","","","","","","","","","","","","","","","",""
"","ISI","","html-keyboard-response","71","181543","0.0-1.0-93.0","0","0","24925","","null","","","null","10","NaN","","","","","","","","","","","","","","",""
"","S2","","html-keyboard-response","72","181809","0.0-1.0-94.0","0","0","24925","","null","","","null","10","","NaN","","","","","","","","","","","","","",""
"","response","","html-keyboard-response","73","182544","0.0-1.0-95.0-0.0","0","0","24925","","729","","","68","10","","","1","10","training","adjacent","EF","5","6","N.jpg","L.jpg","0","1","0","",""
"","feedback","","html-keyboard-response","74","183559","0.0-1.0-96.0-0.0","0","0","24925","","null","","","null","10","","","","","","","","","","","","","","","",""
"","time_out","","html-keyboard-response","75","185575","0.0-1.0-98.0-0.0","0","0","24925","","null","","","null","10","","","","","","","","","","","","","","","",""
"","ITI","","html-keyboard-response","76","186593","0.0-1.0-99.0","0","0","24925","","null","","","null","10","","","","","","","","","","","","","","","NaN",""
"","S1","","html-keyboard-response","77","186855","0.0-1.0-101.0","0","0","24925","","null","","","null","11","","","","","","","","","","","","","","","",""
"","ISI","","html-keyboard-response","78","187872","0.0-1.0-102.0","0","0","24925","","null","","","null","11","NaN","","","","","","","","","","","","","","",""
"","S2","","html-keyboard-response","79","188135","0.0-1.0-103.0","0","0","24925","","null","","","null","11","","NaN","","","","","","","","","","","","","",""
"","response","","html-keyboard-response","80","188824","0.0-1.0-104.0-0.0","0","0","24925","","684","","","75","11","","","1","11","training","adjacent","AB","1","2","M.jpg","R.jpg","1","1","1","",""
"","feedback","","html-keyboard-response","81","189841","0.0-1.0-105.0-0.0","0","0","24925","","null","","","null","11","","","","","","","","","","","","","","","",""
"","ITI","","html-keyboard-response","82","190855","0.0-1.0-108.0","0","0","24925","","null","","","null","11","","","","","","","","","","","","","","","NaN",""
"","S1","","html-keyboard-response","83","191120","0.0-1.0-110.0","0","0","24925","","null","","","null","12","","","","","","","","","","","","","","","",""
"","ISI","","html-keyboard-response","84","192135","0.0-1.0-111.0","0","0","24925","","null","","","null","12","NaN","","","","","","","","","","","","","","",""
"","S2","","html-keyboard-response","85","192400","0.0-1.0-112.0","0","0","24925","","null","","","null","12","","NaN","","","","","","","","","","","","","",""
"","response","","html-keyboard-response","86","193288","0.0-1.0-113.0-0.0","0","0","24925","","882","","","75","12","","","1","12","training","adjacent","BA","2","1","R.jpg","M.jpg","1","0","0","",""
"","feedback","","html-keyboard-response","87","194304","0.0-1.0-114.0-0.0","0","0","24925","","null","","","null","12","","","","","","","","","","","","","","","",""
"","time_out","","html-keyboard-response","88","196320","0.0-1.0-116.0-0.0","0","0","24925","","null","","","null","12","","","","","","","","","","","","","","","",""
"","ITI","","html-keyboard-response","89","197335","0.0-1.0-117.0","0","0","24925","","null","","","null","12","","","","","","","","","","","","","","","NaN",""
"","S1","","html-keyboard-response","90","197600","0.0-1.0-119.0","0","0","24925","","null","","","null","13","","","","","","","","","","","","","","","",""
"","ISI","","html-keyboard-response","91","198615","0.0-1.0-120.0","0","0","24925","","null","","","null","13","NaN","","","","","","","","","","","","","","",""
"","S2","","html-keyboard-response","92","198880","0.0-1.0-121.0","0","0","24925","","null","","","null","13","","NaN","","","","","","","","","","","","","",""
"","response","","html-keyboard-response","93","199600","0.0-1.0-122.0-0.0","0","0","24925","","715","","","68","13","","","1","13","training","adjacent","ED","5","4","N.jpg","P.jpg","0","0","1","",""
"","feedback","","html-keyboard-response","94","200615","0.0-1.0-123.0-0.0","0","0","24925","","null","","","null","13","","","","","","","","","","","","","","","",""
"","ITI","","html-keyboard-response","95","201632","0.0-1.0-126.0","0","0","24925","","null","","","null","13","","","","","","","","","","","","","","","NaN",""
"","S1","","html-keyboard-response","96","201895","0.0-1.0-128.0","0","0","24925","","null","","","null","14","","","","","","","","","","","","","","","",""
"","ISI","","html-keyboard-response","97","202912","0.0-1.0-129.0","0","0","24925","","null","","","null","14","NaN","","","","","","","","","","","","","","",""
"","S2","","html-keyboard-response","98","203175","0.0-1.0-130.0","0","0","24925","","null","","","null","14","","NaN","","","","","","","","","","","","","",""
"","response","","html-keyboard-response","99","203936","0.0-1.0-131.0-0.0","0","0","24925","","755","","","68","14","","","1","14","training","adjacent","AB","1","2","M.jpg","R.jpg","0","1","0","",""
"","feedback","","html-keyboard-response","100","204951","0.0-1.0-132.0-0.0","0","0","24925","","null","","","null","14","","","","","","","","","","","","","","","",""
"","time_out","","html-keyboard-response","101","206967","0.0-1.0-134.0-0.0","0","0","24925","","null","","","null","14","","","","","","","","","","","","","","","",""
"","ITI","","html-keyboard-response","102","207984","0.0-1.0-135.0","0","0","24925","","null","","","null","14","","","","","","","","","","","","","","","NaN",""
"","S1","","html-keyboard-response","103","208247","0.0-1.0-137.0","0","0","24925","","null","","","null","15","","","","","","","","","","","","","","","",""
"","ISI","","html-keyboard-response","104","209264","0.0-1.0-138.0","0","0","24925","","null","","","null","15","NaN","","","","","","","","","","","","","","",""
"","S2","","html-keyboard-response","105","209527","0.0-1.0-139.0","0","0","24925","","null","","","null","15","","NaN","","","","","","","","","","","","","",""
"","response","","html-keyboard-response","106","210208","0.0-1.0-140.0-0.0","0","0","24925","","676","","","75","15","","","1","15","training","adjacent","DE","4","5","P.jpg","N.jpg","1","1","1","",""
"","feedback","","html-keyboard-response","107","211223","0.0-1.0-141.0-0.0","0","0","24925","","null","","","null","15","","","","","","","","","","","","","","","",""
"","ITI","","html-keyboard-response","108","212240","0.0-1.0-144.0","0","0","24925","","null","","","null","15","","","","","","","","","","","","","","","NaN",""
"","S1","","html-keyboard-response","109","212503","0.0-1.0-146.0","0","0","24925","","null","","","null","16","","","","","","","","","","","","","","","",""
"","ISI","","html-keyboard-response","110","213520","0.0-1.0-147.0","0","0","24925","","null","","","null","16","NaN","","","","","","","","","","","","","","",""
"","S2","","html-keyboard-response","111","213783","0.0-1.0-148.0","0","0","24925","","null","","","null","16","","NaN","","","","","","","","","","","","","",""
"","response","","html-keyboard-response","112","214648","0.0-1.0-149.0-0.0","0","0","24925","","859","","","68","16","","","1","16","training","adjacent","EF","5","6","N.jpg","L.jpg","0","1","0","",""
"","feedback","","html-keyboard-response","113","215663","0.0-1.0-150.0-0.0","0","0","24925","","null","","","null","16","","","","","","","","","","","","","","","",""
"","time_out","","html-keyboard-response","114","217680","0.0-1.0-152.0-0.0","0","0","24925","","null","","","null","16","","","","","","","","","","","","","","","",""
"","ITI","","html-keyboard-response","115","218692","0.0-1.0-153.0","0","0","24925","","null","","","null","16","","","","","","","","","","","","","","","NaN",""
"","S1","","html-keyboard-response","116","218960","0.0-1.0-155.0","0","0","24925","","null","","","null","17","","","","","","","","","","","","","","","",""
"","ISI","","html-keyboard-response","117","219975","0.0-1.0-156.0","0","0","24925","","null","","","null","17","NaN","","","","","","","","","","","","","","",""
"","S2","","html-keyboard-response","118","220240","0.0-1.0-157.0","0","0","24925","","null","","","null","17","","NaN","","","","","","","","","","","","","",""
"","response","","html-keyboard-response","119","220833","0.0-1.0-158.0-0.0","0","0","24925","","587","","","68","17","","","1","17","training","adjacent","GF","7","6","O.jpg","L.jpg","0","0","1","",""
"","feedback","","html-keyboard-response","120","221847","0.0-1.0-159.0-0.0","0","0","24925","","null","","","null","17","","","","","","","","","","","","","","","",""
"","ITI","","html-keyboard-response","121","222864","0.0-1.0-162.0","0","0","24925","","null","","","null","17","","","","","","","","","","","","","","","NaN",""
"","S1","","html-keyboard-response","122","223127","0.0-1.0-164.0","0","0","24925","","null","","","null","18","","","","","","","","","","","","","","","",""
"","ISI","","html-keyboard-response","123","224144","0.0-1.0-165.0","0","0","24925","","null","","","null","18","NaN","","","","","","","","","","","","","","",""
"","S2","","html-keyboard-response","124","224407","0.0-1.0-166.0","0","0","24925","","null","","","null","18","","NaN","","","","","","","","","","","","","",""
"","response","","html-keyboard-response","125","224927","0.0-1.0-167.0-0.0","0","0","24925","","516","","","75","18","","","1","18","training","adjacent","DC","4","3","P.jpg","Q.jpg","1","0","0","",""
"","feedback","","html-keyboard-response","126","225943","0.0-1.0-168.0-0.0","0","0","24925","","null","","","null","18","","","","","","","","","","","","","","","",""
"","time_out","","html-keyboard-response","127","227959","0.0-1.0-170.0-0.0","0","0","24925","","null","","","null","18","","","","","","","","","","","","","","","",""
"","ITI","","html-keyboard-response","128","228976","0.0-1.0-171.0","0","0","24925","","null","","","null","18","","","","","","","","","","","","","","","NaN",""
"","S1","","html-keyboard-response","129","229239","0.0-1.0-173.0","0","0","24925","","null","","","null","19","","","","","","","","","","","","","","","",""
"","ISI","","html-keyboard-response","130","230256","0.0-1.0-174.0","0","0","24925","","null","","","null","19","NaN","","","","","","","","","","","","","","",""
"","S2","","html-keyboard-response","131","230519","0.0-1.0-175.0","0","0","24925","","null","","","null","19","","NaN","","","","","","","","","","","","","",""
"","response","","html-keyboard-response","132","231608","0.0-1.0-176.0-0.0","0","0","24925","","1083","","","68","19","","","1","19","training","adjacent","DE","4","5","P.jpg","N.jpg","0","1","0","",""
"","feedback","","html-keyboard-response","133","232624","0.0-1.0-177.0-0.0","0","0","24925","","null","","","null","19","","","","","","","","","","","","","","","",""
"","time_out","","html-keyboard-response","134","234640","0.0-1.0-179.0-0.0","0","0","24925","","null","","","null","19","","","","","","","","","","","","","","","",""
"","ITI","","html-keyboard-response","135","235655","0.0-1.0-180.0","0","0","24925","","null","","","null","19","","","","","","","","","","","","","","","NaN",""
"","S1","","html-keyboard-response","136","235920","0.0-1.0-182.0","0","0","24925","","null","","","null","20","","","","","","","","","","","","","","","",""
"","ISI","","html-keyboard-response","137","236928","0.0-1.0-183.0","0","0","24925","","null","","","null","20","NaN","","","","","","","","","","","","","","",""
"","S2","","html-keyboard-response","138","237190","0.0-1.0-184.0","0","0","24925","","null","","","null","20","","NaN","","","","","","","","","","","","","",""
"","response","","html-keyboard-response","139","237775","0.0-1.0-185.0-0.0","0","0","24925","","580","","","75","20","","","1","20","training","adjacent","CD","3","4","Q.jpg","P.jpg","1","1","1","",""
"","feedback","","html-keyboard-response","140","238791","0.0-1.0-186.0-0.0","0","0","24925","","null","","","null","20","","","","","","","","","","","","","","","",""
"","ITI","","html-keyboard-response","141","239808","0.0-1.0-189.0","0","0","24925","","null","","","null","20","","","","","","","","","","","","","","","NaN",""
"","S1","","html-keyboard-response","142","240070","0.0-1.0-191.0","0","0","24925","","null","","","null","21","","","","","","","","","","","","","","","",""
"","ISI","","html-keyboard-response","143","241088","0.0-1.0-192.0","0","0","24925","","null","","","null","21","NaN","","","","","","","","","","","","","","",""
"","S2","","html-keyboard-response","144","241351","0.0-1.0-193.0","0","0","24925","","null","","","null","21","","NaN","","","","","","","","","","","","","",""
"","response","","html-keyboard-response","145","241920","0.0-1.0-194.0-0.0","0","0","24925","","563","","","75","21","","","1","21","training","adjacent","CB","3","2","Q.jpg","R.jpg","1","0","0","",""
"","feedback","","html-keyboard-response","146","242935","0.0-1.0-195.0-0.0","0","0","24925","","null","","","null","21","","","","","","","","","","","","","","","",""
"","time_out","","html-keyboard-response","147","244951","0.0-1.0-197.0-0.0","0","0","24925","","null","","","null","21","","","","","","","","","","","","","","","",""
"","ITI","","html-keyboard-response","148","245968","0.0-1.0-198.0","0","0","24925","","null","","","null","21","","","","","","","","","","","","","","","NaN",""
"","S1","","html-keyboard-response","149","246231","0.0-1.0-200.0","0","0","24925","","null","","","null","22","","","","","","","","","","","","","","","",""
"","ISI","","html-keyboard-response","150","247248","0.0-1.0-201.0","0","0","24925","","null","","","null","22","NaN","","","","","","","","","","","","","","",""
"","S2","","html-keyboard-response","151","247511","0.0-1.0-202.0","0","0","24925","","null","","","null","22","","NaN","","","","","","","","","","","","","",""
"","response","","html-keyboard-response","152","248167","0.0-1.0-203.0-0.0","0","0","24925","","651","","","75","22","","","1","22","training","adjacent","GF","7","6","O.jpg","L.jpg","1","0","0","",""
"","feedback","","html-keyboard-response","153","249184","0.0-1.0-204.0-0.0","0","0","24925","","null","","","null","22","","","","","","","","","","","","","","","",""
"","time_out","","html-keyboard-response","154","251200","0.0-1.0-206.0-0.0","0","0","24925","","null","","","null","22","","","","","","","","","","","","","","","",""
"","ITI","","html-keyboard-response","155","252215","0.0-1.0-207.0","0","0","24925","","null","","","null","22","","","","","","","","","","","","","","","NaN",""
"","S1","","html-keyboard-response","156","252480","0.0-1.0-209.0","0","0","24925","","null","","","null","23","","","","","","","","","","","","","","","",""
"","ISI","","html-keyboard-response","157","253494","0.0-1.0-210.0","0","0","24925","","null","","","null","23","NaN","","","","","","","","","","","","","","",""
"","S2","","html-keyboard-response","158","253760","0.0-1.0-211.0","0","0","24925","","null","","","null","23","","NaN","","","","","","","","","","","","","",""
"","response","","html-keyboard-response","159","254335","0.0-1.0-212.0-0.0","0","0","24925","","570","","","75","23","","","1","23","training","adjacent","FG","6","7","L.jpg","O.jpg","1","1","1","",""
"","feedback","","html-keyboard-response","160","255351","0.0-1.0-213.0-0.0","0","0","24925","","null","","","null","23","","","","","","","","","","","","","","","",""
"","ITI","","html-keyboard-response","161","256368","0.0-1.0-216.0","0","0","24925","","null","","","null","23","","","","","","","","","","","","","","","NaN",""
"","S1","","html-keyboard-response","162","256630","0.0-1.0-218.0","0","0","24925","","null","","","null","24","","","","","","","","","","","","","","","",""
"","ISI","","html-keyboard-response","163","257645","0.0-1.0-219.0","0","0","24925","","null","","","null","24","NaN","","","","","","","","","","","","","","",""
"","S2","","html-keyboard-response","164","257910","0.0-1.0-220.0","0","0","24925","","null","","","null","24","","NaN","","","","","","","","","","","","","",""
"","response","","html-keyboard-response","165","258518","0.0-1.0-221.0-0.0","0","0","24925","","604","","","75","24","","","1","24","training","adjacent","GF","7","6","O.jpg","L.jpg","1","0","0","",""
"","feedback","","html-keyboard-response","166","259535","0.0-1.0-222.0-0.0","0","0","24925","","null","","","null","24","","","","","","","","","","","","","","","",""
"","time_out","","html-keyboard-response","167","261551","0.0-1.0-224.0-0.0","0","0","24925","","null","","","null","24","","","","","","","","","","","","","","","",""
"","ITI","","html-keyboard-response","168","262566","0.0-1.0-225.0","0","0","24925","","null","","","null","24","","","","","","","","","","","","","","","NaN",""
"","S1","","html-keyboard-response","169","262831","0.0-1.0-227.0","0","0","24925","","null","","","null","25","","","","","","","","","","","","","","","",""
"","ISI","","html-keyboard-response","170","263846","0.0-1.0-228.0","0","0","24925","","null","","","null","25","NaN","","","","","","","","","","","","","","",""
"","S2","","html-keyboard-response","171","264111","0.0-1.0-229.0","0","0","24925","","null","","","null","25","","NaN","","","","","","","","","","","","","",""
"","response","","html-keyboard-response","172","264567","0.0-1.0-230.0-0.0","0","0","24925","","451","","","68","25","","","1","25","training","adjacent","BC","2","3","R.jpg","Q.jpg","0","1","0","",""
"","feedback","","html-keyboard-response","173","265583","0.0-1.0-231.0-0.0","0","0","24925","","null","","","null","25","","","","","","","","","","","","","","","",""
"","time_out","","html-keyboard-response","174","267600","0.0-1.0-233.0-0.0","0","0","24925","","null","","","null","25","","","","","","","","","","","","","","","",""
"","ITI","","html-keyboard-response","175","268614","0.0-1.0-234.0","0","0","24925","","null","","","null","25","","","","","","","","","","","","","","","NaN",""
"","S1","","html-keyboard-response","176","268880","0.0-1.0-236.0","0","0","24925","","null","","","null","26","","","","","","","","","","","","","","","",""
"","ISI","","html-keyboard-response","177","269894","0.0-1.0-237.0","0","0","24925","","null","","","null","26","NaN","","","","","","","","","","","","","","",""
"","S2","","html-keyboard-response","178","270160","0.0-1.0-238.0","0","0","24925","","null","","","null","26","","NaN","","","","","","","","","","","","","",""
"","response","","html-keyboard-response","179","270647","0.0-1.0-239.0-0.0","0","0","24925","","482","","","75","26","","","1","26","training","adjacent","FE","6","5","L.jpg","N.jpg","1","0","0","",""
"","feedback","","html-keyboard-response","180","271660","0.0-1.0-240.0-0.0","0","0","24925","","null","","","null","26","","","","","","","","","","","","","","","",""
"","time_out","","html-keyboard-response","181","273667","0.0-1.0-242.0-0.0","0","0","24925","","null","","","null","26","","","","","","","","","","","","","","","",""
"","ITI","","html-keyboard-response","182","274679","0.0-1.0-243.0","0","0","24925","","null","","","null","26","","","","","","","","","","","","","","","NaN",""
"","S1","","html-keyboard-response","183","274944","0.0-1.0-245.0","0","0","24925","","null","","","null","27","","","","","","","","","","","","","","","",""
"","ISI","","html-keyboard-response","184","275958","0.0-1.0-246.0","0","0","24925","","null","","","null","27","NaN","","","","","","","","","","","","","","",""
"","S2","","html-keyboard-response","185","276224","0.0-1.0-247.0","0","0","24925","","null","","","null","27","","NaN","","","","","","","","","","","","","",""
"","response","","html-keyboard-response","186","276640","0.0-1.0-248.0-0.0","0","0","24925","","411","","","75","27","","","1","27","training","adjacent","BA","2","1","R.jpg","M.jpg","1","0","0","",""
"","feedback","","html-keyboard-response","187","277654","0.0-1.0-249.0-0.0","0","0","24925","","null","","","null","27","","","","","","","","","","","","","","","",""
"","time_out","","html-keyboard-response","188","279670","0.0-1.0-251.0-0.0","0","0","24925","","null","","","null","27","","","","","","","","","","","","","","","",""
"","ITI","","html-keyboard-response","189","280688","0.0-1.0-252.0","0","0","24925","","null","","","null","27","","","","","","","","","","","","","","","NaN",""
"","S1","","html-keyboard-response","190","280950","0.0-1.0-254.0","0","0","24925","","null","","","null","28","","","","","","","","","","","","","","","",""
"","ISI","","html-keyboard-response","191","281968","0.0-1.0-255.0","0","0","24925","","null","","","null","28","NaN","","","","","","","","","","","","","","",""
"","S2","","html-keyboard-response","192","282230","0.0-1.0-256.0","0","0","24925","","null","","","null","28","","NaN","","","","","","","","","","","","","",""
"","response","","html-keyboard-response","193","282687","0.0-1.0-257.0-0.0","0","0","24925","","451","","","68","28","","","1","28","training","adjacent","BC","2","3","R.jpg","Q.jpg","0","1","0","",""
"","feedback","","html-keyboard-response","194","283703","0.0-1.0-258.0-0.0","0","0","24925","","null","","","null","28","","","","","","","","","","","","","","","",""
"","time_out","","html-keyboard-response","195","285718","0.0-1.0-260.0-0.0","0","0","24925","","null","","","null","28","","","","","","","","","","","","","","","",""
"","ITI","","html-keyboard-response","196","286735","0.0-1.0-261.0","0","0","24925","","null","","","null","28","","","","","","","","","","","","","","","NaN",""
"","S1","","html-keyboard-response","197","286998","0.0-1.0-263.0","0","0","24925","","null","","","null","29","","","","","","","","","","","","","","","",""
"","ISI","","html-keyboard-response","198","288016","0.0-1.0-264.0","0","0","24925","","null","","","null","29","NaN","","","","","","","","","","","","","","",""
"","S2","","html-keyboard-response","199","288278","0.0-1.0-265.0","0","0","24925","","null","","","null","29","","NaN","","","","","","","","","","","","","",""
"","response","","html-keyboard-response","200","288838","0.0-1.0-266.0-0.0","0","0","24925","","556","","","75","29","","","1","29","training","adjacent","FG","6","7","L.jpg","O.jpg","1","1","1","",""
"","feedback","","html-keyboard-response","201","289856","0.0-1.0-267.0-0.0","0","0","24925","","null","","","null","29","","","","","","","","","","","","","","","",""
"","ITI","","html-keyboard-response","202","290870","0.0-1.0-270.0","0","0","24925","","null","","","null","29","","","","","","","","","","","","","","","NaN",""
"","S1","","html-keyboard-response","203","291136","0.0-1.0-272.0","0","0","24925","","null","","","null","30","","","","","","","","","","","","","","","",""
"","ISI","","html-keyboard-response","204","292150","0.0-1.0-273.0","0","0","24925","","null","","","null","30","NaN","","","","","","","","","","","","","","",""
"","S2","","html-keyboard-response","205","292415","0.0-1.0-274.0","0","0","24925","","null","","","null","30","","NaN","","","","","","","","","","","","","",""
"","response","","html-keyboard-response","206","293175","0.0-1.0-275.0-0.0","0","0","24925","","754","","","68","30","","","1","30","training","adjacent","CD","3","4","Q.jpg","P.jpg","0","1","0","",""
"","feedback","","html-keyboard-response","207","294188","0.0-1.0-276.0-0.0","0","0","24925","","null","","","null","30","","","","","","","","","","","","","","","",""
"","time_out","","html-keyboard-response","208","296198","0.0-1.0-278.0-0.0","0","0","24925","","null","","","null","30","","","","","","","","","","","","","","","",""
"","ITI","","html-keyboard-response","209","297215","0.0-1.0-279.0","0","0","24925","","null","","","null","30","","","","","","","","","","","","","","","NaN",""
"","S1","","html-keyboard-response","210","297478","0.0-1.0-281.0","0","0","24925","","null","","","null","31","","","","","","","","","","","","","","","",""
"","ISI","","html-keyboard-response","211","298495","0.0-1.0-282.0","0","0","24925","","null","","","null","31","NaN","","","","","","","","","","","","","","",""
"","S2","","html-keyboard-response","212","298757","0.0-1.0-283.0","0","0","24925","","null","","","null","31","","NaN","","","","","","","","","","","","","",""
"","response","","html-keyboard-response","213","299231","0.0-1.0-284.0-0.0","0","0","24925","","469","","","68","31","","","1","31","training","adjacent","BC","2","3","R.jpg","Q.jpg","0","1","0","",""
"","feedback","","html-keyboard-response","214","300246","0.0-1.0-285.0-0.0","0","0","24925","","null","","","null","31","","","","","","","","","","","","","","","",""
"","time_out","","html-keyboard-response","215","302262","0.0-1.0-287.0-0.0","0","0","24925","","null","","","null","31","","","","","","","","","","","","","","","",""
"","ITI","","html-keyboard-response","216","303279","0.0-1.0-288.0","0","0","24925","","null","","","null","31","","","","","","","","","","","","","","","NaN",""
"","S1","","html-keyboard-response","217","303542","0.0-1.0-290.0","0","0","24925","","null","","","null","32","","","","","","","","","","","","","","","",""
"","ISI","","html-keyboard-response","218","304559","0.0-1.0-291.0","0","0","24925","","null","","","null","32","NaN","","","","","","","","","","","","","","",""
"","S2","","html-keyboard-response","219","304822","0.0-1.0-292.0","0","0","24925","","null","","","null","32","","NaN","","","","","","","","","","","","","",""
"","response","","html-keyboard-response","220","305253","0.0-1.0-293.0-0.0","0","0","24925","","427","","","75","32","","","1","32","training","adjacent","DE","4","5","P.jpg","N.jpg","1","1","1","",""
"","feedback","","html-keyboard-response","221","306271","0.0-1.0-294.0-0.0","0","0","24925","","null","","","null","32","","","","","","","","","","","","","","","",""
"","ITI","","html-keyboard-response","222","307286","0.0-1.0-297.0","0","0","24925","","null","","","null","32","","","","","","","","","","","","","","","NaN",""
"","S1","","html-keyboard-response","223","307551","0.0-1.0-299.0","0","0","24925","","null","","","null","33","","","","","","","","","","","","","","","",""
"","ISI","","html-keyboard-response","224","308566","0.0-1.0-300.0","0","0","24925","","null","","","null","33","NaN","","","","","","","","","","","","","","",""
"","S2","","html-keyboard-response","225","308831","0.0-1.0-301.0","0","0","24925","","null","","","null","33","","NaN","","","","","","","","","","","","","",""
"","response","","html-keyboard-response","226","309495","0.0-1.0-302.0-0.0","0","0","24925","","658","","","75","33","","","1","33","training","adjacent","AB","1","2","M.jpg","R.jpg","1","1","1","",""
"","feedback","","html-keyboard-response","227","310511","0.0-1.0-303.0-0.0","0","0","24925","","null","","","null","33","","","","","","","","","","","","","","","",""
"","ITI","","html-keyboard-response","228","311526","0.0-1.0-306.0","0","0","24925","","null","","","null","33","","","","","","","","","","","","","","","NaN",""
"","S1","","html-keyboard-response","229","311791","0.0-1.0-308.0","0","0","24925","","null","","","null","34","","","","","","","","","","","","","","","",""
"","ISI","","html-keyboard-response","230","312806","0.0-1.0-309.0","0","0","24925","","null","","","null","34","NaN","","","","","","","","","","","","","","",""
"","S2","","html-keyboard-response","231","313071","0.0-1.0-310.0","0","0","24925","","null","","","null","34","","NaN","","","","","","","","","","","","","",""
"","response","","html-keyboard-response","232","313567","0.0-1.0-311.0-0.0","0","0","24925","","490","","","68","34","","","1","34","training","adjacent","FG","6","7","L.jpg","O.jpg","0","1","0","",""
"","feedback","","html-keyboard-response","233","314582","0.0-1.0-312.0-0.0","0","0","24925","","null","","","null","34","","","","","","","","","","","","","","","",""
"","time_out","","html-keyboard-response","234","316598","0.0-1.0-314.0-0.0","0","0","24925","","null","","","null","34","","","","","","","","","","","","","","","",""
"","ITI","","html-keyboard-response","235","317615","0.0-1.0-315.0","0","0","24925","","null","","","null","34","","","","","","","","","","","","","","","NaN",""
"","S1","","html-keyboard-response","236","317878","0.0-1.0-317.0","0","0","24925","","null","","","null","35","","","","","","","","","","","","","","","",""
"","ISI","","html-keyboard-response","237","318895","0.0-1.0-318.0","0","0","24925","","null","","","null","35","NaN","","","","","","","","","","","","","","",""
"","S2","","html-keyboard-response","238","319158","0.0-1.0-319.0","0","0","24925","","null","","","null","35","","NaN","","","","","","","","","","","","","",""
"","response","","html-keyboard-response","239","319558","0.0-1.0-320.0-0.0","0","0","24925","","395","","","75","35","","","1","35","training","adjacent","DE","4","5","P.jpg","N.jpg","1","1","1","",""
"","feedback","","html-keyboard-response","240","320575","0.0-1.0-321.0-0.0","0","0","24925","","null","","","null","35","","","","","","","","","","","","","","","",""
"","ITI","","html-keyboard-response","241","321590","0.0-1.0-324.0","0","0","24925","","null","","","null","35","","","","","","","","","","","","","","","NaN",""
"","S1","","html-keyboard-response","242","321855","0.0-1.0-326.0","0","0","24925","","null","","","null","36","","","","","","","","","","","","","","","",""
"","ISI","","html-keyboard-response","243","322870","0.0-1.0-327.0","0","0","24925","","null","","","null","36","NaN","","","","","","","","","","","","","","",""
"","S2","","html-keyboard-response","244","323135","0.0-1.0-328.0","0","0","24925","","null","","","null","36","","NaN","","","","","","","","","","","","","",""
"","response","","html-keyboard-response","245","323647","0.0-1.0-329.0-0.0","0","0","24925","","506","","","75","36","","","1","36","training","adjacent","CB","3","2","Q.jpg","R.jpg","1","0","0","",""
"","feedback","","html-keyboard-response","246","324662","0.0-1.0-330.0-0.0","0","0","24925","","null","","","null","36","","","","","","","","","","","","","","","",""
"","time_out","","html-keyboard-response","247","326678","0.0-1.0-332.0-0.0","0","0","24925","","null","","","null","36","","","","","","","","","","","","","","","",""
"","ITI","","html-keyboard-response","248","327695","0.0-1.0-333.0","0","0","24925","","null","","","null","36","","","","","","","","","","","","","","","NaN",""
"","S1","","html-keyboard-response","249","327958","0.0-1.0-335.0","0","0","24925","","null","","","null","37","","","","","","","","","","","","","","","",""
"","ISI","","html-keyboard-response","250","328975","0.0-1.0-336.0","0","0","24925","","null","","","null","37","NaN","","","","","","","","","","","","","","",""
"","S2","","html-keyboard-response","251","329238","0.0-1.0-337.0","0","0","24925","","null","","","null","37","","NaN","","","","","","","","","","","","","",""
"","response","","html-keyboard-response","252","329847","0.0-1.0-338.0-0.0","0","0","24925","","604","","","68","37","","","1","37","training","adjacent","BA","2","1","R.jpg","M.jpg","0","0","1","",""
"","feedback","","html-keyboard-response","253","330863","0.0-1.0-339.0-0.0","0","0","24925","","null","","","null","37","","","","","","","","","","","","","","","",""
"","ITI","","html-keyboard-response","254","331878","0.0-1.0-342.0","0","0","24925","","null","","","null","37","","","","","","","","","","","","","","","NaN",""
"","S1","","html-keyboard-response","255","332143","0.0-1.0-344.0","0","0","24925","","null","","","null","38","","","","","","","","","","","","","","","",""
"","ISI","","html-keyboard-response","256","333158","0.0-1.0-345.0","0","0","24925","","null","","","null","38","NaN","","","","","","","","","","","","","","",""
"","S2","","html-keyboard-response","257","333423","0.0-1.0-346.0","0","0","24925","","null","","","null","38","","NaN","","","","","","","","","","","","","",""
"","response","","html-keyboard-response","258","333940","0.0-1.0-347.0-0.0","0","0","24925","","513","","","75","38","","","1","38","training","adjacent","CD","3","4","Q.jpg","P.jpg","1","1","1","",""
"","feedback","","html-keyboard-response","259","334949","0.0-1.0-348.0-0.0","0","0","24925","","null","","","null","38","","","","","","","","","","","","","","","",""
"","ITI","","html-keyboard-response","260","335967","0.0-1.0-351.0","0","0","24925","","null","","","null","38","","","","","","","","","","","","","","","NaN",""
"","S1","","html-keyboard-response","261","336229","0.0-1.0-353.0","0","0","24925","","null","","","null","39","","","","","","","","","","","","","","","",""
"","ISI","","html-keyboard-response","262","337247","0.0-1.0-354.0","0","0","24925","","null","","","null","39","NaN","","","","","","","","","","","","","","",""
"","S2","","html-keyboard-response","263","337509","0.0-1.0-355.0","0","0","24925","","null","","","null","39","","NaN","","","","","","","","","","","","","",""
"","response","","html-keyboard-response","264","337908","0.0-1.0-356.0-0.0","0","0","24925","","395","","","75","39","","","1","39","training","adjacent","CB","3","2","Q.jpg","R.jpg","1","0","0","",""
"","feedback","","html-keyboard-response","265","338917","0.0-1.0-357.0-0.0","0","0","24925","","null","","","null","39","","","","","","","","","","","","","","","",""
"","time_out","","html-keyboard-response","266","340934","0.0-1.0-359.0-0.0","0","0","24925","","null","","","null","39","","","","","","","","","","","","","","","",""
"","ITI","","html-keyboard-response","267","341951","0.0-1.0-360.0","0","0","24925","","null","","","null","39","","","","","","","","","","","","","","","NaN",""
"","S1","","html-keyboard-response","268","342213","0.0-1.0-362.0","0","0","24925","","null","","","null","40","","","","","","","","","","","","","","","",""
"","ISI","","html-keyboard-response","269","343231","0.0-1.0-363.0","0","0","24925","","null","","","null","40","NaN","","","","","","","","","","","","","","",""
"","S2","","html-keyboard-response","270","343493","0.0-1.0-364.0","0","0","24925","","null","","","null","40","","NaN","","","","","","","","","","","","","",""
"","response","","html-keyboard-response","271","343933","0.0-1.0-365.0-0.0","0","0","24925","","436","","","75","40","","","1","40","training","adjacent","FE","6","5","L.jpg","N.jpg","1","0","0","",""
"","feedback","","html-keyboard-response","272","344949","0.0-1.0-366.0-0.0","0","0","24925","","null","","","null","40","","","","","","","","","","","","","","","",""
"","time_out","","html-keyboard-response","273","346965","0.0-1.0-368.0-0.0","0","0","24925","","null","","","null","40","","","","","","","","","","","","","","","",""
"","ITI","","html-keyboard-response","274","347983","0.0-1.0-369.0","0","0","24925","","null","","","null","40","","","","","","","","","","","","","","","NaN",""
"","S1","","html-keyboard-response","275","348245","0.0-1.0-371.0","0","0","24925","","null","","","null","41","","","","","","","","","","","","","","","",""
"","ISI","","html-keyboard-response","276","349263","0.0-1.0-372.0","0","0","24925","","null","","","null","41","NaN","","","","","","","","","","","","","","",""
"","S2","","html-keyboard-response","277","349525","0.0-1.0-373.0","0","0","24925","","null","","","null","41","","NaN","","","","","","","","","","","","","",""
"","response","","html-keyboard-response","278","349910","0.0-1.0-374.0-0.0","0","0","24925","","380","","","75","41","","","1","41","training","adjacent","DC","4","3","P.jpg","Q.jpg","1","0","0","",""
"","feedback","","html-keyboard-response","279","350927","0.0-1.0-375.0-0.0","0","0","24925","","null","","","null","41","","","","","","","","","","","","","","","",""
"","time_out","","html-keyboard-response","280","352943","0.0-1.0-377.0-0.0","0","0","24925","","null","","","null","41","","","","","","","","","","","","","","","",""
"","ITI","","html-keyboard-response","281","353958","0.0-1.0-378.0","0","0","24925","","null","","","null","41","","","","","","","","","","","","","","","NaN",""
"","S1","","html-keyboard-response","282","354223","0.0-1.0-380.0","0","0","24925","","null","","","null","42","","","","","","","","","","","","","","","",""
"","ISI","","html-keyboard-response","283","355238","0.0-1.0-381.0","0","0","24925","","null","","","null","42","NaN","","","","","","","","","","","","","","",""
"","S2","","html-keyboard-response","284","355503","0.0-1.0-382.0","0","0","24925","","null","","","null","42","","NaN","","","","","","","","","","","","","",""
"","response","","html-keyboard-response","285","355887","0.0-1.0-383.0-0.0","0","0","24925","","378","","","75","42","","","1","42","training","adjacent","ED","5","4","N.jpg","P.jpg","1","0","0","",""
"","feedback","","html-keyboard-response","286","356901","0.0-1.0-384.0-0.0","0","0","24925","","null","","","null","42","","","","","","","","","","","","","","","",""
"","time_out","","html-keyboard-response","287","358918","0.0-1.0-386.0-0.0","0","0","24925","","null","","","null","42","","","","","","","","","","","","","","","",""
"","ITI","","html-keyboard-response","288","359935","0.0-1.0-387.0","0","0","24925","","null","","","null","42","","","","","","","","","","","","","","","NaN",""
"","S1","","html-keyboard-response","289","360198","0.0-1.0-389.0","0","0","24925","","null","","","null","43","","","","","","","","","","","","","","","",""
"","ISI","","html-keyboard-response","290","361215","0.0-1.0-390.0","0","0","24925","","null","","","null","43","NaN","","","","","","","","","","","","","","",""
"","S2","","html-keyboard-response","291","361477","0.0-1.0-391.0","0","0","24925","","null","","","null","43","","NaN","","","","","","","","","","","","","",""
"","response","","html-keyboard-response","292","361822","0.0-1.0-392.0-0.0","0","0","24925","","339","","","68","43","","","1","43","training","adjacent","AB","1","2","M.jpg","R.jpg","0","1","0","",""
"","feedback","","html-keyboard-response","293","362837","0.0-1.0-393.0-0.0","0","0","24925","","null","","","null","43","","","","","","","","","","","","","","","",""
"","time_out","","html-keyboard-response","294","364853","0.0-1.0-395.0-0.0","0","0","24925","","null","","","null","43","","","","","","","","","","","","","","","",""
"","ITI","","html-keyboard-response","295","365871","0.0-1.0-396.0","0","0","24925","","null","","","null","43","","","","","","","","","","","","","","","NaN",""
"","S1","","html-keyboard-response","296","366132","0.0-1.0-398.0","0","0","24925","","null","","","null","44","","","","","","","","","","","","","","","",""
"","ISI","","html-keyboard-response","297","367141","0.0-1.0-399.0","0","0","24925","","null","","","null","44","NaN","","","","","","","","","","","","","","",""
"","S2","","html-keyboard-response","298","367407","0.0-1.0-400.0","0","0","24925","","null","","","null","44","","NaN","","","","","","","","","","","","","",""
"","response","","html-keyboard-response","299","367767","0.0-1.0-401.0-0.0","0","0","24925","","355","","","68","44","","","1","44","training","adjacent","BA","2","1","R.jpg","M.jpg","0","0","1","",""
"","feedback","","html-keyboard-response","300","368783","0.0-1.0-402.0-0.0","0","0","24925","","null","","","null","44","","","","","","","","","","","","","","","",""
"","ITI","","html-keyboard-response","301","369797","0.0-1.0-405.0","0","0","24925","","null","","","null","44","","","","","","","","","","","","","","","NaN",""
"","S1","","html-keyboard-response","302","370063","0.0-1.0-407.0","0","0","24925","","null","","","null","45","","","","","","","","","","","","","","","",""
"","ISI","","html-keyboard-response","303","371077","0.0-1.0-408.0","0","0","24925","","null","","","null","45","NaN","","","","","","","","","","","","","","",""
"","S2","","html-keyboard-response","304","371343","0.0-1.0-409.0","0","0","24925","","null","","","null","45","","NaN","","","","","","","","","","","","","",""
"","response","","html-keyboard-response","305","371892","0.0-1.0-410.0-0.0","0","0","24925","","544","","","68","45","","","1","45","training","adjacent","FE","6","5","L.jpg","N.jpg","0","0","1","",""
"","feedback","","html-keyboard-response","306","372901","0.0-1.0-411.0-0.0","0","0","24925","","null","","","null","45","","","","","","","","","","","","","","","",""
"","ITI","","html-keyboard-response","307","373918","0.0-1.0-414.0","0","0","24925","","null","","","null","45","","","","","","","","","","","","","","","NaN",""
"","S1","","html-keyboard-response","308","374181","0.0-1.0-416.0","0","0","24925","","null","","","null","46","","","","","","","","","","","","","","","",""
"","ISI","","html-keyboard-response","309","375199","0.0-1.0-417.0","0","0","24925","","null","","","null","46","NaN","","","","","","","","","","","","","","",""
"","S2","","html-keyboard-response","310","375461","0.0-1.0-418.0","0","0","24925","","null","","","null","46","","NaN","","","","","","","","","","","","","",""
"","response","","html-keyboard-response","311","376006","0.0-1.0-419.0-0.0","0","0","24925","","539","","","68","46","","","1","46","training","adjacent","DC","4","3","P.jpg","Q.jpg","0","0","1","",""
"","feedback","","html-keyboard-response","312","377023","0.0-1.0-420.0-0.0","0","0","24925","","null","","","null","46","","","","","","","","","","","","","","","",""
"","ITI","","html-keyboard-response","313","378038","0.0-1.0-423.0","0","0","24925","","null","","","null","46","","","","","","","","","","","","","","","NaN",""
"","S1","","html-keyboard-response","314","378303","0.0-1.0-425.0","0","0","24925","","null","","","null","47","","","","","","","","","","","","","","","",""
"","ISI","","html-keyboard-response","315","379317","0.0-1.0-426.0","0","0","24925","","null","","","null","47","NaN","","","","","","","","","","","","","","",""
"","S2","","html-keyboard-response","316","379582","0.0-1.0-427.0","0","0","24925","","null","","","null","47","","NaN","","","","","","","","","","","","","",""
"","response","","html-keyboard-response","317","380046","0.0-1.0-428.0-0.0","0","0","24925","","459","","","68","47","","","1","47","training","adjacent","BC","2","3","R.jpg","Q.jpg","0","1","0","",""
"","feedback","","html-keyboard-response","318","381062","0.0-1.0-429.0-0.0","0","0","24925","","null","","","null","47","","","","","","","","","","","","","","","",""
"","time_out","","html-keyboard-response","319","383077","0.0-1.0-431.0-0.0","0","0","24925","","null","","","null","47","","","","","","","","","","","","","","","",""
"","ITI","","html-keyboard-response","320","384095","0.0-1.0-432.0","0","0","24925","","null","","","null","47","","","","","","","","","","","","","","","NaN",""
"","block_over","","html-keyboard-response","321","392527","0.0-1.0-433.0-0.0","0","0","24925","","8426","","","32","47","","","","","","","","","","","","","","","",""
"","S1","","html-keyboard-response","322","392789","0.0-1.0-434.0","0","0","24925","","null","","","null","48","","","","","","","","","","","","","","","",""
"","ISI","","html-keyboard-response","323","393806","0.0-1.0-435.0","0","0","24925","","null","","","null","48","NaN","","","","","","","","","","","","","","",""
"","S2","","html-keyboard-response","324","394069","0.0-1.0-436.0","0","0","24925","","null","","","null","48","","NaN","","","","","","","","","","","","","",""
"","response","","html-keyboard-response","325","394518","0.0-1.0-437.0-0.0","0","0","24925","","443","","","75","48","","","2","48","training","adjacent","CD","3","4","Q.jpg","P.jpg","1","1","1","",""
"","feedback","","html-keyboard-response","326","395535","0.0-1.0-438.0-0.0","0","0","24925","","null","","","null","48","","","","","","","","","","","","","","","",""
"","ITI","","html-keyboard-response","327","396543","0.0-1.0-441.0","0","0","24925","","null","","","null","48","","","","","","","","","","","","","","","NaN",""
"","S1","","html-keyboard-response","328","396805","0.0-1.0-443.0","0","0","24925","","null","","","null","49","","","","","","","","","","","","","","","",""
"","ISI","","html-keyboard-response","329","397823","0.0-1.0-444.0","0","0","24925","","null","","","null","49","NaN","","","","","","","","","","","","","","",""
"","S2","","html-keyboard-response","330","398085","0.0-1.0-445.0","0","0","24925","","null","","","null","49","","NaN","","","","","","","","","","","","","",""
"","response","","html-keyboard-response","331","398453","0.0-1.0-446.0-0.0","0","0","24925","","363","","","68","49","","","2","49","training","adjacent","DC","4","3","P.jpg","Q.jpg","0","0","1","",""
"","feedback","","html-keyboard-response","332","399471","0.0-1.0-447.0-0.0","0","0","24925","","null","","","null","49","","","","","","","","","","","","","","","",""
"","ITI","","html-keyboard-response","333","400485","0.0-1.0-450.0","0","0","24925","","null","","","null","49","","","","","","","","","","","","","","","NaN",""
"","S1","","html-keyboard-response","334","400751","0.0-1.0-452.0","0","0","24925","","null","","","null","50","","","","","","","","","","","","","","","",""
"","ISI","","html-keyboard-response","335","401765","0.0-1.0-453.0","0","0","24925","","null","","","null","50","NaN","","","","","","","","","","","","","","",""
"","S2","","html-keyboard-response","336","402031","0.0-1.0-454.0","0","0","24925","","null","","","null","50","","NaN","","","","","","","","","","","","","",""
"","response","","html-keyboard-response","337","403087","0.0-1.0-455.0-0.0","0","0","24925","","1050","","","68","50","","","2","50","training","adjacent","AB","1","2","M.jpg","R.jpg","0","1","0","",""
"","feedback","","html-keyboard-response","338","404101","0.0-1.0-456.0-0.0","0","0","24925","","null","","","null","50","","","","","","","","","","","","","","","",""
"","time_out","","html-keyboard-response","339","406117","0.0-1.0-458.0-0.0","0","0","24925","","null","","","null","50","","","","","","","","","","","","","","","",""
"","ITI","","html-keyboard-response","340","407135","0.0-1.0-459.0","0","0","24925","","null","","","null","50","","","","","","","","","","","","","","","NaN",""
"","S1","","html-keyboard-response","341","407397","0.0-1.0-461.0","0","0","24925","","null","","","null","51","","","","","","","","","","","","","","","",""
"","ISI","","html-keyboard-response","342","408415","0.0-1.0-462.0","0","0","24925","","null","","","null","51","NaN","","","","","","","","","","","","","","",""
"","S2","","html-keyboard-response","343","408677","0.0-1.0-463.0","0","0","24925","","null","","","null","51","","NaN","","","","","","","","","","","","","",""
"","response","","html-keyboard-response","344","409166","0.0-1.0-464.0-0.0","0","0","24925","","483","","","68","51","","","2","51","training","adjacent","GF","7","6","O.jpg","L.jpg","0","0","1","",""
"","feedback","","html-keyboard-response","345","410180","0.0-1.0-465.0-0.0","0","0","24925","","null","","","null","51","","","","","","","","","","","","","","","",""
"","ITI","","html-keyboard-response","346","411188","0.0-1.0-468.0","0","0","24925","","null","","","null","51","","","","","","","","","","","","","","","NaN",""
"","S1","","html-keyboard-response","347","411454","0.0-1.0-470.0","0","0","24925","","null","","","null","52","","","","","","","","","","","","","","","",""
"","ISI","","html-keyboard-response","348","412469","0.0-1.0-471.0","0","0","24925","","null","","","null","52","NaN","","","","","","","","","","","","","","",""
"","S2","","html-keyboard-response","349","412734","0.0-1.0-472.0","0","0","24925","","null","","","null","52","","NaN","","","","","","","","","","","","","",""
"","response","","html-keyboard-response","350","413142","0.0-1.0-473.0-0.0","0","0","24925","","403","","","75","52","","","2","52","training","adjacent","EF","5","6","N.jpg","L.jpg","1","1","1","",""
"","feedback","","html-keyboard-response","351","414159","0.0-1.0-474.0-0.0","0","0","24925","","null","","","null","52","","","","","","","","","","","","","","","",""
"","ITI","","html-keyboard-response","352","415173","0.0-1.0-477.0","0","0","24925","","null","","","null","52","","","","","","","","","","","","","","","NaN",""
"","S1","","html-keyboard-response","353","415439","0.0-1.0-479.0","0","0","24925","","null","","","null","53","","","","","","","","","","","","","","","",""
"","ISI","","html-keyboard-response","354","416453","0.0-1.0-480.0","0","0","24925","","null","","","null","53","NaN","","","","","","","","","","","","","","",""
"","S2","","html-keyboard-response","355","416718","0.0-1.0-481.0","0","0","24925","","null","","","null","53","","NaN","","","","","","","","","","","","","",""
"","response","","html-keyboard-response","356","417085","0.0-1.0-482.0-0.0","0","0","24925","","362","","","68","53","","","2","53","training","adjacent","FG","6","7","L.jpg","O.jpg","0","1","0","",""
"","feedback","","html-keyboard-response","357","418101","0.0-1.0-483.0-0.0","0","0","24925","","null","","","null","53","","","","","","","","","","","","","","","",""
"","time_out","","html-keyboard-response","358","420117","0.0-1.0-485.0-0.0","0","0","24925","","null","","","null","53","","","","","","","","","","","","","","","",""
"","ITI","","html-keyboard-response","359","421134","0.0-1.0-486.0","0","0","24925","","null","","","null","53","","","","","","","","","","","","","","","NaN",""
"","S1","","html-keyboard-response","360","421397","0.0-1.0-488.0","0","0","24925","","null","","","null","54","","","","","","","","","","","","","","","",""
"","ISI","","html-keyboard-response","361","422414","0.0-1.0-489.0","0","0","24925","","null","","","null","54","NaN","","","","","","","","","","","","","","",""
"","S2","","html-keyboard-response","362","422677","0.0-1.0-490.0","0","0","24925","","null","","","null","54","","NaN","","","","","","","","","","","","","",""
"","response","","html-keyboard-response","363","423382","0.0-1.0-491.0-0.0","0","0","24925","","701","","","68","54","","","2","54","training","adjacent","ED","5","4","N.jpg","P.jpg","0","0","1","",""
"","feedback","","html-keyboard-response","364","424398","0.0-1.0-492.0-0.0","0","0","24925","","null","","","null","54","","","","","","","","","","","","","","","",""
"","ITI","","html-keyboard-response","365","425413","0.0-1.0-495.0","0","0","24925","","null","","","null","54","","","","","","","","","","","","","","","NaN",""
"","S1","","html-keyboard-response","366","425678","0.0-1.0-497.0","0","0","24925","","null","","","null","55","","","","","","","","","","","","","","","",""
"","ISI","","html-keyboard-response","367","426693","0.0-1.0-498.0","0","0","24925","","null","","","null","55","NaN","","","","","","","","","","","","","","",""
"","S2","","html-keyboard-response","368","426958","0.0-1.0-499.0","0","0","24925","","null","","","null","55","","NaN","","","","","","","","","","","","","",""
"","response","","html-keyboard-response","369","427326","0.0-1.0-500.0-0.0","0","0","24925","","362","","","75","55","","","2","55","training","adjacent","GF","7","6","O.jpg","L.jpg","1","0","0","",""
"","feedback","","html-keyboard-response","370","428341","0.0-1.0-501.0-0.0","0","0","24925","","null","","","null","55","","","","","","","","","","","","","","","",""
"","time_out","","html-keyboard-response","371","430357","0.0-1.0-503.0-0.0","0","0","24925","","null","","","null","55","","","","","","","","","","","","","","","",""
"","ITI","","html-keyboard-response","372","431374","0.0-1.0-504.0","0","0","24925","","null","","","null","55","","","","","","","","","","","","","","","NaN",""
"","S1","","html-keyboard-response","373","431637","0.0-1.0-506.0","0","0","24925","","null","","","null","56","","","","","","","","","","","","","","","",""
"","ISI","","html-keyboard-response","374","432654","0.0-1.0-507.0","0","0","24925","","null","","","null","56","NaN","","","","","","","","","","","","","","",""
"","S2","","html-keyboard-response","375","432917","0.0-1.0-508.0","0","0","24925","","null","","","null","56","","NaN","","","","","","","","","","","","","",""
"","response","","html-keyboard-response","376","433286","0.0-1.0-509.0-0.0","0","0","24925","","363","","","68","56","","","2","56","training","adjacent","EF","5","6","N.jpg","L.jpg","0","1","0","",""
"","feedback","","html-keyboard-response","377","434302","0.0-1.0-510.0-0.0","0","0","24925","","null","","","null","56","","","","","","","","","","","","","","","",""
"","time_out","","html-keyboard-response","378","436317","0.0-1.0-512.0-0.0","0","0","24925","","null","","","null","56","","","","","","","","","","","","","","","",""
"","ITI","","html-keyboard-response","379","437332","0.0-1.0-513.0","0","0","24925","","null","","","null","56","","","","","","","","","","","","","","","NaN",""
"","S1","","html-keyboard-response","380","437598","0.0-1.0-515.0","0","0","24925","","null","","","null","57","","","","","","","","","","","","","","","",""
"","ISI","","html-keyboard-response","381","438613","0.0-1.0-516.0","0","0","24925","","null","","","null","57","NaN","","","","","","","","","","","","","","",""
"","S2","","html-keyboard-response","382","438878","0.0-1.0-517.0","0","0","24925","","null","","","null","57","","NaN","","","","","","","","","","","","","",""
"","response","","html-keyboard-response","383","439510","0.0-1.0-518.0-0.0","0","0","24925","","627","","","68","57","","","2","57","training","adjacent","BC","2","3","R.jpg","Q.jpg","0","1","0","",""
"","feedback","","html-keyboard-response","384","440526","0.0-1.0-519.0-0.0","0","0","24925","","null","","","null","57","","","","","","","","","","","","","","","",""
"","time_out","","html-keyboard-response","385","442542","0.0-1.0-521.0-0.0","0","0","24925","","null","","","null","57","","","","","","","","","","","","","","","",""
"","ITI","","html-keyboard-response","386","443557","0.0-1.0-522.0","0","0","24925","","null","","","null","57","","","","","","","","","","","","","","","NaN",""
"","S1","","html-keyboard-response","387","443822","0.0-1.0-524.0","0","0","24925","","null","","","null","58","","","","","","","","","","","","","","","",""
"","ISI","","html-keyboard-response","388","444837","0.0-1.0-525.0","0","0","24925","","null","","","null","58","NaN","","","","","","","","","","","","","","",""
"","S2","","html-keyboard-response","389","445102","0.0-1.0-526.0","0","0","24925","","null","","","null","58","","NaN","","","","","","","","","","","","","",""
"","response","","html-keyboard-response","390","445541","0.0-1.0-527.0-0.0","0","0","24925","","434","","","75","58","","","2","58","training","adjacent","GF","7","6","O.jpg","L.jpg","1","0","0","",""
"","feedback","","html-keyboard-response","391","446558","0.0-1.0-528.0-0.0","0","0","24925","","null","","","null","58","","","","","","","","","","","","","","","",""
"","time_out","","html-keyboard-response","392","448574","0.0-1.0-530.0-0.0","0","0","24925","","null","","","null","58","","","","","","","","","","","","","","","",""
"","ITI","","html-keyboard-response","393","449589","0.0-1.0-531.0","0","0","24925","","null","","","null","58","","","","","","","","","","","","","","","NaN",""
"","S1","","html-keyboard-response","394","449854","0.0-1.0-533.0","0","0","24925","","null","","","null","59","","","","","","","","","","","","","","","",""
"","ISI","","html-keyboard-response","395","450869","0.0-1.0-534.0","0","0","24925","","null","","","null","59","NaN","","","","","","","","","","","","","","",""
"","S2","","html-keyboard-response","396","451134","0.0-1.0-535.0","0","0","24925","","null","","","null","59","","NaN","","","","","","","","","","","","","",""
"","response","","html-keyboard-response","397","451638","0.0-1.0-536.0-0.0","0","0","24925","","499","","","75","59","","","2","59","training","adjacent","DE","4","5","P.jpg","N.jpg","1","1","1","",""
"","feedback","","html-keyboard-response","398","452654","0.0-1.0-537.0-0.0","0","0","24925","","null","","","null","59","","","","","","","","","","","","","","","",""
"","ITI","","html-keyboard-response","399","453669","0.0-1.0-540.0","0","0","24925","","null","","","null","59","","","","","","","","","","","","","","","NaN",""
"","S1","","html-keyboard-response","400","453934","0.0-1.0-542.0","0","0","24925","","null","","","null","60","","","","","","","","","","","","","","","",""
"","ISI","","html-keyboard-response","401","454948","0.0-1.0-543.0","0","0","24925","","null","","","null","60","NaN","","","","","","","","","","","","","","",""
"","S2","","html-keyboard-response","402","455214","0.0-1.0-544.0","0","0","24925","","null","","","null","60","","NaN","","","","","","","","","","","","","",""
"","response","","html-keyboard-response","403","455901","0.0-1.0-545.0-0.0","0","0","24925","","683","","","75","60","","","2","60","training","adjacent","FE","6","5","L.jpg","N.jpg","1","0","0","",""
"","feedback","","html-keyboard-response","404","456917","0.0-1.0-546.0-0.0","0","0","24925","","null","","","null","60","","","","","","","","","","","","","","","",""
"","time_out","","html-keyboard-response","405","458932","0.0-1.0-548.0-0.0","0","0","24925","","null","","","null","60","","","","","","","","","","","","","","","",""
"","ITI","","html-keyboard-response","406","459950","0.0-1.0-549.0","0","0","24925","","null","","","null","60","","","","","","","","","","","","","","","NaN",""
"","S1","","html-keyboard-response","407","460212","0.0-1.0-551.0","0","0","24925","","null","","","null","61","","","","","","","","","","","","","","","",""
"","ISI","","html-keyboard-response","408","461230","0.0-1.0-552.0","0","0","24925","","null","","","null","61","NaN","","","","","","","","","","","","","","",""
"","S2","","html-keyboard-response","409","461492","0.0-1.0-553.0","0","0","24925","","null","","","null","61","","NaN","","","","","","","","","","","","","",""
"","response","","html-keyboard-response","410","462254","0.0-1.0-554.0-0.0","0","0","24925","","756","","","68","61","","","2","61","training","adjacent","ED","5","4","N.jpg","P.jpg","0","0","1","",""
"","feedback","","html-keyboard-response","411","463269","0.0-1.0-555.0-0.0","0","0","24925","","null","","","null","61","","","","","","","","","","","","","","","",""
"","ITI","","html-keyboard-response","412","464286","0.0-1.0-558.0","0","0","24925","","null","","","null","61","","","","","","","","","","","","","","","NaN",""
"","S1","","html-keyboard-response","413","464548","0.0-1.0-560.0","0","0","24925","","null","","","null","62","","","","","","","","","","","","","","","",""
"","ISI","","html-keyboard-response","414","465566","0.0-1.0-561.0","0","0","24925","","null","","","null","62","NaN","","","","","","","","","","","","","","",""
"","S2","","html-keyboard-response","415","465828","0.0-1.0-562.0","0","0","24925","","null","","","null","62","","NaN","","","","","","","","","","","","","",""
"","response","","html-keyboard-response","416","466181","0.0-1.0-563.0-0.0","0","0","24925","","347","","","68","62","","","2","62","training","adjacent","BA","2","1","R.jpg","M.jpg","0","0","1","",""
"","feedback","","html-keyboard-response","417","467198","0.0-1.0-564.0-0.0","0","0","24925","","null","","","null","62","","","","","","","","","","","","","","","",""
"","ITI","","html-keyboard-response","418","468212","0.0-1.0-567.0","0","0","24925","","null","","","null","62","","","","","","","","","","","","","","","NaN",""
"","S1","","html-keyboard-response","419","468478","0.0-1.0-569.0","0","0","24925","","null","","","null","63","","","","","","","","","","","","","","","",""
"","ISI","","html-keyboard-response","420","469492","0.0-1.0-570.0","0","0","24925","","null","","","null","63","NaN","","","","","","","","","","","","","","",""
"","S2","","html-keyboard-response","421","469758","0.0-1.0-571.0","0","0","24925","","null","","","null","63","","NaN","","","","","","","","","","","","","",""
"","response","","html-keyboard-response","422","470645","0.0-1.0-572.0-0.0","0","0","24925","","882","","","68","63","","","2","63","training","adjacent","DE","4","5","P.jpg","N.jpg","0","1","0","",""
"","feedback","","html-keyboard-response","423","471661","0.0-1.0-573.0-0.0","0","0","24925","","null","","","null","63","","","","","","","","","","","","","","","",""
"","time_out","","html-keyboard-response","424","473678","0.0-1.0-575.0-0.0","0","0","24925","","null","","","null","63","","","","","","","","","","","","","","","",""
"","ITI","","html-keyboard-response","425","474689","0.0-1.0-576.0","0","0","24925","","null","","","null","63","","","","","","","","","","","","","","","NaN",""
"","S1","","html-keyboard-response","426","474948","0.0-1.0-578.0","0","0","24925","","null","","","null","64","","","","","","","","","","","","","","","",""
"","ISI","","html-keyboard-response","427","475966","0.0-1.0-579.0","0","0","24925","","null","","","null","64","NaN","","","","","","","","","","","","","","",""
"","S2","","html-keyboard-response","428","476228","0.0-1.0-580.0","0","0","24925","","null","","","null","64","","NaN","","","","","","","","","","","","","",""
"","response","","html-keyboard-response","429","476981","0.0-1.0-581.0-0.0","0","0","24925","","747","","","68","64","","","2","64","training","adjacent","GF","7","6","O.jpg","L.jpg","0","0","1","",""
"","feedback","","html-keyboard-response","430","477998","0.0-1.0-582.0-0.0","0","0","24925","","null","","","null","64","","","","","","","","","","","","","","","",""
"","ITI","","html-keyboard-response","431","479012","0.0-1.0-585.0","0","0","24925","","null","","","null","64","","","","","","","","","","","","","","","NaN",""
"","S1","","html-keyboard-response","432","479277","0.0-1.0-587.0","0","0","24925","","null","","","null","65","","","","","","","","","","","","","","","",""
"","ISI","","html-keyboard-response","433","480292","0.0-1.0-588.0","0","0","24925","","null","","","null","65","NaN","","","","","","","","","","","","","","",""
"","S2","","html-keyboard-response","434","480557","0.0-1.0-589.0","0","0","24925","","null","","","null","65","","NaN","","","","","","","","","","","","","",""
"","response","","html-keyboard-response","435","480933","0.0-1.0-590.0-0.0","0","0","24925","","370","","","75","65","","","2","65","training","adjacent","CD","3","4","Q.jpg","P.jpg","1","1","1","",""
"","feedback","","html-keyboard-response","436","481950","0.0-1.0-591.0-0.0","0","0","24925","","null","","","null","65","","","","","","","","","","","","","","","",""
"","ITI","","html-keyboard-response","437","482964","0.0-1.0-594.0","0","0","24925","","null","","","null","65","","","","","","","","","","","","","","","NaN",""
"","S1","","html-keyboard-response","438","483229","0.0-1.0-596.0","0","0","24925","","null","","","null","66","","","","","","","","","","","","","","","",""
"","ISI","","html-keyboard-response","439","484244","0.0-1.0-597.0","0","0","24925","","null","","","null","66","NaN","","","","","","","","","","","","","","",""
"","S2","","html-keyboard-response","440","484509","0.0-1.0-598.0","0","0","24925","","null","","","null","66","","NaN","","","","","","","","","","","","","",""
"","response","","html-keyboard-response","441","485613","0.0-1.0-599.0-0.0","0","0","24925","","1098","","","68","66","","","2","66","training","adjacent","DC","4","3","P.jpg","Q.jpg","0","0","1","",""
"","feedback","","html-keyboard-response","442","486628","0.0-1.0-600.0-0.0","0","0","24925","","null","","","null","66","","","","","","","","","","","","","","","",""
"","ITI","","html-keyboard-response","443","487645","0.0-1.0-603.0","0","0","24925","","null","","","null","66","","","","","","","","","","","","","","","NaN",""
"","S1","","html-keyboard-response","444","487908","0.0-1.0-605.0","0","0","24925","","null","","","null","67","","","","","","","","","","","","","","","",""
"","ISI","","html-keyboard-response","445","488921","0.0-1.0-606.0","0","0","24925","","null","","","null","67","NaN","","","","","","","","","","","","","","",""
"","S2","","html-keyboard-response","446","489181","0.0-1.0-607.0","0","0","24925","","null","","","null","67","","NaN","","","","","","","","","","","","","",""
"","response","","html-keyboard-response","447","489573","0.0-1.0-608.0-0.0","0","0","24925","","388","","","75","67","","","2","67","training","adjacent","FE","6","5","L.jpg","N.jpg","1","0","0","",""
"","feedback","","html-keyboard-response","448","490589","0.0-1.0-609.0-0.0","0","0","24925","","null","","","null","67","","","","","","","","","","","","","","","",""
"","time_out","","html-keyboard-response","449","492605","0.0-1.0-611.0-0.0","0","0","24925","","null","","","null","67","","","","","","","","","","","","","","","",""
"","ITI","","html-keyboard-response","450","493620","0.0-1.0-612.0","0","0","24925","","null","","","null","67","","","","","","","","","","","","","","","NaN",""
"","S1","","html-keyboard-response","451","493886","0.0-1.0-614.0","0","0","24925","","null","","","null","68","","","","","","","","","","","","","","","",""
"","ISI","","html-keyboard-response","452","494900","0.0-1.0-615.0","0","0","24925","","null","","","null","68","NaN","","","","","","","","","","","","","","",""
"","S2","","html-keyboard-response","453","495165","0.0-1.0-616.0","0","0","24925","","null","","","null","68","","NaN","","","","","","","","","","","","","",""
"","response","","html-keyboard-response","454","495757","0.0-1.0-617.0-0.0","0","0","24925","","587","","","75","68","","","2","68","training","adjacent","AB","1","2","M.jpg","R.jpg","1","1","1","",""
"","feedback","","html-keyboard-response","455","496772","0.0-1.0-618.0-0.0","0","0","24925","","null","","","null","68","","","","","","","","","","","","","","","",""
"","ITI","","html-keyboard-response","456","497789","0.0-1.0-621.0","0","0","24925","","null","","","null","68","","","","","","","","","","","","","","","NaN",""
"","S1","","html-keyboard-response","457","498052","0.0-1.0-623.0","0","0","24925","","null","","","null","69","","","","","","","","","","","","","","","",""
"","ISI","","html-keyboard-response","458","499069","0.0-1.0-624.0","0","0","24925","","null","","","null","69","NaN","","","","","","","","","","","","","","",""
"","S2","","html-keyboard-response","459","499332","0.0-1.0-625.0","0","0","24925","","null","","","null","69","","NaN","","","","","","","","","","","","","",""
"","response","","html-keyboard-response","460","500117","0.0-1.0-626.0-0.0","0","0","24925","","780","","","75","69","","","2","69","training","adjacent","CB","3","2","Q.jpg","R.jpg","1","0","0","",""
"","feedback","","html-keyboard-response","461","501133","0.0-1.0-627.0-0.0","0","0","24925","","null","","","null","69","","","","","","","","","","","","","","","",""
"","time_out","","html-keyboard-response","462","503149","0.0-1.0-629.0-0.0","0","0","24925","","null","","","null","69","","","","","","","","","","","","","","","",""
"","ITI","","html-keyboard-response","463","504164","0.0-1.0-630.0","0","0","24925","","null","","","null","69","","","","","","","","","","","","","","","NaN",""
"","S1","","html-keyboard-response","464","504429","0.0-1.0-632.0","0","0","24925","","null","","","null","70","","","","","","","","","","","","","","","",""
"","ISI","","html-keyboard-response","465","505444","0.0-1.0-633.0","0","0","24925","","null","","","null","70","NaN","","","","","","","","","","","","","","",""
"","S2","","html-keyboard-response","466","505709","0.0-1.0-634.0","0","0","24925","","null","","","null","70","","NaN","","","","","","","","","","","","","",""
"","response","","html-keyboard-response","467","506125","0.0-1.0-635.0-0.0","0","0","24925","","411","","","75","70","","","2","70","training","adjacent","ED","5","4","N.jpg","P.jpg","1","0","0","",""
"","feedback","","html-keyboard-response","468","507140","0.0-1.0-636.0-0.0","0","0","24925","","null","","","null","70","","","","","","","","","","","","","","","",""
"","time_out","","html-keyboard-response","469","509156","0.0-1.0-638.0-0.0","0","0","24925","","null","","","null","70","","","","","","","","","","","","","","","",""
"","ITI","","html-keyboard-response","470","510174","0.0-1.0-639.0","0","0","24925","","null","","","null","70","","","","","","","","","","","","","","","NaN",""
"","S1","","html-keyboard-response","471","510435","0.0-1.0-641.0","0","0","24925","","null","","","null","71","","","","","","","","","","","","","","","",""
"","ISI","","html-keyboard-response","472","511453","0.0-1.0-642.0","0","0","24925","","null","","","null","71","NaN","","","","","","","","","","","","","","",""
"","S2","","html-keyboard-response","473","511716","0.0-1.0-643.0","0","0","24925","","null","","","null","71","","NaN","","","","","","","","","","","","","",""
"","response","","html-keyboard-response","474","512238","0.0-1.0-644.0-0.0","0","0","24925","","516","","","75","71","","","2","71","training","adjacent","EF","5","6","N.jpg","L.jpg","1","1","1","",""
"","feedback","","html-keyboard-response","475","513252","0.0-1.0-645.0-0.0","0","0","24925","","null","","","null","71","","","","","","","","","","","","","","","",""
"","ITI","","html-keyboard-response","476","514269","0.0-1.0-648.0","0","0","24925","","null","","","null","71","","","","","","","","","","","","","","","NaN",""
"","S1","","html-keyboard-response","477","514532","0.0-1.0-650.0","0","0","24925","","null","","","null","72","","","","","","","","","","","","","","","",""
"","ISI","","html-keyboard-response","478","515549","0.0-1.0-651.0","0","0","24925","","null","","","null","72","NaN","","","","","","","","","","","","","","",""
"","S2","","html-keyboard-response","479","515812","0.0-1.0-652.0","0","0","24925","","null","","","null","72","","NaN","","","","","","","","","","","","","",""
"","response","","html-keyboard-response","480","516389","0.0-1.0-653.0-0.0","0","0","24925","","571","","","68","72","","","2","72","training","adjacent","CB","3","2","Q.jpg","R.jpg","0","0","1","",""
"","feedback","","html-keyboard-response","481","517405","0.0-1.0-654.0-0.0","0","0","24925","","null","","","null","72","","","","","","","","","","","","","","","",""
"","ITI","","html-keyboard-response","482","518420","0.0-1.0-657.0","0","0","24925","","null","","","null","72","","","","","","","","","","","","","","","NaN",""
"","S1","","html-keyboard-response","483","518685","0.0-1.0-659.0","0","0","24925","","null","","","null","73","","","","","","","","","","","","","","","",""
"","ISI","","html-keyboard-response","484","519700","0.0-1.0-660.0","0","0","24925","","null","","","null","73","NaN","","","","","","","","","","","","","","",""
"","S2","","html-keyboard-response","485","519965","0.0-1.0-661.0","0","0","24925","","null","","","null","73","","NaN","","","","","","","","","","","","","",""
"","response","","html-keyboard-response","486","520341","0.0-1.0-662.0-0.0","0","0","24925","","370","","","75","73","","","2","73","training","adjacent","BA","2","1","R.jpg","M.jpg","1","0","0","",""
"","feedback","","html-keyboard-response","487","521357","0.0-1.0-663.0-0.0","0","0","24925","","null","","","null","73","","","","","","","","","","","","","","","",""
"","time_out","","html-keyboard-response","488","523373","0.0-1.0-665.0-0.0","0","0","24925","","null","","","null","73","","","","","","","","","","","","","","","",""
"","ITI","","html-keyboard-response","489","524388","0.0-1.0-666.0","0","0","24925","","null","","","null","73","","","","","","","","","","","","","","","NaN",""
"","S1","","html-keyboard-response","490","524653","0.0-1.0-668.0","0","0","24925","","null","","","null","74","","","","","","","","","","","","","","","",""
"","ISI","","html-keyboard-response","491","525668","0.0-1.0-669.0","0","0","24925","","null","","","null","74","NaN","","","","","","","","","","","","","","",""
"","S2","","html-keyboard-response","492","525933","0.0-1.0-670.0","0","0","24925","","null","","","null","74","","NaN","","","","","","","","","","","","","",""
"","response","","html-keyboard-response","493","526269","0.0-1.0-671.0-0.0","0","0","24925","","330","","","75","74","","","2","74","training","adjacent","BC","2","3","R.jpg","Q.jpg","1","1","1","",""
"","feedback","","html-keyboard-response","494","527284","0.0-1.0-672.0-0.0","0","0","24925","","null","","","null","74","","","","","","","","","","","","","","","",""
"","ITI","","html-keyboard-response","495","528301","0.0-1.0-675.0","0","0","24925","","null","","","null","74","","","","","","","","","","","","","","","NaN",""
"","S1","","html-keyboard-response","496","528563","0.0-1.0-677.0","0","0","24925","","null","","","null","75","","","","","","","","","","","","","","","",""
"","ISI","","html-keyboard-response","497","529581","0.0-1.0-678.0","0","0","24925","","null","","","null","75","NaN","","","","","","","","","","","","","","",""
"","S2","","html-keyboard-response","498","529844","0.0-1.0-679.0","0","0","24925","","null","","","null","75","","NaN","","","","","","","","","","","","","",""
"","response","","html-keyboard-response","499","530269","0.0-1.0-680.0-0.0","0","0","24925","","419","","","68","75","","","2","75","training","adjacent","ED","5","4","N.jpg","P.jpg","0","0","1","",""
"","feedback","","html-keyboard-response","500","531284","0.0-1.0-681.0-0.0","0","0","24925","","null","","","null","75","","","","","","","","","","","","","","","",""
"","ITI","","html-keyboard-response","501","532301","0.0-1.0-684.0","0","0","24925","","null","","","null","75","","","","","","","","","","","","","","","NaN",""
"","S1","","html-keyboard-response","502","532564","0.0-1.0-686.0","0","0","24925","","null","","","null","76","","","","","","","","","","","","","","","",""
"","ISI","","html-keyboard-response","503","533581","0.0-1.0-687.0","0","0","24925","","null","","","null","76","NaN","","","","","","","","","","","","","","",""
"","S2","","html-keyboard-response","504","533844","0.0-1.0-688.0","0","0","24925","","null","","","null","76","","NaN","","","","","","","","","","","","","",""
"","response","","html-keyboard-response","505","534340","0.0-1.0-689.0-0.0","0","0","24925","","491","","","68","76","","","2","76","training","adjacent","AB","1","2","M.jpg","R.jpg","0","1","0","",""
"","feedback","","html-keyboard-response","506","535357","0.0-1.0-690.0-0.0","0","0","24925","","null","","","null","76","","","","","","","","","","","","","","","",""
"","time_out","","html-keyboard-response","507","537373","0.0-1.0-692.0-0.0","0","0","24925","","null","","","null","76","","","","","","","","","","","","","","","",""
"","ITI","","html-keyboard-response","508","538388","0.0-1.0-693.0","0","0","24925","","null","","","null","76","","","","","","","","","","","","","","","NaN",""
"","S1","","html-keyboard-response","509","538653","0.0-1.0-695.0","0","0","24925","","null","","","null","77","","","","","","","","","","","","","","","",""
"","ISI","","html-keyboard-response","510","539668","0.0-1.0-696.0","0","0","24925","","null","","","null","77","NaN","","","","","","","","","","","","","","",""
"","S2","","html-keyboard-response","511","539933","0.0-1.0-697.0","0","0","24925","","null","","","null","77","","NaN","","","","","","","","","","","","","",""
"","response","","html-keyboard-response","512","540446","0.0-1.0-698.0-0.0","0","0","24925","","507","","","68","77","","","2","77","training","adjacent","DC","4","3","P.jpg","Q.jpg","0","0","1","",""
"","feedback","","html-keyboard-response","513","541459","0.0-1.0-699.0-0.0","0","0","24925","","null","","","null","77","","","","","","","","","","","","","","","",""
"","ITI","","html-keyboard-response","514","542477","0.0-1.0-702.0","0","0","24925","","null","","","null","77","","","","","","","","","","","","","","","NaN",""
"","S1","","html-keyboard-response","515","542740","0.0-1.0-704.0","0","0","24925","","null","","","null","78","","","","","","","","","","","","","","","",""
"","ISI","","html-keyboard-response","516","543756","0.0-1.0-705.0","0","0","24925","","null","","","null","78","NaN","","","","","","","","","","","","","","",""
"","S2","","html-keyboard-response","517","544020","0.0-1.0-706.0","0","0","24925","","null","","","null","78","","NaN","","","","","","","","","","","","","",""
"","response","","html-keyboard-response","518","544621","0.0-1.0-707.0-0.0","0","0","24925","","595","","","75","78","","","2","78","training","adjacent","FG","6","7","L.jpg","O.jpg","1","1","1","",""
"","feedback","","html-keyboard-response","519","545636","0.0-1.0-708.0-0.0","0","0","24925","","null","","","null","78","","","","","","","","","","","","","","","",""
"","ITI","","html-keyboard-response","520","546653","0.0-1.0-711.0","0","0","24925","","null","","","null","78","","","","","","","","","","","","","","","NaN",""
"","S1","","html-keyboard-response","521","546915","0.0-1.0-713.0","0","0","24925","","null","","","null","79","","","","","","","","","","","","","","","",""
"","ISI","","html-keyboard-response","522","547933","0.0-1.0-714.0","0","0","24925","","null","","","null","79","NaN","","","","","","","","","","","","","","",""
"","S2","","html-keyboard-response","523","548196","0.0-1.0-715.0","0","0","24925","","null","","","null","79","","NaN","","","","","","","","","","","","","",""
"","response","","html-keyboard-response","524","548980","0.0-1.0-716.0-0.0","0","0","24925","","779","","","68","79","","","2","79","training","adjacent","BA","2","1","R.jpg","M.jpg","0","0","1","",""
"","feedback","","html-keyboard-response","525","549997","0.0-1.0-717.0-0.0","0","0","24925","","null","","","null","79","","","","","","","","","","","","","","","",""
"","ITI","","html-keyboard-response","526","551011","0.0-1.0-720.0","0","0","24925","","null","","","null","79","","","","","","","","","","","","","","","NaN",""
"","S1","","html-keyboard-response","527","551277","0.0-1.0-722.0","0","0","24925","","null","","","null","80","","","","","","","","","","","","","","","",""
"","ISI","","html-keyboard-response","528","552291","0.0-1.0-723.0","0","0","24925","","null","","","null","80","NaN","","","","","","","","","","","","","","",""
"","S2","","html-keyboard-response","529","552557","0.0-1.0-724.0","0","0","24925","","null","","","null","80","","NaN","","","","","","","","","","","","","",""
"","response","","html-keyboard-response","530","553669","0.0-1.0-725.0-0.0","0","0","24925","","1106","","","75","80","","","2","80","training","adjacent","EF","5","6","N.jpg","L.jpg","1","1","1","",""
"","feedback","","html-keyboard-response","531","554685","0.0-1.0-726.0-0.0","0","0","24925","","null","","","null","80","","","","","","","","","","","","","","","",""
"","ITI","","html-keyboard-response","532","555699","0.0-1.0-729.0","0","0","24925","","null","","","null","80","","","","","","","","","","","","","","","NaN",""
"","S1","","html-keyboard-response","533","555965","0.0-1.0-731.0","0","0","24925","","null","","","null","81","","","","","","","","","","","","","","","",""
"","ISI","","html-keyboard-response","534","556979","0.0-1.0-732.0","0","0","24925","","null","","","null","81","NaN","","","","","","","","","","","","","","",""
"","S2","","html-keyboard-response","535","557245","0.0-1.0-733.0","0","0","24925","","null","","","null","81","","NaN","","","","","","","","","","","","","",""
"","response","","html-keyboard-response","536","557741","0.0-1.0-734.0-0.0","0","0","24925","","490","","","75","81","","","2","81","training","adjacent","CD","3","4","Q.jpg","P.jpg","1","1","1","",""
"","feedback","","html-keyboard-response","537","558755","0.0-1.0-735.0-0.0","0","0","24925","","null","","","null","81","","","","","","","","","","","","","","","",""
"","ITI","","html-keyboard-response","538","559773","0.0-1.0-738.0","0","0","24925","","null","","","null","81","","","","","","","","","","","","","","","NaN",""
"","S1","","html-keyboard-response","539","560035","0.0-1.0-740.0","0","0","24925","","null","","","null","82","","","","","","","","","","","","","","","",""
"","ISI","","html-keyboard-response","540","561053","0.0-1.0-741.0","0","0","24925","","null","","","null","82","NaN","","","","","","","","","","","","","","",""
"","S2","","html-keyboard-response","541","561315","0.0-1.0-742.0","0","0","24925","","null","","","null","82","","NaN","","","","","","","","","","","","","",""
"","response","","html-keyboard-response","542","561924","0.0-1.0-743.0-0.0","0","0","24925","","604","","","68","82","","","2","82","training","adjacent","FE","6","5","L.jpg","N.jpg","0","0","1","",""
"","feedback","","html-keyboard-response","543","562941","0.0-1.0-744.0-0.0","0","0","24925","","null","","","null","82","","","","","","","","","","","","","","","",""
"","ITI","","html-keyboard-response","544","563955","0.0-1.0-747.0","0","0","24925","","null","","","null","82","","","","","","","","","","","","","","","NaN",""
"","S1","","html-keyboard-response","545","564221","0.0-1.0-749.0","0","0","24925","","null","","","null","83","","","","","","","","","","","","","","","",""
"","ISI","","html-keyboard-response","546","565235","0.0-1.0-750.0","0","0","24925","","null","","","null","83","NaN","","","","","","","","","","","","","","",""
"","S2","","html-keyboard-response","547","565501","0.0-1.0-751.0","0","0","24925","","null","","","null","83","","NaN","","","","","","","","","","","","","",""
"","response","","html-keyboard-response","548","565901","0.0-1.0-752.0-0.0","0","0","24925","","394","","","75","83","","","2","83","training","adjacent","CB","3","2","Q.jpg","R.jpg","1","0","0","",""
"","feedback","","html-keyboard-response","549","566915","0.0-1.0-753.0-0.0","0","0","24925","","null","","","null","83","","","","","","","","","","","","","","","",""
"","time_out","","html-keyboard-response","550","568931","0.0-1.0-755.0-0.0","0","0","24925","","null","","","null","83","","","","","","","","","","","","","","","",""
"","ITI","","html-keyboard-response","551","569949","0.0-1.0-756.0","0","0","24925","","null","","","null","83","","","","","","","","","","","","","","","NaN",""
"","S1","","html-keyboard-response","552","570211","0.0-1.0-758.0","0","0","24925","","null","","","null","84","","","","","","","","","","","","","","","",""
"","ISI","","html-keyboard-response","553","571229","0.0-1.0-759.0","0","0","24925","","null","","","null","84","NaN","","","","","","","","","","","","","","",""
"","S2","","html-keyboard-response","554","571491","0.0-1.0-760.0","0","0","24925","","null","","","null","84","","NaN","","","","","","","","","","","","","",""
"","response","","html-keyboard-response","555","571981","0.0-1.0-761.0-0.0","0","0","24925","","484","","","75","84","","","2","84","training","adjacent","CD","3","4","Q.jpg","P.jpg","1","1","1","",""
"","feedback","","html-keyboard-response","556","572994","0.0-1.0-762.0-0.0","0","0","24925","","null","","","null","84","","","","","","","","","","","","","","","",""
"","ITI","","html-keyboard-response","557","574013","0.0-1.0-765.0","0","0","24925","","null","","","null","84","","","","","","","","","","","","","","","NaN",""
"","S1","","html-keyboard-response","558","574275","0.0-1.0-767.0","0","0","24925","","null","","","null","85","","","","","","","","","","","","","","","",""
"","ISI","","html-keyboard-response","559","575292","0.0-1.0-768.0","0","0","24925","","null","","","null","85","NaN","","","","","","","","","","","","","","",""
"","S2","","html-keyboard-response","560","575555","0.0-1.0-769.0","0","0","24925","","null","","","null","85","","NaN","","","","","","","","","","","","","",""
"","response","","html-keyboard-response","561","576173","0.0-1.0-770.0-0.0","0","0","24925","","612","","","68","85","","","2","85","training","adjacent","BC","2","3","R.jpg","Q.jpg","0","1","0","",""
"","feedback","","html-keyboard-response","562","577187","0.0-1.0-771.0-0.0","0","0","24925","","null","","","null","85","","","","","","","","","","","","","","","",""
"","time_out","","html-keyboard-response","563","579203","0.0-1.0-773.0-0.0","0","0","24925","","null","","","null","85","","","","","","","","","","","","","","","",""
"","ITI","","html-keyboard-response","564","580221","0.0-1.0-774.0","0","0","24925","","null","","","null","85","","","","","","","","","","","","","","","NaN",""
"","S1","","html-keyboard-response","565","580483","0.0-1.0-776.0","0","0","24925","","null","","","null","86","","","","","","","","","","","","","","","",""
"","ISI","","html-keyboard-response","566","581501","0.0-1.0-777.0","0","0","24925","","null","","","null","86","NaN","","","","","","","","","","","","","","",""
"","S2","","html-keyboard-response","567","581763","0.0-1.0-778.0","0","0","24925","","null","","","null","86","","NaN","","","","","","","","","","","","","",""
"","response","","html-keyboard-response","568","582356","0.0-1.0-779.0-0.0","0","0","24925","","587","","","68","86","","","2","86","training","adjacent","CB","3","2","Q.jpg","R.jpg","0","0","1","",""
"","feedback","","html-keyboard-response","569","583370","0.0-1.0-780.0-0.0","0","0","24925","","null","","","null","86","","","","","","","","","","","","","","","",""
"","ITI","","html-keyboard-response","570","584381","0.0-1.0-783.0","0","0","24925","","null","","","null","86","","","","","","","","","","","","","","","NaN",""
"","S1","","html-keyboard-response","571","584643","0.0-1.0-785.0","0","0","24925","","null","","","null","87","","","","","","","","","","","","","","","",""
"","ISI","","html-keyboard-response","572","585661","0.0-1.0-786.0","0","0","24925","","null","","","null","87","NaN","","","","","","","","","","","","","","",""
"","S2","","html-keyboard-response","573","585923","0.0-1.0-787.0","0","0","24925","","null","","","null","87","","NaN","","","","","","","","","","","","","",""
"","response","","html-keyboard-response","574","586797","0.0-1.0-788.0-0.0","0","0","24925","","868","","","68","87","","","2","87","training","adjacent","DE","4","5","P.jpg","N.jpg","0","1","0","",""
"","feedback","","html-keyboard-response","575","587811","0.0-1.0-789.0-0.0","0","0","24925","","null","","","null","87","","","","","","","","","","","","","","","",""
"","time_out","","html-keyboard-response","576","589827","0.0-1.0-791.0-0.0","0","0","24925","","null","","","null","87","","","","","","","","","","","","","","","",""
"","ITI","","html-keyboard-response","577","590845","0.0-1.0-792.0","0","0","24925","","null","","","null","87","","","","","","","","","","","","","","","NaN",""
"","S1","","html-keyboard-response","578","591107","0.0-1.0-794.0","0","0","24925","","null","","","null","88","","","","","","","","","","","","","","","",""
"","ISI","","html-keyboard-response","579","592125","0.0-1.0-795.0","0","0","24925","","null","","","null","88","NaN","","","","","","","","","","","","","","",""
"","S2","","html-keyboard-response","580","592387","0.0-1.0-796.0","0","0","24925","","null","","","null","88","","NaN","","","","","","","","","","","","","",""
"","response","","html-keyboard-response","581","593124","0.0-1.0-797.0-0.0","0","0","24925","","731","","","68","88","","","2","88","training","adjacent","FE","6","5","L.jpg","N.jpg","0","0","1","",""
"","feedback","","html-keyboard-response","582","594141","0.0-1.0-798.0-0.0","0","0","24925","","null","","","null","88","","","","","","","","","","","","","","","",""
