"success","ttype","start_time","trial_type","trial_index","time_elapsed","internal_node_id","warning","missed_checkup","PID","view_history","rt","responses","repeat_instructions","key_press","index","keypress_isi","keypress_S2","block","trial_num","phase","group_type","pair_type","S1_stim","S2_stim","S1_img","S2_img","S1_chosen","S1_higher","accuracy","keypress_iti","total_bonus_tally"
"true","full_screen","d03082023hr1653","fullscreen","0","11906","0.0-0.0","0","0","52846","","","","","","","","","","","","","","","","","","","","","",""
"","instructions","","instructions","1","52707","0.0-1.0-0.0-0.0","0","0","52846","[{""page_index"":0,""viewing_time"":6293},{""page_index"":1,""viewing_time"":23370},{""page_index"":2,""viewing_time"":9300},{""page_index"":3,""viewing_time"":1835}]","40798","","","","","","","","","","","","","","","","","","","",""
"","comprehension_check","","survey-multi-choice","2","82945","0.0-1.0-0.0-1.0","0","0","52846","","30229","{""Q0"":""True"",""Q1"":""D"",""Q2"":""Once the second image appears and while the screen 'MAKE A CHOICE' is shown"",""Q3"":""Green mark"",""Q4"":""either D or K""}","0","","","","","","","","","","","","","","","","","",""
"","start_exp","","html-keyboard-response","3","85472","0.0-1.0-1.0","0","0","52846","","2522","","","32","","","","","","","","","","","","","","","","",""
"","S1","","html-keyboard-response","4","85732","0.0-1.0-2.0","0","0","52846","","null","","","null","0","","","","","","","","","","","","","","","",""
"","ISI","","html-keyboard-response","5","85888","0.0-1.0-3.0","0","0","52846","","null","","","null","0","NaN","","","","","","","","","","","","","","",""
"","S2","","html-keyboard-response","6","86151","0.0-1.0-4.0","0","0","52846","","null","","","null","0","","NaN","","","","","","","","","","","","","",""
"","response","","html-keyboard-response","7","86736","0.0-1.0-5.0-0.0","0","0","52846","","584","","","75","0","","","1","0","training","adjacent","CB","3","2","R.jpg","P.jpg","0","0","1","",""
"","feedback","","html-keyboard-response","8","87740","0.0-1.0-6.0-0.0","0","0","52846","","null","","","null","0","","","","","","","","","","","","","","","",""
"","ITI","","html-keyboard-response","9","88750","0.0-1.0-9.0","0","0","52846","","null","","","null","0","","","","","","","","","","","","","","","NaN",""
"","S1","","html-keyboard-response","10","89005","0.0-1.0-11.0","0","0","52846","","null","","","null","1","","","","","","","","","","","","","","","",""
"","ISI","","html-keyboard-response","11","89168","0.0-1.0-12.0","0","0","52846","","null","","","null","1","NaN","","","","","","","","","","","","","","",""
"","S2","","html-keyboard-response","12","89429","0.0-1.0-13.0","0","0","52846","","null","","","null","1","","NaN","","","","","","","","","","","","","",""
"","response","","html-keyboard-response","13","90095","0.0-1.0-14.0-0.0","0","0","52846","","664","","","68","1","","","1","1","training","adjacent","FE","6","5","L.jpg","O.jpg","1","0","0","",""
"","feedback","","html-keyboard-response","14","91101","0.0-1.0-15.0-0.0","0","0","52846","","null","","","null","1","","","","","","","","","","","","","","","",""
"","time_out","","html-keyboard-response","15","93109","0.0-1.0-17.0-0.0","0","0","52846","","null","","","null","1","","","","","","","","","","","","","","","",""
"","ITI","","html-keyboard-response","16","94119","0.0-1.0-18.0","0","0","52846","","null","","","null","1","","","","","","","","","","","","","","","NaN",""
"","S1","","html-keyboard-response","17","94375","0.0-1.0-20.0","0","0","52846","","null","","","null","2","","","","","","","","","","","","","","","",""
"","ISI","","html-keyboard-response","18","94536","0.0-1.0-21.0","0","0","52846","","null","","","null","2","NaN","","","","","","","","","","","","","","",""
"","S2","","html-keyboard-response","19","94798","0.0-1.0-22.0","0","0","52846","","null","","","null","2","","NaN","","","","","","","","","","","","","",""
"","response","","html-keyboard-response","20","95455","0.0-1.0-23.0-0.0","0","0","52846","","655","","","68","2","","","1","2","training","adjacent","CB","3","2","R.jpg","P.jpg","1","0","0","",""
"","feedback","","html-keyboard-response","21","96462","0.0-1.0-24.0-0.0","0","0","52846","","null","","","null","2","","","","","","","","","","","","","","","",""
"","time_out","","html-keyboard-response","22","98468","0.0-1.0-26.0-0.0","0","0","52846","","null","","","null","2","","","","","","","","","","","","","","","",""
"","ITI","","html-keyboard-response","23","99478","0.0-1.0-27.0","0","0","52846","","null","","","null","2","","","","","","","","","","","","","","","NaN",""
"","S1","","html-keyboard-response","24","99733","0.0-1.0-29.0","0","0","52846","","null","","","null","3","","","","","","","","","","","","","","","",""
"","ISI","","html-keyboard-response","25","99895","0.0-1.0-30.0","0","0","52846","","null","","","null","3","NaN","","","","","","","","","","","","","","",""
"","S2","","html-keyboard-response","26","100151","0.0-1.0-31.0","0","0","52846","","null","","","null","3","","NaN","","","","","","","","","","","","","",""
"","response","","html-keyboard-response","27","100537","0.0-1.0-32.0-0.0","0","0","52846","","385","","","75","3","","","1","3","training","adjacent","CD","3","4","R.jpg","N.jpg","0","1","0","",""
"","feedback","","html-keyboard-response","28","101545","0.0-1.0-33.0-0.0","0","0","52846","","null","","","null","3","","","","","","","","","","","","","","","",""
"","time_out","","html-keyboard-response","29","103552","0.0-1.0-35.0-0.0","0","0","52846","","null","","","null","3","","","","","","","","","","","","","","","",""
"","ITI","","html-keyboard-response","30","104557","0.0-1.0-36.0","0","0","52846","","null","","","null","3","","","","","","","","","","","","","","","NaN",""
"","S1","","html-keyboard-response","31","104814","0.0-1.0-38.0","0","0","52846","","null","","","null","4","","","","","","","","","","","","","","","",""
"","ISI","","html-keyboard-response","32","104975","0.0-1.0-39.0","0","0","52846","","null","","","null","4","NaN","","","","","","","","","","","","","","",""
"","S2","","html-keyboard-response","33","105231","0.0-1.0-40.0","0","0","52846","","null","","","null","4","","NaN","","","","","","","","","","","","","",""
"","response","","html-keyboard-response","34","105707","0.0-1.0-41.0-0.0","0","0","52846","","474","","","75","4","","","1","4","training","adjacent","GF","7","6","Q.jpg","L.jpg","0","0","1","",""
"","feedback","","html-keyboard-response","35","106717","0.0-1.0-42.0-0.0","0","0","52846","","null","","","null","4","","","","","","","","","","","","","","","",""
"","ITI","","html-keyboard-response","36","107727","0.0-1.0-45.0","0","0","52846","","null","","","null","4","","","","","","","","","","","","","","","NaN",""
"","S1","","html-keyboard-response","37","107982","0.0-1.0-47.0","0","0","52846","","null","","","null","5","","","","","","","","","","","","","","","",""
"","ISI","","html-keyboard-response","38","108144","0.0-1.0-48.0","0","0","52846","","null","","","null","5","NaN","","","","","","","","","","","","","","",""
"","S2","","html-keyboard-response","39","108406","0.0-1.0-49.0","0","0","52846","","null","","","null","5","","NaN","","","","","","","","","","","","","",""
"","response","","html-keyboard-response","40","108660","0.0-1.0-50.0-0.0","0","0","52846","","252","","","68","5","","","1","5","training","adjacent","FG","6","7","L.jpg","Q.jpg","1","1","1","",""
"","feedback","","html-keyboard-response","41","109671","0.0-1.0-51.0-0.0","0","0","52846","","null","","","null","5","","","","","","","","","","","","","","","",""
"","ITI","","html-keyboard-response","42","110678","0.0-1.0-54.0","0","0","52846","","null","","","null","5","","","","","","","","","","","","","","","NaN",""
"","S1","","html-keyboard-response","43","110937","0.0-1.0-56.0","0","0","52846","","null","","","null","6","","","","","","","","","","","","","","","",""
"","ISI","","html-keyboard-response","44","111095","0.0-1.0-57.0","0","0","52846","","null","","","null","6","NaN","","","","","","","","","","","","","","",""
"","S2","","html-keyboard-response","45","111349","0.0-1.0-58.0","0","0","52846","","null","","","null","6","","NaN","","","","","","","","","","","","","",""
"","response","","html-keyboard-response","46","111626","0.0-1.0-59.0-0.0","0","0","52846","","274","","","68","6","","","1","6","training","adjacent","FG","6","7","L.jpg","Q.jpg","1","1","1","",""
"","feedback","","html-keyboard-response","47","112632","0.0-1.0-60.0-0.0","0","0","52846","","null","","","null","6","","","","","","","","","","","","","","","",""
"","ITI","","html-keyboard-response","48","113637","0.0-1.0-63.0","0","0","52846","","null","","","null","6","","","","","","","","","","","","","","","NaN",""
"","S1","","html-keyboard-response","49","113896","0.0-1.0-65.0","0","0","52846","","null","","","null","7","","","","","","","","","","","","","","","",""
"","ISI","","html-keyboard-response","50","114055","0.0-1.0-66.0","0","0","52846","","null","","","null","7","NaN","","","","","","","","","","","","","","",""
"","S2","","html-keyboard-response","51","114312","0.0-1.0-67.0","0","0","52846","","null","","","null","7","","NaN","","","","","","","","","","","","","",""
"","response","","html-keyboard-response","52","114574","0.0-1.0-68.0-0.0","0","0","52846","","260","","","75","7","","","1","7","training","adjacent","CB","3","2","R.jpg","P.jpg","0","0","1","",""
"","feedback","","html-keyboard-response","53","115581","0.0-1.0-69.0-0.0","0","0","52846","","null","","","null","7","","","","","","","","","","","","","","","",""
"","ITI","","html-keyboard-response","54","116592","0.0-1.0-72.0","0","0","52846","","null","","","null","7","","","","","","","","","","","","","","","NaN",""
"","S1","","html-keyboard-response","55","116853","0.0-1.0-74.0","0","0","52846","","null","","","null","8","","","","","","","","","","","","","","","",""
"","ISI","","html-keyboard-response","56","117015","0.0-1.0-75.0","0","0","52846","","null","","","null","8","NaN","","","","","","","","","","","","","","",""
"","S2","","html-keyboard-response","57","117271","0.0-1.0-76.0","0","0","52846","","null","","","null","8","","NaN","","","","","","","","","","","","","",""
"","response","","html-keyboard-response","58","117553","0.0-1.0-77.0-0.0","0","0","52846","","280","","","75","8","","","1","8","training","adjacent","AB","1","2","M.jpg","P.jpg","0","1","0","",""
"","feedback","","html-keyboard-response","59","118559","0.0-1.0-78.0-0.0","0","0","52846","","null","","","null","8","","","","","","","","","","","","","","","",""
"","time_out","","html-keyboard-response","60","120568","0.0-1.0-80.0-0.0","0","0","52846","","null","","","null","8","","","","","","","","","","","","","","","",""
"","ITI","","html-keyboard-response","61","121576","0.0-1.0-81.0","0","0","52846","","null","","","null","8","","","","","","","","","","","","","","","NaN",""
"","S1","","html-keyboard-response","62","121829","0.0-1.0-83.0","0","0","52846","","null","","","null","9","","","","","","","","","","","","","","","",""
"","ISI","","html-keyboard-response","63","121984","0.0-1.0-84.0","0","0","52846","","null","","","null","9","NaN","","","","","","","","","","","","","","",""
"","S2","","html-keyboard-response","64","122240","0.0-1.0-85.0","0","0","52846","","null","","","null","9","","NaN","","","","","","","","","","","","","",""
"","response","","html-keyboard-response","65","122631","0.0-1.0-86.0-0.0","0","0","52846","","390","","","68","9","","","1","9","training","adjacent","CD","3","4","R.jpg","N.jpg","1","1","1","",""
"","feedback","","html-keyboard-response","66","123639","0.0-1.0-87.0-0.0","0","0","52846","","null","","","null","9","","","","","","","","","","","","","","","",""
"","ITI","","html-keyboard-response","67","124648","0.0-1.0-90.0","0","0","52846","","null","","","null","9","","","","","","","","","","","","","","","NaN",""
"","S1","","html-keyboard-response","68","124904","0.0-1.0-92.0","0","0","52846","","null","","","null","10","","","","","","","","","","","","","","","",""
"","ISI","","html-keyboard-response","69","125061","0.0-1.0-93.0","0","0","52846","","null","","","null","10","NaN","","","","","","","","","","","","","","",""
"","S2","","html-keyboard-response","70","125317","0.0-1.0-94.0","0","0","52846","","null","","","null","10","","NaN","","","","","","","","","","","","","",""
"","response","","html-keyboard-response","71","125593","0.0-1.0-95.0-0.0","0","0","52846","","274","","","68","10","","","1","10","training","adjacent","FG","6","7","L.jpg","Q.jpg","1","1","1","",""
"","feedback","","html-keyboard-response","72","126599","0.0-1.0-96.0-0.0","0","0","52846","","null","","","null","10","","","","","","","","","","","","","","","",""
"","ITI","","html-keyboard-response","73","127611","0.0-1.0-99.0","0","0","52846","","null","","","null","10","","","","","","","","","","","","","","","NaN",""
"","S1","","html-keyboard-response","74","127871","0.0-1.0-101.0","0","0","52846","","null","","","null","11","","","","","","","","","","","","","","","",""
"","ISI","","html-keyboard-response","75","128033","0.0-1.0-102.0","0","0","52846","","null","","","null","11","NaN","","","","","","","","","","","","","","",""
"","S2","","html-keyboard-response","76","128294","0.0-1.0-103.0","0","0","52846","","null","","","null","11","","NaN","","","","","","","","","","","","","",""
"","response","","html-keyboard-response","77","128796","0.0-1.0-104.0-0.0","0","0","52846","","501","","","75","11","","","1","11","training","adjacent","DC","4","3","N.jpg","R.jpg","0","0","1","",""
"","feedback","","html-keyboard-response","78","129806","0.0-1.0-105.0-0.0","0","0","52846","","null","","","null","11","","","","","","","","","","","","","","","",""
"","ITI","","html-keyboard-response","79","130814","0.0-1.0-108.0","0","0","52846","","null","","","null","11","","","","","","","","","","","","","","","NaN",""
"","S1","","html-keyboard-response","80","131072","0.0-1.0-110.0","0","0","52846","","null","","","null","12","","","","","","","","","","","","","","","",""
"","ISI","","html-keyboard-response","81","131229","0.0-1.0-111.0","0","0","52846","","null","","","null","12","NaN","","","","","","","","","","","","","","",""
"","S2","","html-keyboard-response","82","131487","0.0-1.0-112.0","0","0","52846","","null","","","null","12","","NaN","","","","","","","","","","","","","",""
"","response","","html-keyboard-response","83","131798","0.0-1.0-113.0-0.0","0","0","52846","","310","","","75","12","","","1","12","training","adjacent","EF","5","6","O.jpg","L.jpg","0","1","0","",""
"","feedback","","html-keyboard-response","84","132807","0.0-1.0-114.0-0.0","0","0","52846","","null","","","null","12","","","","","","","","","","","","","","","",""
"","time_out","","html-keyboard-response","85","134813","0.0-1.0-116.0-0.0","0","0","52846","","null","","","null","12","","","","","","","","","","","","","","","",""
"","ITI","","html-keyboard-response","86","135824","0.0-1.0-117.0","0","0","52846","","null","","","null","12","","","","","","","","","","","","","","","NaN",""
"","S1","","html-keyboard-response","87","136080","0.0-1.0-119.0","0","0","52846","","null","","","null","13","","","","","","","","","","","","","","","",""
"","ISI","","html-keyboard-response","88","136238","0.0-1.0-120.0","0","0","52846","","null","","","null","13","NaN","","","","","","","","","","","","","","",""
"","S2","","html-keyboard-response","89","136497","0.0-1.0-121.0","0","0","52846","","null","","","null","13","","NaN","","","","","","","","","","","","","",""
"","response","","html-keyboard-response","90","136784","0.0-1.0-122.0-0.0","0","0","52846","","284","","","68","13","","","1","13","training","adjacent","ED","5","4","O.jpg","N.jpg","1","0","0","",""
"","feedback","","html-keyboard-response","91","137792","0.0-1.0-123.0-0.0","0","0","52846","","null","","","null","13","","","","","","","","","","","","","","","",""
"","time_out","","html-keyboard-response","92","139800","0.0-1.0-125.0-0.0","0","0","52846","","null","","","null","13","","","","","","","","","","","","","","","",""
"","ITI","","html-keyboard-response","93","140805","0.0-1.0-126.0","0","0","52846","","null","","","null","13","","","","","","","","","","","","","","","NaN",""
"","S1","","html-keyboard-response","94","141065","0.0-1.0-128.0","0","0","52846","","null","","","null","14","","","","","","","","","","","","","","","",""
"","ISI","","html-keyboard-response","95","141219","0.0-1.0-129.0","0","0","52846","","null","","","null","14","NaN","","","","","","","","","","","","","","",""
"","S2","","html-keyboard-response","96","141478","0.0-1.0-130.0","0","0","52846","","null","","","null","14","","NaN","","","","","","","","","","","","","",""
"","response","","html-keyboard-response","97","141800","0.0-1.0-131.0-0.0","0","0","52846","","321","","","68","14","","","1","14","training","adjacent","BC","2","3","P.jpg","R.jpg","1","1","1","",""
"","feedback","","html-keyboard-response","98","142808","0.0-1.0-132.0-0.0","0","0","52846","","null","","","null","14","","","","","","","","","","","","","","","",""
"","ITI","","html-keyboard-response","99","143818","0.0-1.0-135.0","0","0","52846","","null","","","null","14","","","","","","","","","","","","","","","NaN",""
"","S1","","html-keyboard-response","100","144079","0.0-1.0-137.0","0","0","52846","","null","","","null","15","","","","","","","","","","","","","","","",""
"","ISI","","html-keyboard-response","101","144241","0.0-1.0-138.0","0","0","52846","","null","","","null","15","NaN","","","","","","","","","","","","","","",""
"","S2","","html-keyboard-response","102","144496","0.0-1.0-139.0","0","0","52846","","null","","","null","15","","NaN","","","","","","","","","","","","","",""
"","response","","html-keyboard-response","103","144829","0.0-1.0-140.0-0.0","0","0","52846","","331","","","75","15","","","1","15","training","adjacent","DC","4","3","N.jpg","R.jpg","0","0","1","",""
"","feedback","","html-keyboard-response","104","145839","0.0-1.0-141.0-0.0","0","0","52846","","null","","","null","15","","","","","","","","","","","","","","","",""
"","ITI","","html-keyboard-response","105","146848","0.0-1.0-144.0","0","0","52846","","null","","","null","15","","","","","","","","","","","","","","","NaN",""
"","S1","","html-keyboard-response","106","147103","0.0-1.0-146.0","0","0","52846","","null","","","null","16","","","","","","","","","","","","","","","",""
"","ISI","","html-keyboard-response","107","147267","0.0-1.0-147.0","0","0","52846","","null","","","null","16","NaN","","","","","","","","","","","","","","",""
"","S2","","html-keyboard-response","108","147526","0.0-1.0-148.0","0","0","52846","","null","","","null","16","","NaN","","","","","","","","","","","","","",""
"","response","","html-keyboard-response","109","147755","0.0-1.0-149.0-0.0","0","0","52846","","227","","","68","16","","","1","16","training","adjacent","BA","2","1","P.jpg","M.jpg","1","0","0","",""
"","feedback","","html-keyboard-response","110","148757","0.0-1.0-150.0-0.0","0","0","52846","","null","","","null","16","","","","","","","","","","","","","","","",""
"","time_out","","html-keyboard-response","111","150766","0.0-1.0-152.0-0.0","0","0","52846","","null","","","null","16","","","","","","","","","","","","","","","",""
"","ITI","","html-keyboard-response","112","151776","0.0-1.0-153.0","0","0","52846","","null","","","null","16","","","","","","","","","","","","","","","NaN",""
"","S1","","html-keyboard-response","113","152033","0.0-1.0-155.0","0","0","52846","","null","","","null","17","","","","","","","","","","","","","","","",""
"","ISI","","html-keyboard-response","114","152192","0.0-1.0-156.0","0","0","52846","","null","","","null","17","NaN","","","","","","","","","","","","","","",""
"","S2","","html-keyboard-response","115","152450","0.0-1.0-157.0","0","0","52846","","null","","","null","17","","NaN","","","","","","","","","","","","","",""
"","response","","html-keyboard-response","116","152765","0.0-1.0-158.0-0.0","0","0","52846","","313","","","68","17","","","1","17","training","adjacent","ED","5","4","O.jpg","N.jpg","1","0","0","",""
"","feedback","","html-keyboard-response","117","153775","0.0-1.0-159.0-0.0","0","0","52846","","null","","","null","17","","","","","","","","","","","","","","","",""
"","time_out","","html-keyboard-response","118","155782","0.0-1.0-161.0-0.0","0","0","52846","","null","","","null","17","","","","","","","","","","","","","","","",""
"","ITI","","html-keyboard-response","119","156792","0.0-1.0-162.0","0","0","52846","","null","","","null","17","","","","","","","","","","","","","","","NaN",""
"","S1","","html-keyboard-response","120","157047","0.0-1.0-164.0","0","0","52846","","null","","","null","18","","","","","","","","","","","","","","","",""
"","ISI","","html-keyboard-response","121","157211","0.0-1.0-165.0","0","0","52846","","null","","","null","18","NaN","","","","","","","","","","","","","","",""
"","S2","","html-keyboard-response","122","157471","0.0-1.0-166.0","0","0","52846","","null","","","null","18","","NaN","","","","","","","","","","","","","",""
"","response","","html-keyboard-response","123","157766","0.0-1.0-167.0-0.0","0","0","52846","","294","","","75","18","","","1","18","training","adjacent","EF","5","6","O.jpg","L.jpg","0","1","0","",""
"","feedback","","html-keyboard-response","124","158777","0.0-1.0-168.0-0.0","0","0","52846","","null","","","null","18","","","","","","","","","","","","","","","",""
"","time_out","","html-keyboard-response","125","160786","0.0-1.0-170.0-0.0","0","0","52846","","null","","","null","18","","","","","","","","","","","","","","","",""
"","ITI","","html-keyboard-response","126","161790","0.0-1.0-171.0","0","0","52846","","null","","","null","18","","","","","","","","","","","","","","","NaN",""
"","S1","","html-keyboard-response","127","162046","0.0-1.0-173.0","0","0","52846","","null","","","null","19","","","","","","","","","","","","","","","",""
"","ISI","","html-keyboard-response","128","162209","0.0-1.0-174.0","0","0","52846","","null","","","null","19","NaN","","","","","","","","","","","","","","",""
"","S2","","html-keyboard-response","129","162465","0.0-1.0-175.0","0","0","52846","","null","","","null","19","","NaN","","","","","","","","","","","","","",""
"","response","","html-keyboard-response","130","162745","0.0-1.0-176.0-0.0","0","0","52846","","279","","","68","19","","","1","19","training","adjacent","FG","6","7","L.jpg","Q.jpg","1","1","1","",""
"","feedback","","html-keyboard-response","131","163753","0.0-1.0-177.0-0.0","0","0","52846","","null","","","null","19","","","","","","","","","","","","","","","",""
"","ITI","","html-keyboard-response","132","164758","0.0-1.0-180.0","0","0","52846","","null","","","null","19","","","","","","","","","","","","","","","NaN",""
"","S1","","html-keyboard-response","133","165018","0.0-1.0-182.0","0","0","52846","","null","","","null","20","","","","","","","","","","","","","","","",""
"","ISI","","html-keyboard-response","134","165177","0.0-1.0-183.0","0","0","52846","","null","","","null","20","NaN","","","","","","","","","","","","","","",""
"","S2","","html-keyboard-response","135","165430","0.0-1.0-184.0","0","0","52846","","null","","","null","20","","NaN","","","","","","","","","","","","","",""
"","response","","html-keyboard-response","136","165607","0.0-1.0-185.0-0.0","0","0","52846","","175","","","75","20","","","1","20","training","adjacent","GF","7","6","Q.jpg","L.jpg","0","0","1","",""
"","feedback","","html-keyboard-response","137","166615","0.0-1.0-186.0-0.0","0","0","52846","","null","","","null","20","","","","","","","","","","","","","","","",""
"","ITI","","html-keyboard-response","138","167624","0.0-1.0-189.0","0","0","52846","","null","","","null","20","","","","","","","","","","","","","","","NaN",""
"","S1","","html-keyboard-response","139","167880","0.0-1.0-191.0","0","0","52846","","null","","","null","21","","","","","","","","","","","","","","","",""
"","ISI","","html-keyboard-response","140","168043","0.0-1.0-192.0","0","0","52846","","null","","","null","21","NaN","","","","","","","","","","","","","","",""
"","S2","","html-keyboard-response","141","168303","0.0-1.0-193.0","0","0","52846","","null","","","null","21","","NaN","","","","","","","","","","","","","",""
"","response","","html-keyboard-response","142","168572","0.0-1.0-194.0-0.0","0","0","52846","","267","","","68","21","","","1","21","training","adjacent","EF","5","6","O.jpg","L.jpg","1","1","1","",""
"","feedback","","html-keyboard-response","143","169587","0.0-1.0-195.0-0.0","0","0","52846","","null","","","null","21","","","","","","","","","","","","","","","",""
"","ITI","","html-keyboard-response","144","170591","0.0-1.0-198.0","0","0","52846","","null","","","null","21","","","","","","","","","","","","","","","NaN",""
"","S1","","html-keyboard-response","145","170846","0.0-1.0-200.0","0","0","52846","","null","","","null","22","","","","","","","","","","","","","","","",""
"","ISI","","html-keyboard-response","146","171008","0.0-1.0-201.0","0","0","52846","","null","","","null","22","NaN","","","","","","","","","","","","","","",""
"","S2","","html-keyboard-response","147","171265","0.0-1.0-202.0","0","0","52846","","null","","","null","22","","NaN","","","","","","","","","","","","","",""
"","response","","html-keyboard-response","148","171611","0.0-1.0-203.0-0.0","0","0","52846","","343","","","68","22","","","1","22","training","adjacent","EF","5","6","O.jpg","L.jpg","1","1","1","",""
"","feedback","","html-keyboard-response","149","172617","0.0-1.0-204.0-0.0","0","0","52846","","null","","","null","22","","","","","","","","","","","","","","","",""
"","ITI","","html-keyboard-response","150","173623","0.0-1.0-207.0","0","0","52846","","null","","","null","22","","","","","","","","","","","","","","","NaN",""
"","S1","","html-keyboard-response","151","173883","0.0-1.0-209.0","0","0","52846","","null","","","null","23","","","","","","","","","","","","","","","",""
"","ISI","","html-keyboard-response","152","174040","0.0-1.0-210.0","0","0","52846","","null","","","null","23","NaN","","","","","","","","","","","","","","",""
"","S2","","html-keyboard-response","153","174296","0.0-1.0-211.0","0","0","52846","","null","","","null","23","","NaN","","","","","","","","","","","","","",""
"","response","","html-keyboard-response","154","174538","0.0-1.0-212.0-0.0","0","0","52846","","240","","","68","23","","","1","23","training","adjacent","CD","3","4","R.jpg","N.jpg","1","1","1","",""
"","feedback","","html-keyboard-response","155","175543","0.0-1.0-213.0-0.0","0","0","52846","","null","","","null","23","","","","","","","","","","","","","","","",""
"","ITI","","html-keyboard-response","156","176553","0.0-1.0-216.0","0","0","52846","","null","","","null","23","","","","","","","","","","","","","","","NaN",""
"","S1","","html-keyboard-response","157","176808","0.0-1.0-218.0","0","0","52846","","null","","","null","24","","","","","","","","","","","","","","","",""
"","ISI","","html-keyboard-response","158","176970","0.0-1.0-219.0","0","0","52846","","null","","","null","24","NaN","","","","","","","","","","","","","","",""
"","S2","","html-keyboard-response","159","177233","0.0-1.0-220.0","0","0","52846","","null","","","null","24","","NaN","","","","","","","","","","","","","",""
"","response","","html-keyboard-response","160","177441","0.0-1.0-221.0-0.0","0","0","52846","","205","","","75","24","","","1","24","training","adjacent","GF","7","6","Q.jpg","L.jpg","0","0","1","",""
"","feedback","","html-keyboard-response","161","178446","0.0-1.0-222.0-0.0","0","0","52846","","null","","","null","24","","","","","","","","","","","","","","","",""
"","ITI","","html-keyboard-response","162","179458","0.0-1.0-225.0","0","0","52846","","null","","","null","24","","","","","","","","","","","","","","","NaN",""
"","S1","","html-keyboard-response","163","179711","0.0-1.0-227.0","0","0","52846","","null","","","null","25","","","","","","","","","","","","","","","",""
"","ISI","","html-keyboard-response","164","179873","0.0-1.0-228.0","0","0","52846","","null","","","null","25","NaN","","","","","","","","","","","","","","",""
"","S2","","html-keyboard-response","165","180130","0.0-1.0-229.0","0","0","52846","","null","","","null","25","","NaN","","","","","","","","","","","","","",""
"","response","","html-keyboard-response","166","180412","0.0-1.0-230.0-0.0","0","0","52846","","281","","","68","25","","","1","25","training","adjacent","BA","2","1","P.jpg","M.jpg","1","0","0","",""
"","feedback","","html-keyboard-response","167","181424","0.0-1.0-231.0-0.0","0","0","52846","","null","","","null","25","","","","","","","","","","","","","","","",""
"","time_out","","html-keyboard-response","168","183433","0.0-1.0-233.0-0.0","0","0","52846","","null","","","null","25","","","","","","","","","","","","","","","",""
"","ITI","","html-keyboard-response","169","184442","0.0-1.0-234.0","0","0","52846","","null","","","null","25","","","","","","","","","","","","","","","NaN",""
"","S1","","html-keyboard-response","170","184697","0.0-1.0-236.0","0","0","52846","","null","","","null","26","","","","","","","","","","","","","","","",""
"","ISI","","html-keyboard-response","171","184854","0.0-1.0-237.0","0","0","52846","","null","","","null","26","NaN","","","","","","","","","","","","","","",""
"","S2","","html-keyboard-response","172","185111","0.0-1.0-238.0","0","0","52846","","null","","","null","26","","NaN","","","","","","","","","","","","","",""
"","response","","html-keyboard-response","173","185478","0.0-1.0-239.0-0.0","0","0","52846","","365","","","68","26","","","1","26","training","adjacent","AB","1","2","M.jpg","P.jpg","1","1","1","",""
"","feedback","","html-keyboard-response","174","186486","0.0-1.0-240.0-0.0","0","0","52846","","null","","","null","26","","","","","","","","","","","","","","","",""
"","ITI","","html-keyboard-response","175","187497","0.0-1.0-243.0","0","0","52846","","null","","","null","26","","","","","","","","","","","","","","","NaN",""
"","S1","","html-keyboard-response","176","187750","0.0-1.0-245.0","0","0","52846","","null","","","null","27","","","","","","","","","","","","","","","",""
"","ISI","","html-keyboard-response","177","187902","0.0-1.0-246.0","0","0","52846","","null","","","null","27","NaN","","","","","","","","","","","","","","",""
"","S2","","html-keyboard-response","178","188163","0.0-1.0-247.0","0","0","52846","","null","","","null","27","","NaN","","","","","","","","","","","","","",""
"","response","","html-keyboard-response","179","188437","0.0-1.0-248.0-0.0","0","0","52846","","273","","","75","27","","","1","27","training","adjacent","DE","4","5","N.jpg","O.jpg","0","1","0","",""
"","feedback","","html-keyboard-response","180","189447","0.0-1.0-249.0-0.0","0","0","52846","","null","","","null","27","","","","","","","","","","","","","","","",""
"","time_out","","html-keyboard-response","181","191457","0.0-1.0-251.0-0.0","0","0","52846","","null","","","null","27","","","","","","","","","","","","","","","",""
"","ITI","","html-keyboard-response","182","192466","0.0-1.0-252.0","0","0","52846","","null","","","null","27","","","","","","","","","","","","","","","NaN",""
"","S1","","html-keyboard-response","183","192720","0.0-1.0-254.0","0","0","52846","","null","","","null","28","","","","","","","","","","","","","","","",""
"","ISI","","html-keyboard-response","184","192883","0.0-1.0-255.0","0","0","52846","","null","","","null","28","NaN","","","","","","","","","","","","","","",""
"","S2","","html-keyboard-response","185","193145","0.0-1.0-256.0","0","0","52846","","null","","","null","28","","NaN","","","","","","","","","","","","","",""
"","response","","html-keyboard-response","186","193517","0.0-1.0-257.0-0.0","0","0","52846","","370","","","75","28","","","1","28","training","adjacent","CD","3","4","R.jpg","N.jpg","0","1","0","",""
"","feedback","","html-keyboard-response","187","194527","0.0-1.0-258.0-0.0","0","0","52846","","null","","","null","28","","","","","","","","","","","","","","","",""
"","time_out","","html-keyboard-response","188","196537","0.0-1.0-260.0-0.0","0","0","52846","","null","","","null","28","","","","","","","","","","","","","","","",""
"","ITI","","html-keyboard-response","189","197544","0.0-1.0-261.0","0","0","52846","","null","","","null","28","","","","","","","","","","","","","","","NaN",""
"","S1","","html-keyboard-response","190","197800","0.0-1.0-263.0","0","0","52846","","null","","","null","29","","","","","","","","","","","","","","","",""
"","ISI","","html-keyboard-response","191","197962","0.0-1.0-264.0","0","0","52846","","null","","","null","29","NaN","","","","","","","","","","","","","","",""
"","S2","","html-keyboard-response","192","198215","0.0-1.0-265.0","0","0","52846","","null","","","null","29","","NaN","","","","","","","","","","","","","",""
"","response","","html-keyboard-response","193","198489","0.0-1.0-266.0-0.0","0","0","52846","","271","","","68","29","","","1","29","training","adjacent","DE","4","5","N.jpg","O.jpg","1","1","1","",""
"","feedback","","html-keyboard-response","194","199496","0.0-1.0-267.0-0.0","0","0","52846","","null","","","null","29","","","","","","","","","","","","","","","",""
"","ITI","","html-keyboard-response","195","200505","0.0-1.0-270.0","0","0","52846","","null","","","null","29","","","","","","","","","","","","","","","NaN",""
"","S1","","html-keyboard-response","196","200760","0.0-1.0-272.0","0","0","52846","","null","","","null","30","","","","","","","","","","","","","","","",""
"","ISI","","html-keyboard-response","197","200923","0.0-1.0-273.0","0","0","52846","","null","","","null","30","NaN","","","","","","","","","","","","","","",""
"","S2","","html-keyboard-response","198","201184","0.0-1.0-274.0","0","0","52846","","null","","","null","30","","NaN","","","","","","","","","","","","","",""
"","response","","html-keyboard-response","199","201666","0.0-1.0-275.0-0.0","0","0","52846","","481","","","75","30","","","1","30","training","adjacent","BA","2","1","P.jpg","M.jpg","0","0","1","",""
"","feedback","","html-keyboard-response","200","202671","0.0-1.0-276.0-0.0","0","0","52846","","null","","","null","30","","","","","","","","","","","","","","","",""
"","ITI","","html-keyboard-response","201","203680","0.0-1.0-279.0","0","0","52846","","null","","","null","30","","","","","","","","","","","","","","","NaN",""
"","S1","","html-keyboard-response","202","203936","0.0-1.0-281.0","0","0","52846","","null","","","null","31","","","","","","","","","","","","","","","",""
"","ISI","","html-keyboard-response","203","204099","0.0-1.0-282.0","0","0","52846","","null","","","null","31","NaN","","","","","","","","","","","","","","",""
"","S2","","html-keyboard-response","204","204360","0.0-1.0-283.0","0","0","52846","","null","","","null","31","","NaN","","","","","","","","","","","","","",""
"","response","","html-keyboard-response","205","204792","0.0-1.0-284.0-0.0","0","0","52846","","430","","","75","31","","","1","31","training","adjacent","BC","2","3","P.jpg","R.jpg","0","1","0","",""
"","feedback","","html-keyboard-response","206","205801","0.0-1.0-285.0-0.0","0","0","52846","","null","","","null","31","","","","","","","","","","","","","","","",""
"","time_out","","html-keyboard-response","207","207808","0.0-1.0-287.0-0.0","0","0","52846","","null","","","null","31","","","","","","","","","","","","","","","",""
"","ITI","","html-keyboard-response","208","208818","0.0-1.0-288.0","0","0","52846","","null","","","null","31","","","","","","","","","","","","","","","NaN",""
"","S1","","html-keyboard-response","209","209073","0.0-1.0-290.0","0","0","52846","","null","","","null","32","","","","","","","","","","","","","","","",""
"","ISI","","html-keyboard-response","210","209236","0.0-1.0-291.0","0","0","52846","","null","","","null","32","NaN","","","","","","","","","","","","","","",""
"","S2","","html-keyboard-response","211","209497","0.0-1.0-292.0","0","0","52846","","null","","","null","32","","NaN","","","","","","","","","","","","","",""
"","response","","html-keyboard-response","212","210088","0.0-1.0-293.0-0.0","0","0","52846","","590","","","68","32","","","1","32","training","adjacent","DC","4","3","N.jpg","R.jpg","1","0","0","",""
"","feedback","","html-keyboard-response","213","211099","0.0-1.0-294.0-0.0","0","0","52846","","null","","","null","32","","","","","","","","","","","","","","","",""
"","time_out","","html-keyboard-response","214","213107","0.0-1.0-296.0-0.0","0","0","52846","","null","","","null","32","","","","","","","","","","","","","","","",""
"","ITI","","html-keyboard-response","215","214112","0.0-1.0-297.0","0","0","52846","","null","","","null","32","","","","","","","","","","","","","","","NaN",""
"","S1","","html-keyboard-response","216","214367","0.0-1.0-299.0","0","0","52846","","null","","","null","33","","","","","","","","","","","","","","","",""
"","ISI","","html-keyboard-response","217","214530","0.0-1.0-300.0","0","0","52846","","null","","","null","33","NaN","","","","","","","","","","","","","","",""
"","S2","","html-keyboard-response","218","214787","0.0-1.0-301.0","0","0","52846","","null","","","null","33","","NaN","","","","","","","","","","","","","",""
"","response","","html-keyboard-response","219","215196","0.0-1.0-302.0-0.0","0","0","52846","","408","","","75","33","","","1","33","training","adjacent","DE","4","5","N.jpg","O.jpg","0","1","0","",""
"","feedback","","html-keyboard-response","220","216202","0.0-1.0-303.0-0.0","0","0","52846","","null","","","null","33","","","","","","","","","","","","","","","",""
"","time_out","","html-keyboard-response","221","218209","0.0-1.0-305.0-0.0","0","0","52846","","null","","","null","33","","","","","","","","","","","","","","","",""
"","ITI","","html-keyboard-response","222","219215","0.0-1.0-306.0","0","0","52846","","null","","","null","33","","","","","","","","","","","","","","","NaN",""
"","S1","","html-keyboard-response","223","219476","0.0-1.0-308.0","0","0","52846","","null","","","null","34","","","","","","","","","","","","","","","",""
"","ISI","","html-keyboard-response","224","219633","0.0-1.0-309.0","0","0","52846","","null","","","null","34","NaN","","","","","","","","","","","","","","",""
"","S2","","html-keyboard-response","225","219888","0.0-1.0-310.0","0","0","52846","","null","","","null","34","","NaN","","","","","","","","","","","","","",""
"","response","","html-keyboard-response","226","220311","0.0-1.0-311.0-0.0","0","0","52846","","420","","","68","34","","","1","34","training","adjacent","CB","3","2","R.jpg","P.jpg","1","0","0","",""
"","feedback","","html-keyboard-response","227","221322","0.0-1.0-312.0-0.0","0","0","52846","","null","","","null","34","","","","","","","","","","","","","","","",""
"","time_out","","html-keyboard-response","228","223331","0.0-1.0-314.0-0.0","0","0","52846","","null","","","null","34","","","","","","","","","","","","","","","",""
"","ITI","","html-keyboard-response","229","224337","0.0-1.0-315.0","0","0","52846","","null","","","null","34","","","","","","","","","","","","","","","NaN",""
"","S1","","html-keyboard-response","230","224592","0.0-1.0-317.0","0","0","52846","","null","","","null","35","","","","","","","","","","","","","","","",""
"","ISI","","html-keyboard-response","231","224752","0.0-1.0-318.0","0","0","52846","","null","","","null","35","NaN","","","","","","","","","","","","","","",""
"","S2","","html-keyboard-response","232","225011","0.0-1.0-319.0","0","0","52846","","null","","","null","35","","NaN","","","","","","","","","","","","","",""
"","response","","html-keyboard-response","233","225303","0.0-1.0-320.0-0.0","0","0","52846","","291","","","68","35","","","1","35","training","adjacent","BA","2","1","P.jpg","M.jpg","1","0","0","",""
"","feedback","","html-keyboard-response","234","226315","0.0-1.0-321.0-0.0","0","0","52846","","null","","","null","35","","","","","","","","","","","","","","","",""
"","time_out","","html-keyboard-response","235","228324","0.0-1.0-323.0-0.0","0","0","52846","","null","","","null","35","","","","","","","","","","","","","","","",""
"","ITI","","html-keyboard-response","236","229328","0.0-1.0-324.0","0","0","52846","","null","","","null","35","","","","","","","","","","","","","","","NaN",""
"","S1","","html-keyboard-response","237","229584","0.0-1.0-326.0","0","0","52846","","null","","","null","36","","","","","","","","","","","","","","","",""
"","ISI","","html-keyboard-response","238","229745","0.0-1.0-327.0","0","0","52846","","null","","","null","36","NaN","","","","","","","","","","","","","","",""
"","S2","","html-keyboard-response","239","230000","0.0-1.0-328.0","0","0","52846","","null","","","null","36","","NaN","","","","","","","","","","","","","",""
"","response","","html-keyboard-response","240","230305","0.0-1.0-329.0-0.0","0","0","52846","","302","","","75","36","","","1","36","training","adjacent","FE","6","5","L.jpg","O.jpg","0","0","1","",""
"","feedback","","html-keyboard-response","241","231313","0.0-1.0-330.0-0.0","0","0","52846","","null","","","null","36","","","","","","","","","","","","","","","",""
"","ITI","","html-keyboard-response","242","232324","0.0-1.0-333.0","0","0","52846","","null","","","null","36","","","","","","","","","","","","","","","NaN",""
"","S1","","html-keyboard-response","243","232584","0.0-1.0-335.0","0","0","52846","","null","","","null","37","","","","","","","","","","","","","","","",""
"","ISI","","html-keyboard-response","244","232747","0.0-1.0-336.0","0","0","52846","","null","","","null","37","NaN","","","","","","","","","","","","","","",""
"","S2","","html-keyboard-response","245","233002","0.0-1.0-337.0","0","0","52846","","null","","","null","37","","NaN","","","","","","","","","","","","","",""
"","response","","html-keyboard-response","246","233500","0.0-1.0-338.0-0.0","0","0","52846","","496","","","75","37","","","1","37","training","adjacent","ED","5","4","O.jpg","N.jpg","0","0","1","",""
"","feedback","","html-keyboard-response","247","234506","0.0-1.0-339.0-0.0","0","0","52846","","null","","","null","37","","","","","","","","","","","","","","","",""
"","ITI","","html-keyboard-response","248","235516","0.0-1.0-342.0","0","0","52846","","null","","","null","37","","","","","","","","","","","","","","","NaN",""
"","S1","","html-keyboard-response","249","235777","0.0-1.0-344.0","0","0","52846","","null","","","null","38","","","","","","","","","","","","","","","",""
"","ISI","","html-keyboard-response","250","235940","0.0-1.0-345.0","0","0","52846","","null","","","null","38","NaN","","","","","","","","","","","","","","",""
"","S2","","html-keyboard-response","251","236201","0.0-1.0-346.0","0","0","52846","","null","","","null","38","","NaN","","","","","","","","","","","","","",""
"","response","","html-keyboard-response","252","236507","0.0-1.0-347.0-0.0","0","0","52846","","305","","","75","38","","","1","38","training","adjacent","FE","6","5","L.jpg","O.jpg","0","0","1","",""
"","feedback","","html-keyboard-response","253","237516","0.0-1.0-348.0-0.0","0","0","52846","","null","","","null","38","","","","","","","","","","","","","","","",""
"","ITI","","html-keyboard-response","254","238522","0.0-1.0-351.0","0","0","52846","","null","","","null","38","","","","","","","","","","","","","","","NaN",""
"","S1","","html-keyboard-response","255","238780","0.0-1.0-353.0","0","0","52846","","null","","","null","39","","","","","","","","","","","","","","","",""
"","ISI","","html-keyboard-response","256","238936","0.0-1.0-354.0","0","0","52846","","null","","","null","39","NaN","","","","","","","","","","","","","","",""
"","S2","","html-keyboard-response","257","239197","0.0-1.0-355.0","0","0","52846","","null","","","null","39","","NaN","","","","","","","","","","","","","",""
"","response","","html-keyboard-response","258","239545","0.0-1.0-356.0-0.0","0","0","52846","","346","","","75","39","","","1","39","training","adjacent","BC","2","3","P.jpg","R.jpg","0","1","0","",""
"","feedback","","html-keyboard-response","259","240555","0.0-1.0-357.0-0.0","0","0","52846","","null","","","null","39","","","","","","","","","","","","","","","",""
"","time_out","","html-keyboard-response","260","242564","0.0-1.0-359.0-0.0","0","0","52846","","null","","","null","39","","","","","","","","","","","","","","","",""
"","ITI","","html-keyboard-response","261","243568","0.0-1.0-360.0","0","0","52846","","null","","","null","39","","","","","","","","","","","","","","","NaN",""
"","S1","","html-keyboard-response","262","243828","0.0-1.0-362.0","0","0","52846","","null","","","null","40","","","","","","","","","","","","","","","",""
"","ISI","","html-keyboard-response","263","243986","0.0-1.0-363.0","0","0","52846","","null","","","null","40","NaN","","","","","","","","","","","","","","",""
"","S2","","html-keyboard-response","264","244240","0.0-1.0-364.0","0","0","52846","","null","","","null","40","","NaN","","","","","","","","","","","","","",""
"","response","","html-keyboard-response","265","244562","0.0-1.0-365.0-0.0","0","0","52846","","320","","","75","40","","","1","40","training","adjacent","DC","4","3","N.jpg","R.jpg","0","0","1","",""
"","feedback","","html-keyboard-response","266","245570","0.0-1.0-366.0-0.0","0","0","52846","","null","","","null","40","","","","","","","","","","","","","","","",""
"","ITI","","html-keyboard-response","267","246580","0.0-1.0-369.0","0","0","52846","","null","","","null","40","","","","","","","","","","","","","","","NaN",""
"","S1","","html-keyboard-response","268","246841","0.0-1.0-371.0","0","0","52846","","null","","","null","41","","","","","","","","","","","","","","","",""
"","ISI","","html-keyboard-response","269","247004","0.0-1.0-372.0","0","0","52846","","null","","","null","41","NaN","","","","","","","","","","","","","","",""
"","S2","","html-keyboard-response","270","247265","0.0-1.0-373.0","0","0","52846","","null","","","null","41","","NaN","","","","","","","","","","","","","",""
"","response","","html-keyboard-response","271","247833","0.0-1.0-374.0-0.0","0","0","52846","","566","","","68","41","","","1","41","training","adjacent","FE","6","5","L.jpg","O.jpg","1","0","0","",""
"","feedback","","html-keyboard-response","272","248845","0.0-1.0-375.0-0.0","0","0","52846","","null","","","null","41","","","","","","","","","","","","","","","",""
"","time_out","","html-keyboard-response","273","250853","0.0-1.0-377.0-0.0","0","0","52846","","null","","","null","41","","","","","","","","","","","","","","","",""
"","ITI","","html-keyboard-response","274","251857","0.0-1.0-378.0","0","0","52846","","null","","","null","41","","","","","","","","","","","","","","","NaN",""
"","S1","","html-keyboard-response","275","252113","0.0-1.0-380.0","0","0","52846","","null","","","null","42","","","","","","","","","","","","","","","",""
"","ISI","","html-keyboard-response","276","252275","0.0-1.0-381.0","0","0","52846","","null","","","null","42","NaN","","","","","","","","","","","","","","",""
"","S2","","html-keyboard-response","277","252531","0.0-1.0-382.0","0","0","52846","","null","","","null","42","","NaN","","","","","","","","","","","","","",""
"","response","","html-keyboard-response","278","252802","0.0-1.0-383.0-0.0","0","0","52846","","269","","","75","42","","","1","42","training","adjacent","GF","7","6","Q.jpg","L.jpg","0","0","1","",""
"","feedback","","html-keyboard-response","279","253811","0.0-1.0-384.0-0.0","0","0","52846","","null","","","null","42","","","","","","","","","","","","","","","",""
"","ITI","","html-keyboard-response","280","254817","0.0-1.0-387.0","0","0","52846","","null","","","null","42","","","","","","","","","","","","","","","NaN",""
"","S1","","html-keyboard-response","281","255074","0.0-1.0-389.0","0","0","52846","","null","","","null","43","","","","","","","","","","","","","","","",""
"","ISI","","html-keyboard-response","282","255234","0.0-1.0-390.0","0","0","52846","","null","","","null","43","NaN","","","","","","","","","","","","","","",""
"","S2","","html-keyboard-response","283","255491","0.0-1.0-391.0","0","0","52846","","null","","","null","43","","NaN","","","","","","","","","","","","","",""
"","response","","html-keyboard-response","284","255903","0.0-1.0-392.0-0.0","0","0","52846","","409","","","75","43","","","1","43","training","adjacent","ED","5","4","O.jpg","N.jpg","0","0","1","",""
"","feedback","","html-keyboard-response","285","256913","0.0-1.0-393.0-0.0","0","0","52846","","null","","","null","43","","","","","","","","","","","","","","","",""
"","ITI","","html-keyboard-response","286","257924","0.0-1.0-396.0","0","0","52846","","null","","","null","43","","","","","","","","","","","","","","","NaN",""
"","S1","","html-keyboard-response","287","258179","0.0-1.0-398.0","0","0","52846","","null","","","null","44","","","","","","","","","","","","","","","",""
"","ISI","","html-keyboard-response","288","258336","0.0-1.0-399.0","0","0","52846","","null","","","null","44","NaN","","","","","","","","","","","","","","",""
"","S2","","html-keyboard-response","289","258597","0.0-1.0-400.0","0","0","52846","","null","","","null","44","","NaN","","","","","","","","","","","","","",""
"","response","","html-keyboard-response","290","259293","0.0-1.0-401.0-0.0","0","0","52846","","694","","","75","44","","","1","44","training","adjacent","DE","4","5","N.jpg","O.jpg","0","1","0","",""
"","feedback","","html-keyboard-response","291","260297","0.0-1.0-402.0-0.0","0","0","52846","","null","","","null","44","","","","","","","","","","","","","","","",""
"","time_out","","html-keyboard-response","292","262307","0.0-1.0-404.0-0.0","0","0","52846","","null","","","null","44","","","","","","","","","","","","","","","",""
"","ITI","","html-keyboard-response","293","263317","0.0-1.0-405.0","0","0","52846","","null","","","null","44","","","","","","","","","","","","","","","NaN",""
"","S1","","html-keyboard-response","294","263579","0.0-1.0-407.0","0","0","52846","","null","","","null","45","","","","","","","","","","","","","","","",""
"","ISI","","html-keyboard-response","295","263740","0.0-1.0-408.0","0","0","52846","","null","","","null","45","NaN","","","","","","","","","","","","","","",""
"","S2","","html-keyboard-response","296","263995","0.0-1.0-409.0","0","0","52846","","null","","","null","45","","NaN","","","","","","","","","","","","","",""
"","response","","html-keyboard-response","297","264448","0.0-1.0-410.0-0.0","0","0","52846","","451","","","75","45","","","1","45","training","adjacent","AB","1","2","M.jpg","P.jpg","0","1","0","",""
"","feedback","","html-keyboard-response","298","265459","0.0-1.0-411.0-0.0","0","0","52846","","null","","","null","45","","","","","","","","","","","","","","","",""
"","time_out","","html-keyboard-response","299","267467","0.0-1.0-413.0-0.0","0","0","52846","","null","","","null","45","","","","","","","","","","","","","","","",""
"","ITI","","html-keyboard-response","300","268477","0.0-1.0-414.0","0","0","52846","","null","","","null","45","","","","","","","","","","","","","","","NaN",""
"","S1","","html-keyboard-response","301","268739","0.0-1.0-416.0","0","0","52846","","null","","","null","46","","","","","","","","","","","","","","","",""
"","ISI","","html-keyboard-response","302","268900","0.0-1.0-417.0","0","0","52846","","null","","","null","46","NaN","","","","","","","","","","","","","","",""
"","S2","","html-keyboard-response","303","269162","0.0-1.0-418.0","0","0","52846","","null","","","null","46","","NaN","","","","","","","","","","","","","",""
"","response","","html-keyboard-response","304","269496","0.0-1.0-419.0-0.0","0","0","52846","","332","","","68","46","","","1","46","training","adjacent","AB","1","2","M.jpg","P.jpg","1","1","1","",""
"","feedback","","html-keyboard-response","305","270505","0.0-1.0-420.0-0.0","0","0","52846","","null","","","null","46","","","","","","","","","","","","","","","",""
"","ITI","","html-keyboard-response","306","271525","0.0-1.0-423.0","0","0","52846","","null","","","null","46","","","","","","","","","","","","","","","NaN",""
"","S1","","html-keyboard-response","307","271780","0.0-1.0-425.0","0","0","52846","","null","","","null","47","","","","","","","","","","","","","","","",""
"","ISI","","html-keyboard-response","308","271937","0.0-1.0-426.0","0","0","52846","","null","","","null","47","NaN","","","","","","","","","","","","","","",""
"","S2","","html-keyboard-response","309","272196","0.0-1.0-427.0","0","0","52846","","null","","","null","47","","NaN","","","","","","","","","","","","","",""
"","response","","html-keyboard-response","310","272541","0.0-1.0-428.0-0.0","0","0","52846","","343","","","75","47","","","1","47","training","adjacent","BC","2","3","P.jpg","R.jpg","0","1","0","",""
"","feedback","","html-keyboard-response","311","273544","0.0-1.0-429.0-0.0","0","0","52846","","null","","","null","47","","","","","","","","","","","","","","","",""
"","time_out","","html-keyboard-response","312","275553","0.0-1.0-431.0-0.0","0","0","52846","","null","","","null","47","","","","","","","","","","","","","","","",""
"","ITI","","html-keyboard-response","313","276564","0.0-1.0-432.0","0","0","52846","","null","","","null","47","","","","","","","","","","","","","","","NaN",""
"","block_over","","html-keyboard-response","314","282891","0.0-1.0-433.0-0.0","0","0","52846","","6324","","","32","47","","","","","","","","","","","","","","","",""
"","S1","","html-keyboard-response","315","283146","0.0-1.0-434.0","0","0","52846","","null","","","null","48","","","","","","","","","","","","","","","",""
"","ISI","","html-keyboard-response","316","283311","0.0-1.0-435.0","0","0","52846","","null","","","null","48","NaN","","","","","","","","","","","","","","",""
"","S2","","html-keyboard-response","317","283572","0.0-1.0-436.0","0","0","52846","","null","","","null","48","","NaN","","","","","","","","","","","","","",""
"","response","","html-keyboard-response","318","283913","0.0-1.0-437.0-0.0","0","0","52846","","339","","","75","48","","","2","48","training","adjacent","DE","4","5","N.jpg","O.jpg","0","1","0","",""
"","feedback","","html-keyboard-response","319","284923","0.0-1.0-438.0-0.0","0","0","52846","","null","","","null","48","","","","","","","","","","","","","","","",""
"","time_out","","html-keyboard-response","320","286930","0.0-1.0-440.0-0.0","0","0","52846","","null","","","null","48","","","","","","","","","","","","","","","",""
"","ITI","","html-keyboard-response","321","287937","0.0-1.0-441.0","0","0","52846","","null","","","null","48","","","","","","","","","","","","","","","NaN",""
"","S1","","html-keyboard-response","322","288197","0.0-1.0-443.0","0","0","52846","","null","","","null","49","","","","","","","","","","","","","","","",""
"","ISI","","html-keyboard-response","323","288356","0.0-1.0-444.0","0","0","52846","","null","","","null","49","NaN","","","","","","","","","","","","","","",""
"","S2","","html-keyboard-response","324","288610","0.0-1.0-445.0","0","0","52846","","null","","","null","49","","NaN","","","","","","","","","","","","","",""
"","response","","html-keyboard-response","325","288785","0.0-1.0-446.0-0.0","0","0","52846","","174","","","75","49","","","2","49","training","adjacent","GF","7","6","Q.jpg","L.jpg","0","0","1","",""
"","feedback","","html-keyboard-response","326","289793","0.0-1.0-447.0-0.0","0","0","52846","","null","","","null","49","","","","","","","","","","","","","","","",""
"","ITI","","html-keyboard-response","327","290804","0.0-1.0-450.0","0","0","52846","","null","","","null","49","","","","","","","","","","","","","","","NaN",""
"","S1","","html-keyboard-response","328","291059","0.0-1.0-452.0","0","0","52846","","null","","","null","50","","","","","","","","","","","","","","","",""
"","ISI","","html-keyboard-response","329","291222","0.0-1.0-453.0","0","0","52846","","null","","","null","50","NaN","","","","","","","","","","","","","","",""
"","S2","","html-keyboard-response","330","291483","0.0-1.0-454.0","0","0","52846","","null","","","null","50","","NaN","","","","","","","","","","","","","",""
"","response","","html-keyboard-response","331","291934","0.0-1.0-455.0-0.0","0","0","52846","","450","","","68","50","","","2","50","training","adjacent","AB","1","2","M.jpg","P.jpg","1","1","1","",""
"","feedback","","html-keyboard-response","332","292940","0.0-1.0-456.0-0.0","0","0","52846","","null","","","null","50","","","","","","","","","","","","","","","",""
"","ITI","","html-keyboard-response","333","293945","0.0-1.0-459.0","0","0","52846","","null","","","null","50","","","","","","","","","","","","","","","NaN",""
"","S1","","html-keyboard-response","334","294205","0.0-1.0-461.0","0","0","52846","","null","","","null","51","","","","","","","","","","","","","","","",""
"","ISI","","html-keyboard-response","335","294362","0.0-1.0-462.0","0","0","52846","","null","","","null","51","NaN","","","","","","","","","","","","","","",""
"","S2","","html-keyboard-response","336","294617","0.0-1.0-463.0","0","0","52846","","null","","","null","51","","NaN","","","","","","","","","","","","","",""
"","response","","html-keyboard-response","337","294874","0.0-1.0-464.0-0.0","0","0","52846","","255","","","68","51","","","2","51","training","adjacent","DE","4","5","N.jpg","O.jpg","1","1","1","",""
"","feedback","","html-keyboard-response","338","295884","0.0-1.0-465.0-0.0","0","0","52846","","null","","","null","51","","","","","","","","","","","","","","","",""
"","ITI","","html-keyboard-response","339","296893","0.0-1.0-468.0","0","0","52846","","null","","","null","51","","","","","","","","","","","","","","","NaN",""
"","S1","","html-keyboard-response","340","297149","0.0-1.0-470.0","0","0","52846","","null","","","null","52","","","","","","","","","","","","","","","",""
"","ISI","","html-keyboard-response","341","297307","0.0-1.0-471.0","0","0","52846","","null","","","null","52","NaN","","","","","","","","","","","","","","",""
"","S2","","html-keyboard-response","342","297564","0.0-1.0-472.0","0","0","52846","","null","","","null","52","","NaN","","","","","","","","","","","","","",""
"","response","","html-keyboard-response","343","298432","0.0-1.0-473.0-0.0","0","0","52846","","866","","","68","52","","","2","52","training","adjacent","BA","2","1","P.jpg","M.jpg","1","0","0","",""
"","feedback","","html-keyboard-response","344","299442","0.0-1.0-474.0-0.0","0","0","52846","","null","","","null","52","","","","","","","","","","","","","","","",""
"","time_out","","html-keyboard-response","345","301450","0.0-1.0-476.0-0.0","0","0","52846","","null","","","null","52","","","","","","","","","","","","","","","",""
"","ITI","","html-keyboard-response","346","302460","0.0-1.0-477.0","0","0","52846","","null","","","null","52","","","","","","","","","","","","","","","NaN",""
"","S1","","html-keyboard-response","347","302716","0.0-1.0-479.0","0","0","52846","","null","","","null","53","","","","","","","","","","","","","","","",""
"","ISI","","html-keyboard-response","348","302873","0.0-1.0-480.0","0","0","52846","","null","","","null","53","NaN","","","","","","","","","","","","","","",""
"","S2","","html-keyboard-response","349","303135","0.0-1.0-481.0","0","0","52846","","null","","","null","53","","NaN","","","","","","","","","","","","","",""
"","response","","html-keyboard-response","350","303273","0.0-1.0-482.0-0.0","0","0","52846","","135","","","75","53","","","2","53","training","adjacent","GF","7","6","Q.jpg","L.jpg","0","0","1","",""
"","feedback","","html-keyboard-response","351","304283","0.0-1.0-483.0-0.0","0","0","52846","","null","","","null","53","","","","","","","","","","","","","","","",""
"","ITI","","html-keyboard-response","352","305294","0.0-1.0-486.0","0","0","52846","","null","","","null","53","","","","","","","","","","","","","","","NaN",""
"","S1","","html-keyboard-response","353","305555","0.0-1.0-488.0","0","0","52846","","null","","","null","54","","","","","","","","","","","","","","","",""
"","ISI","","html-keyboard-response","354","305717","0.0-1.0-489.0","0","0","52846","","null","","","null","54","NaN","","","","","","","","","","","","","","",""
"","S2","","html-keyboard-response","355","305973","0.0-1.0-490.0","0","0","52846","","null","","","null","54","","NaN","","","","","","","","","","","","","",""
"","response","","html-keyboard-response","356","306278","0.0-1.0-491.0-0.0","0","0","52846","","303","","","68","54","","","2","54","training","adjacent","DC","4","3","N.jpg","R.jpg","1","0","0","",""
"","feedback","","html-keyboard-response","357","307284","0.0-1.0-492.0-0.0","0","0","52846","","null","","","null","54","","","","","","","","","","","","","","","",""
"","time_out","","html-keyboard-response","358","309294","0.0-1.0-494.0-0.0","0","0","52846","","null","","","null","54","","","","","","","","","","","","","","","",""
"","ITI","","html-keyboard-response","359","310300","0.0-1.0-495.0","0","0","52846","","null","","","null","54","","","","","","","","","","","","","","","NaN",""
"","S1","","html-keyboard-response","360","310554","0.0-1.0-497.0","0","0","52846","","null","","","null","55","","","","","","","","","","","","","","","",""
"","ISI","","html-keyboard-response","361","310710","0.0-1.0-498.0","0","0","52846","","null","","","null","55","NaN","","","","","","","","","","","","","","",""
"","S2","","html-keyboard-response","362","310965","0.0-1.0-499.0","0","0","52846","","null","","","null","55","","NaN","","","","","","","","","","","","","",""
"","response","","html-keyboard-response","363","311376","0.0-1.0-500.0-0.0","0","0","52846","","409","","","75","55","","","2","55","training","adjacent","FE","6","5","L.jpg","O.jpg","0","0","1","",""
"","feedback","","html-keyboard-response","364","312387","0.0-1.0-501.0-0.0","0","0","52846","","null","","","null","55","","","","","","","","","","","","","","","",""
"","ITI","","html-keyboard-response","365","313398","0.0-1.0-504.0","0","0","52846","","null","","","null","55","","","","","","","","","","","","","","","NaN",""
"","S1","","html-keyboard-response","366","313659","0.0-1.0-506.0","0","0","52846","","null","","","null","56","","","","","","","","","","","","","","","",""
"","ISI","","html-keyboard-response","367","313821","0.0-1.0-507.0","0","0","52846","","null","","","null","56","NaN","","","","","","","","","","","","","","",""
"","S2","","html-keyboard-response","368","314077","0.0-1.0-508.0","0","0","52846","","null","","","null","56","","NaN","","","","","","","","","","","","","",""
"","response","","html-keyboard-response","369","314339","0.0-1.0-509.0-0.0","0","0","52846","","260","","","68","56","","","2","56","training","adjacent","CD","3","4","R.jpg","N.jpg","1","1","1","",""
"","feedback","","html-keyboard-response","370","315343","0.0-1.0-510.0-0.0","0","0","52846","","null","","","null","56","","","","","","","","","","","","","","","",""
"","ITI","","html-keyboard-response","371","316346","0.0-1.0-513.0","0","0","52846","","null","","","null","56","","","","","","","","","","","","","","","NaN",""
"","S1","","html-keyboard-response","372","316602","0.0-1.0-515.0","0","0","52846","","null","","","null","57","","","","","","","","","","","","","","","",""
"","ISI","","html-keyboard-response","373","316764","0.0-1.0-516.0","0","0","52846","","null","","","null","57","NaN","","","","","","","","","","","","","","",""
"","S2","","html-keyboard-response","374","317020","0.0-1.0-517.0","0","0","52846","","null","","","null","57","","NaN","","","","","","","","","","","","","",""
"","response","","html-keyboard-response","375","317522","0.0-1.0-518.0-0.0","0","0","52846","","501","","","68","57","","","2","57","training","adjacent","EF","5","6","O.jpg","L.jpg","1","1","1","",""
"","feedback","","html-keyboard-response","376","318530","0.0-1.0-519.0-0.0","0","0","52846","","null","","","null","57","","","","","","","","","","","","","","","",""
"","ITI","","html-keyboard-response","377","319540","0.0-1.0-522.0","0","0","52846","","null","","","null","57","","","","","","","","","","","","","","","NaN",""
"","S1","","html-keyboard-response","378","319795","0.0-1.0-524.0","0","0","52846","","null","","","null","58","","","","","","","","","","","","","","","",""
"","ISI","","html-keyboard-response","379","319957","0.0-1.0-525.0","0","0","52846","","null","","","null","58","NaN","","","","","","","","","","","","","","",""
"","S2","","html-keyboard-response","380","320212","0.0-1.0-526.0","0","0","52846","","null","","","null","58","","NaN","","","","","","","","","","","","","",""
"","response","","html-keyboard-response","381","320568","0.0-1.0-527.0-0.0","0","0","52846","","353","","","68","58","","","2","58","training","adjacent","DE","4","5","N.jpg","O.jpg","1","1","1","",""
"","feedback","","html-keyboard-response","382","321581","0.0-1.0-528.0-0.0","0","0","52846","","null","","","null","58","","","","","","","","","","","","","","","",""
"","ITI","","html-keyboard-response","383","322586","0.0-1.0-531.0","0","0","52846","","null","","","null","58","","","","","","","","","","","","","","","NaN",""
"","S1","","html-keyboard-response","384","322842","0.0-1.0-533.0","0","0","52846","","null","","","null","59","","","","","","","","","","","","","","","",""
"","ISI","","html-keyboard-response","385","322994","0.0-1.0-534.0","0","0","52846","","null","","","null","59","NaN","","","","","","","","","","","","","","",""
"","S2","","html-keyboard-response","386","323255","0.0-1.0-535.0","0","0","52846","","null","","","null","59","","NaN","","","","","","","","","","","","","",""
"","response","","html-keyboard-response","387","323641","0.0-1.0-536.0-0.0","0","0","52846","","383","","","68","59","","","2","59","training","adjacent","FG","6","7","L.jpg","Q.jpg","1","1","1","",""
"","feedback","","html-keyboard-response","388","324654","0.0-1.0-537.0-0.0","0","0","52846","","null","","","null","59","","","","","","","","","","","","","","","",""
"","ITI","","html-keyboard-response","389","325658","0.0-1.0-540.0","0","0","52846","","null","","","null","59","","","","","","","","","","","","","","","NaN",""
"","S1","","html-keyboard-response","390","325914","0.0-1.0-542.0","0","0","52846","","null","","","null","60","","","","","","","","","","","","","","","",""
"","ISI","","html-keyboard-response","391","326070","0.0-1.0-543.0","0","0","52846","","null","","","null","60","NaN","","","","","","","","","","","","","","",""
"","S2","","html-keyboard-response","392","326331","0.0-1.0-544.0","0","0","52846","","null","","","null","60","","NaN","","","","","","","","","","","","","",""
"","response","","html-keyboard-response","393","326723","0.0-1.0-545.0-0.0","0","0","52846","","389","","","75","60","","","2","60","training","adjacent","FE","6","5","L.jpg","O.jpg","0","0","1","",""
"","feedback","","html-keyboard-response","394","327732","0.0-1.0-546.0-0.0","0","0","52846","","null","","","null","60","","","","","","","","","","","","","","","",""
"","ITI","","html-keyboard-response","395","328742","0.0-1.0-549.0","0","0","52846","","null","","","null","60","","","","","","","","","","","","","","","NaN",""
"","S1","","html-keyboard-response","396","328995","0.0-1.0-551.0","0","0","52846","","null","","","null","61","","","","","","","","","","","","","","","",""
"","ISI","","html-keyboard-response","397","329158","0.0-1.0-552.0","0","0","52846","","null","","","null","61","NaN","","","","","","","","","","","","","","",""
"","S2","","html-keyboard-response","398","329420","0.0-1.0-553.0","0","0","52846","","null","","","null","61","","NaN","","","","","","","","","","","","","",""
"","response","","html-keyboard-response","399","330176","0.0-1.0-554.0-0.0","0","0","52846","","753","","","68","61","","","2","61","training","adjacent","EF","5","6","O.jpg","L.jpg","1","1","1","",""
"","feedback","","html-keyboard-response","400","331192","0.0-1.0-555.0-0.0","0","0","52846","","null","","","null","61","","","","","","","","","","","","","","","",""
"","ITI","","html-keyboard-response","401","332196","0.0-1.0-558.0","0","0","52846","","null","","","null","61","","","","","","","","","","","","","","","NaN",""
"","S1","","html-keyboard-response","402","332451","0.0-1.0-560.0","0","0","52846","","null","","","null","62","","","","","","","","","","","","","","","",""
"","ISI","","html-keyboard-response","403","332612","0.0-1.0-561.0","0","0","52846","","null","","","null","62","NaN","","","","","","","","","","","","","","",""
"","S2","","html-keyboard-response","404","332867","0.0-1.0-562.0","0","0","52846","","null","","","null","62","","NaN","","","","","","","","","","","","","",""
"","response","","html-keyboard-response","405","333309","0.0-1.0-563.0-0.0","0","0","52846","","439","","","68","62","","","2","62","training","adjacent","FG","6","7","L.jpg","Q.jpg","1","1","1","",""
"","feedback","","html-keyboard-response","406","334315","0.0-1.0-564.0-0.0","0","0","52846","","null","","","null","62","","","","","","","","","","","","","","","",""
"","ITI","","html-keyboard-response","407","335324","0.0-1.0-567.0","0","0","52846","","null","","","null","62","","","","","","","","","","","","","","","NaN",""
"","S1","","html-keyboard-response","408","335579","0.0-1.0-569.0","0","0","52846","","null","","","null","63","","","","","","","","","","","","","","","",""
"","ISI","","html-keyboard-response","409","335741","0.0-1.0-570.0","0","0","52846","","null","","","null","63","NaN","","","","","","","","","","","","","","",""
"","S2","","html-keyboard-response","410","335997","0.0-1.0-571.0","0","0","52846","","null","","","null","63","","NaN","","","","","","","","","","","","","",""
"","response","","html-keyboard-response","411","336316","0.0-1.0-572.0-0.0","0","0","52846","","318","","","75","63","","","2","63","training","adjacent","ED","5","4","O.jpg","N.jpg","0","0","1","",""
"","feedback","","html-keyboard-response","412","337327","0.0-1.0-573.0-0.0","0","0","52846","","null","","","null","63","","","","","","","","","","","","","","","",""
"","ITI","","html-keyboard-response","413","338330","0.0-1.0-576.0","0","0","52846","","null","","","null","63","","","","","","","","","","","","","","","NaN",""
"","S1","","html-keyboard-response","414","338586","0.0-1.0-578.0","0","0","52846","","null","","","null","64","","","","","","","","","","","","","","","",""
"","ISI","","html-keyboard-response","415","338742","0.0-1.0-579.0","0","0","52846","","null","","","null","64","NaN","","","","","","","","","","","","","","",""
"","S2","","html-keyboard-response","416","338998","0.0-1.0-580.0","0","0","52846","","null","","","null","64","","NaN","","","","","","","","","","","","","",""
"","response","","html-keyboard-response","417","339279","0.0-1.0-581.0-0.0","0","0","52846","","279","","","68","64","","","2","64","training","adjacent","AB","1","2","M.jpg","P.jpg","1","1","1","",""
"","feedback","","html-keyboard-response","418","340287","0.0-1.0-582.0-0.0","0","0","52846","","null","","","null","64","","","","","","","","","","","","","","","",""
"","ITI","","html-keyboard-response","419","341293","0.0-1.0-585.0","0","0","52846","","null","","","null","64","","","","","","","","","","","","","","","NaN",""
"","S1","","html-keyboard-response","420","341547","0.0-1.0-587.0","0","0","52846","","null","","","null","65","","","","","","","","","","","","","","","",""
"","ISI","","html-keyboard-response","421","341709","0.0-1.0-588.0","0","0","52846","","null","","","null","65","NaN","","","","","","","","","","","","","","",""
"","S2","","html-keyboard-response","422","341964","0.0-1.0-589.0","0","0","52846","","null","","","null","65","","NaN","","","","","","","","","","","","","",""
"","response","","html-keyboard-response","423","342570","0.0-1.0-590.0-0.0","0","0","52846","","604","","","75","65","","","2","65","training","adjacent","CD","3","4","R.jpg","N.jpg","0","1","0","",""
"","feedback","","html-keyboard-response","424","343578","0.0-1.0-591.0-0.0","0","0","52846","","null","","","null","65","","","","","","","","","","","","","","","",""
"","time_out","","html-keyboard-response","425","345581","0.0-1.0-593.0-0.0","0","0","52846","","null","","","null","65","","","","","","","","","","","","","","","",""
"","ITI","","html-keyboard-response","426","346591","0.0-1.0-594.0","0","0","52846","","null","","","null","65","","","","","","","","","","","","","","","NaN",""
"","S1","","html-keyboard-response","427","346853","0.0-1.0-596.0","0","0","52846","","null","","","null","66","","","","","","","","","","","","","","","",""
"","ISI","","html-keyboard-response","428","347015","0.0-1.0-597.0","0","0","52846","","null","","","null","66","NaN","","","","","","","","","","","","","","",""
"","S2","","html-keyboard-response","429","347271","0.0-1.0-598.0","0","0","52846","","null","","","null","66","","NaN","","","","","","","","","","","","","",""
"","response","","html-keyboard-response","430","347635","0.0-1.0-599.0-0.0","0","0","52846","","362","","","75","66","","","2","66","training","adjacent","ED","5","4","O.jpg","N.jpg","0","0","1","",""
"","feedback","","html-keyboard-response","431","348646","0.0-1.0-600.0-0.0","0","0","52846","","null","","","null","66","","","","","","","","","","","","","","","",""
"","ITI","","html-keyboard-response","432","349651","0.0-1.0-603.0","0","0","52846","","null","","","null","66","","","","","","","","","","","","","","","NaN",""
"","S1","","html-keyboard-response","433","349909","0.0-1.0-605.0","0","0","52846","","null","","","null","67","","","","","","","","","","","","","","","",""
"","ISI","","html-keyboard-response","434","350070","0.0-1.0-606.0","0","0","52846","","null","","","null","67","NaN","","","","","","","","","","","","","","",""
"","S2","","html-keyboard-response","435","350324","0.0-1.0-607.0","0","0","52846","","null","","","null","67","","NaN","","","","","","","","","","","","","",""
"","response","","html-keyboard-response","436","350605","0.0-1.0-608.0-0.0","0","0","52846","","279","","","68","67","","","2","67","training","adjacent","CB","3","2","R.jpg","P.jpg","1","0","0","",""
"","feedback","","html-keyboard-response","437","351612","0.0-1.0-609.0-0.0","0","0","52846","","null","","","null","67","","","","","","","","","","","","","","","",""
"","time_out","","html-keyboard-response","438","353621","0.0-1.0-611.0-0.0","0","0","52846","","null","","","null","67","","","","","","","","","","","","","","","",""
"","ITI","","html-keyboard-response","439","354631","0.0-1.0-612.0","0","0","52846","","null","","","null","67","","","","","","","","","","","","","","","NaN",""
"","S1","","html-keyboard-response","440","354886","0.0-1.0-614.0","0","0","52846","","null","","","null","68","","","","","","","","","","","","","","","",""
"","ISI","","html-keyboard-response","441","355044","0.0-1.0-615.0","0","0","52846","","null","","","null","68","NaN","","","","","","","","","","","","","","",""
"","S2","","html-keyboard-response","442","355302","0.0-1.0-616.0","0","0","52846","","null","","","null","68","","NaN","","","","","","","","","","","","","",""
"","response","","html-keyboard-response","443","355798","0.0-1.0-617.0-0.0","0","0","52846","","495","","","75","68","","","2","68","training","adjacent","BC","2","3","P.jpg","R.jpg","0","1","0","",""
"","feedback","","html-keyboard-response","444","356806","0.0-1.0-618.0-0.0","0","0","52846","","null","","","null","68","","","","","","","","","","","","","","","",""
"","time_out","","html-keyboard-response","445","358811","0.0-1.0-620.0-0.0","0","0","52846","","null","","","null","68","","","","","","","","","","","","","","","",""
"","ITI","","html-keyboard-response","446","359821","0.0-1.0-621.0","0","0","52846","","null","","","null","68","","","","","","","","","","","","","","","NaN",""
"","S1","","html-keyboard-response","447","360082","0.0-1.0-623.0","0","0","52846","","null","","","null","69","","","","","","","","","","","","","","","",""
"","ISI","","html-keyboard-response","448","360239","0.0-1.0-624.0","0","0","52846","","null","","","null","69","NaN","","","","","","","","","","","","","","",""
"","S2","","html-keyboard-response","449","360500","0.0-1.0-625.0","0","0","52846","","null","","","null","69","","NaN","","","","","","","","","","","","","",""
"","response","","html-keyboard-response","450","360984","0.0-1.0-626.0-0.0","0","0","52846","","482","","","75","69","","","2","69","training","adjacent","ED","5","4","O.jpg","N.jpg","0","0","1","",""
"","feedback","","html-keyboard-response","451","361989","0.0-1.0-627.0-0.0","0","0","52846","","null","","","null","69","","","","","","","","","","","","","","","",""
"","ITI","","html-keyboard-response","452","362996","0.0-1.0-630.0","0","0","52846","","null","","","null","69","","","","","","","","","","","","","","","NaN",""
"","S1","","html-keyboard-response","453","363257","0.0-1.0-632.0","0","0","52846","","null","","","null","70","","","","","","","","","","","","","","","",""
"","ISI","","html-keyboard-response","454","363415","0.0-1.0-633.0","0","0","52846","","null","","","null","70","NaN","","","","","","","","","","","","","","",""
"","S2","","html-keyboard-response","455","363670","0.0-1.0-634.0","0","0","52846","","null","","","null","70","","NaN","","","","","","","","","","","","","",""
"","response","","html-keyboard-response","456","363850","0.0-1.0-635.0-0.0","0","0","52846","","178","","","68","70","","","2","70","training","adjacent","GF","7","6","Q.jpg","L.jpg","1","0","0","",""
"","feedback","","html-keyboard-response","457","364860","0.0-1.0-636.0-0.0","0","0","52846","","null","","","null","70","","","","","","","","","","","","","","","",""
"","time_out","","html-keyboard-response","458","366869","0.0-1.0-638.0-0.0","0","0","52846","","null","","","null","70","","","","","","","","","","","","","","","",""
"","ITI","","html-keyboard-response","459","367880","0.0-1.0-639.0","0","0","52846","","null","","","null","70","","","","","","","","","","","","","","","NaN",""
"","S1","","html-keyboard-response","460","368141","0.0-1.0-641.0","0","0","52846","","null","","","null","71","","","","","","","","","","","","","","","",""
"","ISI","","html-keyboard-response","461","368302","0.0-1.0-642.0","0","0","52846","","null","","","null","71","NaN","","","","","","","","","","","","","","",""
"","S2","","html-keyboard-response","462","368562","0.0-1.0-643.0","0","0","52846","","null","","","null","71","","NaN","","","","","","","","","","","","","",""
"","response","","html-keyboard-response","463","369185","0.0-1.0-644.0-0.0","0","0","52846","","622","","","68","71","","","2","71","training","adjacent","FG","6","7","L.jpg","Q.jpg","1","1","1","",""
"","feedback","","html-keyboard-response","464","370198","0.0-1.0-645.0-0.0","0","0","52846","","null","","","null","71","","","","","","","","","","","","","","","",""
"","ITI","","html-keyboard-response","465","371205","0.0-1.0-648.0","0","0","52846","","null","","","null","71","","","","","","","","","","","","","","","NaN",""
"","S1","","html-keyboard-response","466","371460","0.0-1.0-650.0","0","0","52846","","null","","","null","72","","","","","","","","","","","","","","","",""
"","ISI","","html-keyboard-response","467","371623","0.0-1.0-651.0","0","0","52846","","null","","","null","72","NaN","","","","","","","","","","","","","","",""
"","S2","","html-keyboard-response","468","371879","0.0-1.0-652.0","0","0","52846","","null","","","null","72","","NaN","","","","","","","","","","","","","",""
"","response","","html-keyboard-response","469","372495","0.0-1.0-653.0-0.0","0","0","52846","","615","","","75","72","","","2","72","training","adjacent","CB","3","2","R.jpg","P.jpg","0","0","1","",""
"","feedback","","html-keyboard-response","470","373504","0.0-1.0-654.0-0.0","0","0","52846","","null","","","null","72","","","","","","","","","","","","","","","",""
"","ITI","","html-keyboard-response","471","374508","0.0-1.0-657.0","0","0","52846","","null","","","null","72","","","","","","","","","","","","","","","NaN",""
"","S1","","html-keyboard-response","472","374766","0.0-1.0-659.0","0","0","52846","","null","","","null","73","","","","","","","","","","","","","","","",""
"","ISI","","html-keyboard-response","473","374926","0.0-1.0-660.0","0","0","52846","","null","","","null","73","NaN","","","","","","","","","","","","","","",""
"","S2","","html-keyboard-response","474","375182","0.0-1.0-661.0","0","0","52846","","null","","","null","73","","NaN","","","","","","","","","","","","","",""
"","response","","html-keyboard-response","475","375614","0.0-1.0-662.0-0.0","0","0","52846","","431","","","75","73","","","2","73","training","adjacent","DC","4","3","N.jpg","R.jpg","0","0","1","",""
"","feedback","","html-keyboard-response","476","376621","0.0-1.0-663.0-0.0","0","0","52846","","null","","","null","73","","","","","","","","","","","","","","","",""
"","ITI","","html-keyboard-response","477","377631","0.0-1.0-666.0","0","0","52846","","null","","","null","73","","","","","","","","","","","","","","","NaN",""
"","S1","","html-keyboard-response","478","377887","0.0-1.0-668.0","0","0","52846","","null","","","null","74","","","","","","","","","","","","","","","",""
"","ISI","","html-keyboard-response","479","378047","0.0-1.0-669.0","0","0","52846","","null","","","null","74","NaN","","","","","","","","","","","","","","",""
"","S2","","html-keyboard-response","480","378299","0.0-1.0-670.0","0","0","52846","","null","","","null","74","","NaN","","","","","","","","","","","","","",""
"","response","","html-keyboard-response","481","378689","0.0-1.0-671.0-0.0","0","0","52846","","388","","","75","74","","","2","74","training","adjacent","DC","4","3","N.jpg","R.jpg","0","0","1","",""
"","feedback","","html-keyboard-response","482","379692","0.0-1.0-672.0-0.0","0","0","52846","","null","","","null","74","","","","","","","","","","","","","","","",""
"","ITI","","html-keyboard-response","483","380702","0.0-1.0-675.0","0","0","52846","","null","","","null","74","","","","","","","","","","","","","","","NaN",""
"","S1","","html-keyboard-response","484","380958","0.0-1.0-677.0","0","0","52846","","null","","","null","75","","","","","","","","","","","","","","","",""
"","ISI","","html-keyboard-response","485","381120","0.0-1.0-678.0","0","0","52846","","null","","","null","75","NaN","","","","","","","","","","","","","","",""
"","S2","","html-keyboard-response","486","381381","0.0-1.0-679.0","0","0","52846","","null","","","null","75","","NaN","","","","","","","","","","","","","",""
"","response","","html-keyboard-response","487","381936","0.0-1.0-680.0-0.0","0","0","52846","","553","","","75","75","","","2","75","training","adjacent","AB","1","2","M.jpg","P.jpg","0","1","0","",""
"","feedback","","html-keyboard-response","488","382943","0.0-1.0-681.0-0.0","0","0","52846","","null","","","null","75","","","","","","","","","","","","","","","",""
"","time_out","","html-keyboard-response","489","384951","0.0-1.0-683.0-0.0","0","0","52846","","null","","","null","75","","","","","","","","","","","","","","","",""
"","ITI","","html-keyboard-response","490","385956","0.0-1.0-684.0","0","0","52846","","null","","","null","75","","","","","","","","","","","","","","","NaN",""
"","S1","","html-keyboard-response","491","386226","0.0-1.0-686.0","0","0","52846","","null","","","null","76","","","","","","","","","","","","","","","",""
"","ISI","","html-keyboard-response","492","386380","0.0-1.0-687.0","0","0","52846","","null","","","null","76","NaN","","","","","","","","","","","","","","",""
"","S2","","html-keyboard-response","493","386636","0.0-1.0-688.0","0","0","52846","","null","","","null","76","","NaN","","","","","","","","","","","","","",""
"","response","","html-keyboard-response","494","387370","0.0-1.0-689.0-0.0","0","0","52846","","731","","","68","76","","","2","76","training","adjacent","EF","5","6","O.jpg","L.jpg","1","1","1","",""
"","feedback","","html-keyboard-response","495","388383","0.0-1.0-690.0-0.0","0","0","52846","","null","","","null","76","","","","","","","","","","","","","","","",""
"","ITI","","html-keyboard-response","496","389393","0.0-1.0-693.0","0","0","52846","","null","","","null","76","","","","","","","","","","","","","","","NaN",""
"","S1","","html-keyboard-response","497","389655","0.0-1.0-695.0","0","0","52846","","null","","","null","77","","","","","","","","","","","","","","","",""
"","ISI","","html-keyboard-response","498","389817","0.0-1.0-696.0","0","0","52846","","null","","","null","77","NaN","","","","","","","","","","","","","","",""
"","S2","","html-keyboard-response","499","390077","0.0-1.0-697.0","0","0","52846","","null","","","null","77","","NaN","","","","","","","","","","","","","",""
"","response","","html-keyboard-response","500","390405","0.0-1.0-698.0-0.0","0","0","52846","","326","","","75","77","","","2","77","training","adjacent","BC","2","3","P.jpg","R.jpg","0","1","0","",""
"","feedback","","html-keyboard-response","501","391413","0.0-1.0-699.0-0.0","0","0","52846","","null","","","null","77","","","","","","","","","","","","","","","",""
"","time_out","","html-keyboard-response","502","393421","0.0-1.0-701.0-0.0","0","0","52846","","null","","","null","77","","","","","","","","","","","","","","","",""
"","ITI","","html-keyboard-response","503","394432","0.0-1.0-702.0","0","0","52846","","null","","","null","77","","","","","","","","","","","","","","","NaN",""
"","S1","","html-keyboard-response","504","394693","0.0-1.0-704.0","0","0","52846","","null","","","null","78","","","","","","","","","","","","","","","",""
"","ISI","","html-keyboard-response","505","394856","0.0-1.0-705.0","0","0","52846","","null","","","null","78","NaN","","","","","","","","","","","","","","",""
"","S2","","html-keyboard-response","506","395117","0.0-1.0-706.0","0","0","52846","","null","","","null","78","","NaN","","","","","","","","","","","","","",""
"","response","","html-keyboard-response","507","395671","0.0-1.0-707.0-0.0","0","0","52846","","551","","","75","78","","","2","78","training","adjacent","BA","2","1","P.jpg","M.jpg","0","0","1","",""
"","feedback","","html-keyboard-response","508","396677","0.0-1.0-708.0-0.0","0","0","52846","","null","","","null","78","","","","","","","","","","","","","","","",""
"","ITI","","html-keyboard-response","509","397689","0.0-1.0-711.0","0","0","52846","","null","","","null","78","","","","","","","","","","","","","","","NaN",""
"","S1","","html-keyboard-response","510","397953","0.0-1.0-713.0","0","0","52846","","null","","","null","79","","","","","","","","","","","","","","","",""
"","ISI","","html-keyboard-response","511","398112","0.0-1.0-714.0","0","0","52846","","null","","","null","79","NaN","","","","","","","","","","","","","","",""
"","S2","","html-keyboard-response","512","398374","0.0-1.0-715.0","0","0","52846","","null","","","null","79","","NaN","","","","","","","","","","","","","",""
"","response","","html-keyboard-response","513","399171","0.0-1.0-716.0-0.0","0","0","52846","","794","","","75","79","","","2","79","training","adjacent","CB","3","2","R.jpg","P.jpg","0","0","1","",""
"","feedback","","html-keyboard-response","514","400185","0.0-1.0-717.0-0.0","0","0","52846","","null","","","null","79","","","","","","","","","","","","","","","",""
"","ITI","","html-keyboard-response","515","401190","0.0-1.0-720.0","0","0","52846","","null","","","null","79","","","","","","","","","","","","","","","NaN",""
"","S1","","html-keyboard-response","516","401445","0.0-1.0-722.0","0","0","52846","","null","","","null","80","","","","","","","","","","","","","","","",""
"","ISI","","html-keyboard-response","517","401608","0.0-1.0-723.0","0","0","52846","","null","","","null","80","NaN","","","","","","","","","","","","","","",""
"","S2","","html-keyboard-response","518","401863","0.0-1.0-724.0","0","0","52846","","null","","","null","80","","NaN","","","","","","","","","","","","","",""
"","response","","html-keyboard-response","519","402711","0.0-1.0-725.0-0.0","0","0","52846","","845","","","68","80","","","2","80","training","adjacent","CD","3","4","R.jpg","N.jpg","1","1","1","",""
"","feedback","","html-keyboard-response","520","403720","0.0-1.0-726.0-0.0","0","0","52846","","null","","","null","80","","","","","","","","","","","","","","","",""
"","ITI","","html-keyboard-response","521","404725","0.0-1.0-729.0","0","0","52846","","null","","","null","80","","","","","","","","","","","","","","","NaN",""
"","S1","","html-keyboard-response","522","404986","0.0-1.0-731.0","0","0","52846","","null","","","null","81","","","","","","","","","","","","","","","",""
"","ISI","","html-keyboard-response","523","405143","0.0-1.0-732.0","0","0","52846","","null","","","null","81","NaN","","","","","","","","","","","","","","",""
"","S2","","html-keyboard-response","524","405399","0.0-1.0-733.0","0","0","52846","","null","","","null","81","","NaN","","","","","","","","","","","","","",""
"","response","","html-keyboard-response","525","405787","0.0-1.0-734.0-0.0","0","0","52846","","386","","","75","81","","","2","81","training","adjacent","FE","6","5","L.jpg","O.jpg","0","0","1","",""
"","feedback","","html-keyboard-response","526","406797","0.0-1.0-735.0-0.0","0","0","52846","","null","","","null","81","","","","","","","","","","","","","","","",""
"","ITI","","html-keyboard-response","527","407806","0.0-1.0-738.0","0","0","52846","","null","","","null","81","","","","","","","","","","","","","","","NaN",""
"","S1","","html-keyboard-response","528","408062","0.0-1.0-740.0","0","0","52846","","null","","","null","82","","","","","","","","","","","","","","","",""
"","ISI","","html-keyboard-response","529","408225","0.0-1.0-741.0","0","0","52846","","null","","","null","82","NaN","","","","","","","","","","","","","","",""
"","S2","","html-keyboard-response","530","408486","0.0-1.0-742.0","0","0","52846","","null","","","null","82","","NaN","","","","","","","","","","","","","",""
"","response","","html-keyboard-response","531","408944","0.0-1.0-743.0-0.0","0","0","52846","","455","","","75","82","","","2","82","training","adjacent","FE","6","5","L.jpg","O.jpg","0","0","1","",""
"","feedback","","html-keyboard-response","532","409949","0.0-1.0-744.0-0.0","0","0","52846","","null","","","null","82","","","","","","","","","","","","","","","",""
"","ITI","","html-keyboard-response","533","410960","0.0-1.0-747.0","0","0","52846","","null","","","null","82","","","","","","","","","","","","","","","NaN",""
"","S1","","html-keyboard-response","534","411215","0.0-1.0-749.0","0","0","52846","","null","","","null","83","","","","","","","","","","","","","","","",""
"","ISI","","html-keyboard-response","535","411378","0.0-1.0-750.0","0","0","52846","","null","","","null","83","NaN","","","","","","","","","","","","","","",""
"","S2","","html-keyboard-response","536","411639","0.0-1.0-751.0","0","0","52846","","null","","","null","83","","NaN","","","","","","","","","","","","","",""
"","response","","html-keyboard-response","537","412473","0.0-1.0-752.0-0.0","0","0","52846","","831","","","68","83","","","2","83","training","adjacent","CB","3","2","R.jpg","P.jpg","1","0","0","",""
"","feedback","","html-keyboard-response","538","413478","0.0-1.0-753.0-0.0","0","0","52846","","null","","","null","83","","","","","","","","","","","","","","","",""
"","time_out","","html-keyboard-response","539","415488","0.0-1.0-755.0-0.0","0","0","52846","","null","","","null","83","","","","","","","","","","","","","","","",""
"","ITI","","html-keyboard-response","540","416498","0.0-1.0-756.0","0","0","52846","","null","","","null","83","","","","","","","","","","","","","","","NaN",""
"","S1","","html-keyboard-response","541","416759","0.0-1.0-758.0","0","0","52846","","null","","","null","84","","","","","","","","","","","","","","","",""
"","ISI","","html-keyboard-response","542","416922","0.0-1.0-759.0","0","0","52846","","null","","","null","84","NaN","","","","","","","","","","","","","","",""
"","S2","","html-keyboard-response","543","417183","0.0-1.0-760.0","0","0","52846","","null","","","null","84","","NaN","","","","","","","","","","","","","",""
"","response","","html-keyboard-response","544","417733","0.0-1.0-761.0-0.0","0","0","52846","","547","","","75","84","","","2","84","training","adjacent","DC","4","3","N.jpg","R.jpg","0","0","1","",""
"","feedback","","html-keyboard-response","545","418745","0.0-1.0-762.0-0.0","0","0","52846","","null","","","null","84","","","","","","","","","","","","","","","",""
"","ITI","","html-keyboard-response","546","419754","0.0-1.0-765.0","0","0","52846","","null","","","null","84","","","","","","","","","","","","","","","NaN",""
"","S1","","html-keyboard-response","547","420015","0.0-1.0-767.0","0","0","52846","","null","","","null","85","","","","","","","","","","","","","","","",""
"","ISI","","html-keyboard-response","548","420178","0.0-1.0-768.0","0","0","52846","","null","","","null","85","NaN","","","","","","","","","","","","","","",""
"","S2","","html-keyboard-response","549","420440","0.0-1.0-769.0","0","0","52846","","null","","","null","85","","NaN","","","","","","","","","","","","","",""
"","response","","html-keyboard-response","550","421142","0.0-1.0-770.0-0.0","0","0","52846","","701","","","68","85","","","2","85","training","adjacent","EF","5","6","O.jpg","L.jpg","1","1","1","",""
"","feedback","","html-keyboard-response","551","422151","0.0-1.0-771.0-0.0","0","0","52846","","null","","","null","85","","","","","","","","","","","","","","","",""
"","ITI","","html-keyboard-response","552","423162","0.0-1.0-774.0","0","0","52846","","null","","","null","85","","","","","","","","","","","","","","","NaN",""
"","S1","","html-keyboard-response","553","423423","0.0-1.0-776.0","0","0","52846","","null","","","null","86","","","","","","","","","","","","","","","",""
"","ISI","","html-keyboard-response","554","423585","0.0-1.0-777.0","0","0","52846","","null","","","null","86","NaN","","","","","","","","","","","","","","",""
"","S2","","html-keyboard-response","555","423847","0.0-1.0-778.0","0","0","52846","","null","","","null","86","","NaN","","","","","","","","","","","","","",""
"","response","","html-keyboard-response","556","424485","0.0-1.0-779.0-0.0","0","0","52846","","637","","","75","86","","","2","86","training","adjacent","GF","7","6","Q.jpg","L.jpg","0","0","1","",""
"","feedback","","html-keyboard-response","557","425496","0.0-1.0-780.0-0.0","0","0","52846","","null","","","null","86","","","","","","","","","","","","","","","",""
"","ITI","","html-keyboard-response","558","426506","0.0-1.0-783.0","0","0","52846","","null","","","null","86","","","","","","","","","","","","","","","NaN",""
"","S1","","html-keyboard-response","559","426767","0.0-1.0-785.0","0","0","52846","","null","","","null","87","","","","","","","","","","","","","","","",""
"","ISI","","html-keyboard-response","560","426930","0.0-1.0-786.0","0","0","52846","","null","","","null","87","NaN","","","","","","","","","","","","","","",""
"","S2","","html-keyboard-response","561","427190","0.0-1.0-787.0","0","0","52846","","null","","","null","87","","NaN","","","","","","","","","","","","","",""
"","response","","html-keyboard-response","562","427623","0.0-1.0-788.0-0.0","0","0","52846","","430","","","75","87","","","2","87","training","adjacent","BA","2","1","P.jpg","M.jpg","0","0","1","",""
"","feedback","","html-keyboard-response","563","428631","0.0-1.0-789.0-0.0","0","0","52846","","null","","","null","87","","","","","","","","","","","","","","","",""
"","ITI","","html-keyboard-response","564","429641","0.0-1.0-792.0","0","0","52846","","null","","","null","87","","","","","","","","","","","","","","","NaN",""
"","S1","","html-keyboard-response","565","429902","0.0-1.0-794.0","0","0","52846","","null","","","null","88","","","","","","","","","","","","","","","",""
"","ISI","","html-keyboard-response","566","430064","0.0-1.0-795.0","0","0","52846","","null","","","null","88","NaN","","","","","","","","","","","","","","",""
"","S2","","html-keyboard-response","567","430320","0.0-1.0-796.0","0","0","52846","","null","","","null","88","","NaN","","","","","","","","","","","","","",""
"","response","","html-keyboard-response","568","431190","0.0-1.0-797.0-0.0","0","0","52846","","867","","","68","88","","","2","88","training","adjacent","CD","3","4","R.jpg","N.jpg","1","1","1","",""
"","feedback","","html-keyboard-response","569","432203","0.0-1.0-798.0-0.0","0","0","52846","","null","","","null","88","","","","","","","","","","","","","","","",""
"","ITI","","html-keyboard-response","570","433216","0.0-1.0-801.0","0","0","52846","","null","","","null","88","","","","","","","","","","","","","","","NaN",""
"","S1","","html-keyboard-response","571","433472","0.0-1.0-803.0","0","0","52846","","null","","","null","89","","","","","","","","","","","","","","","",""
"","ISI","","html-keyboard-response","572","433635","0.0-1.0-804.0","0","0","52846","","null","","","null","89","NaN","","","","","","","","","","","","","","",""
"","S2","","html-keyboard-response","573","433896","0.0-1.0-805.0","0","0","52846","","null","","","null","89","","NaN","","","","","","","","","","","","","",""
"","response","","html-keyboard-response","574","434452","0.0-1.0-806.0-0.0","0","0","52846","","554","","","75","89","","","2","89","training","adjacent","AB","1","2","M.jpg","P.jpg","0","1","0","",""
"","feedback","","html-keyboard-response","575","435462","0.0-1.0-807.0-0.0","0","0","52846","","null","","","null","89","","","","","","","","","","","","","","","",""
"","time_out","","html-keyboard-response","576","437471","0.0-1.0-809.0-0.0","0","0","52846","","null","","","null","89","","","","","","","","","","","","","","","",""
"","ITI","","html-keyboard-response","577","438481","0.0-1.0-810.0","0","0","52846","","null","","","null","89","","","","","","","","","","","","","","","NaN",""
"","S1","","html-keyboard-response","578","438746","0.0-1.0-812.0","0","0","52846","","null","","","null","90","","","","","","","","","","","","","","","",""
"","ISI","","html-keyboard-response","579","438906","0.0-1.0-813.0","0","0","52846","","null","","","null","90","NaN","","","","","","","","","","","","","","",""
"","S2","","html-keyboard-response","580","439166","0.0-1.0-814.0","0","0","52846","","null","","","null","90","","NaN","","","","","","","","","","","","","",""
"","response","","html-keyboard-response","581","439823","0.0-1.0-815.0-0.0","0","0","52846","","654","","","75","90","","","2","90","training","adjacent","ED","5","4","O.jpg","N.jpg","0","0","1","",""
"","feedback","","html-keyboard-response","582","440832","0.0-1.0-816.0-0.0","0","0","52846","","null","","","null","90","","","","","","","","","","","","","","","",""
