"success","ttype","start_time","trial_type","trial_index","time_elapsed","internal_node_id","warning","missed_checkup","PID","view_history","rt","responses","repeat_instructions","key_press","index","keypress_isi","keypress_S2","block","trial_num","phase","group_type","pair_type","S1_stim","S2_stim","S1_img","S2_img","S1_chosen","S1_higher","accuracy","keypress_iti","total_bonus_tally"
"true","full_screen","d08052022hr1855","fullscreen","0","8479","0.0-0.0","0","0","61112","","","","","","","","","","","","","","","","","","","","","",""
"","instructions","","instructions","1","61846","0.0-1.0-0.0-0.0","0","0","61112","[{""page_index"":0,""viewing_time"":5974},{""page_index"":1,""viewing_time"":13478},{""page_index"":2,""viewing_time"":10434},{""page_index"":3,""viewing_time"":23479}]","53365","","","","","","","","","","","","","","","","","","","",""
"","comprehension_check","","survey-multi-choice","2","85649","0.0-1.0-0.0-1.0","0","0","61112","","23797","{""Q0"":""True"",""Q1"":""D"",""Q2"":""Once the second image appears and while the screen 'MAKE A CHOICE' is shown"",""Q3"":""Green mark"",""Q4"":""either D or K""}","0","","","","","","","","","","","","","","","","","",""
"","start_exp","","html-keyboard-response","3","87063","0.0-1.0-1.0","0","0","61112","","1411","","","32","","","","","","","","","","","","","","","","",""
"","S1","","html-keyboard-response","4","87334","0.0-1.0-2.0","0","0","61112","","null","","","null","0","","","","","","","","","","","","","","","",""
"","ISI","","html-keyboard-response","5","89336","0.0-1.0-3.0","0","0","61112","","null","","","null","0","NaN","","","","","","","","","","","","","","",""
"","S2","","html-keyboard-response","6","89589","0.0-1.0-4.0","0","0","61112","","null","","","null","0","","NaN","","","","","","","","","","","","","",""
"","response","","html-keyboard-response","7","90528","0.0-1.0-5.0-0.0","0","0","61112","","937","","","75","0","","","1","0","training","adjacent","EF","5","6","O.jpg","N.jpg","0","1","0","",""
"","feedback","","html-keyboard-response","8","91533","0.0-1.0-6.0-0.0","0","0","61112","","null","","","null","0","","","","","","","","","","","","","","","",""
"","time_out","","html-keyboard-response","9","93535","0.0-1.0-8.0-0.0","0","0","61112","","null","","","null","0","","","","","","","","","","","","","","","",""
"","ITI","","html-keyboard-response","10","94538","0.0-1.0-9.0","0","0","61112","","null","","","null","0","","","","","","","","","","","","","","","NaN",""
"","S1","","html-keyboard-response","11","94791","0.0-1.0-11.0","0","0","61112","","null","","","null","1","","","","","","","","","","","","","","","",""
"","ISI","","html-keyboard-response","12","96793","0.0-1.0-12.0","0","0","61112","","null","","","null","1","NaN","","","","","","","","","","","","","","",""
"","S2","","html-keyboard-response","13","97047","0.0-1.0-13.0","0","0","61112","","null","","","null","1","","NaN","","","","","","","","","","","","","",""
"","response","","html-keyboard-response","14","97782","0.0-1.0-14.0-0.0","0","0","61112","","734","","","68","1","","","1","1","training","adjacent","BC","2","3","M.jpg","P.jpg","1","1","1","",""
"","feedback","","html-keyboard-response","15","98785","0.0-1.0-15.0-0.0","0","0","61112","","null","","","null","1","","","","","","","","","","","","","","","",""
"","ITI","","html-keyboard-response","16","99788","0.0-1.0-18.0","0","0","61112","","null","","","null","1","","","","","","","","","","","","","","","NaN",""
"","S1","","html-keyboard-response","17","100041","0.0-1.0-20.0","0","0","61112","","null","","","null","2","","","","","","","","","","","","","","","",""
"","ISI","","html-keyboard-response","18","102044","0.0-1.0-21.0","0","0","61112","","null","","","null","2","NaN","","","","","","","","","","","","","","",""
"","S2","","html-keyboard-response","19","102296","0.0-1.0-22.0","0","0","61112","","null","","","null","2","","NaN","","","","","","","","","","","","","",""
"","response","","html-keyboard-response","20","103397","0.0-1.0-23.0-0.0","0","0","61112","","1099","","","68","2","","","1","2","training","adjacent","CD","3","4","P.jpg","L.jpg","1","1","1","",""
"","feedback","","html-keyboard-response","21","104400","0.0-1.0-24.0-0.0","0","0","61112","","null","","","null","2","","","","","","","","","","","","","","","",""
"","ITI","","html-keyboard-response","22","105402","0.0-1.0-27.0","0","0","61112","","null","","","null","2","","","","","","","","","","","","","","","NaN",""
"","S1","","html-keyboard-response","23","105654","0.0-1.0-29.0","0","0","61112","","null","","","null","3","","","","","","","","","","","","","","","",""
"","ISI","","html-keyboard-response","24","107658","0.0-1.0-30.0","0","0","61112","","null","","","null","3","NaN","","","","","","","","","","","","","","",""
"","S2","","html-keyboard-response","25","107911","0.0-1.0-31.0","0","0","61112","","null","","","null","3","","NaN","","","","","","","","","","","","","",""
"","response","","html-keyboard-response","26","108582","0.0-1.0-32.0-0.0","0","0","61112","","669","","","68","3","","","1","3","training","adjacent","FG","6","7","N.jpg","Q.jpg","1","1","1","",""
"","feedback","","html-keyboard-response","27","109586","0.0-1.0-33.0-0.0","0","0","61112","","null","","","null","3","","","","","","","","","","","","","","","",""
"","ITI","","html-keyboard-response","28","110589","0.0-1.0-36.0","0","0","61112","","null","","","null","3","","","","","","","","","","","","","","","NaN",""
"","S1","","html-keyboard-response","29","110842","0.0-1.0-38.0","0","0","61112","","null","","","null","4","","","","","","","","","","","","","","","",""
"","ISI","","html-keyboard-response","30","112844","0.0-1.0-39.0","0","0","61112","","null","","","null","4","NaN","","","","","","","","","","","","","","",""
"","S2","","html-keyboard-response","31","113097","0.0-1.0-40.0","0","0","61112","","null","","","null","4","","NaN","","","","","","","","","","","","","",""
"","response","","html-keyboard-response","32","113547","0.0-1.0-41.0-0.0","0","0","61112","","448","","","68","4","","","1","4","training","adjacent","BA","2","1","M.jpg","R.jpg","1","0","0","",""
"","feedback","","html-keyboard-response","33","114551","0.0-1.0-42.0-0.0","0","0","61112","","null","","","null","4","","","","","","","","","","","","","","","",""
"","time_out","","html-keyboard-response","34","116554","0.0-1.0-44.0-0.0","0","0","61112","","null","","","null","4","","","","","","","","","","","","","","","",""
"","ITI","","html-keyboard-response","35","117558","0.0-1.0-45.0","0","0","61112","","null","","","null","4","","","","","","","","","","","","","","","NaN",""
"","S1","","html-keyboard-response","36","117811","0.0-1.0-47.0","0","0","61112","","null","","","null","5","","","","","","","","","","","","","","","",""
"","ISI","","html-keyboard-response","37","119813","0.0-1.0-48.0","0","0","61112","","null","","","null","5","NaN","","","","","","","","","","","","","","",""
"","S2","","html-keyboard-response","38","120066","0.0-1.0-49.0","0","0","61112","","null","","","null","5","","NaN","","","","","","","","","","","","","",""
"","response","","html-keyboard-response","39","120578","0.0-1.0-50.0-0.0","0","0","61112","","510","","","75","5","","","1","5","training","adjacent","FE","6","5","N.jpg","O.jpg","0","0","1","",""
"","feedback","","html-keyboard-response","40","121581","0.0-1.0-51.0-0.0","0","0","61112","","null","","","null","5","","","","","","","","","","","","","","","",""
"","ITI","","html-keyboard-response","41","122584","0.0-1.0-54.0","0","0","61112","","null","","","null","5","","","","","","","","","","","","","","","NaN",""
"","S1","","html-keyboard-response","42","122838","0.0-1.0-56.0","0","0","61112","","null","","","null","6","","","","","","","","","","","","","","","",""
"","ISI","","html-keyboard-response","43","124840","0.0-1.0-57.0","0","0","61112","","null","","","null","6","NaN","","","","","","","","","","","","","","",""
"","S2","","html-keyboard-response","44","125093","0.0-1.0-58.0","0","0","61112","","null","","","null","6","","NaN","","","","","","","","","","","","","",""
"","response","","html-keyboard-response","45","125196","0.0-1.0-59.0-0.0","0","0","61112","","101","","","75","6","","","1","6","training","adjacent","FG","6","7","N.jpg","Q.jpg","0","1","0","",""
"","feedback","","html-keyboard-response","46","126199","0.0-1.0-60.0-0.0","0","0","61112","","null","","","null","6","","","","","","","","","","","","","","","",""
"","time_out","","html-keyboard-response","47","128201","0.0-1.0-62.0-0.0","0","0","61112","","null","","","null","6","","","","","","","","","","","","","","","",""
"","ITI","","html-keyboard-response","48","129203","0.0-1.0-63.0","0","0","61112","","null","","","null","6","","","","","","","","","","","","","","","NaN",""
"","S1","","html-keyboard-response","49","129455","0.0-1.0-65.0","0","0","61112","","null","","","null","7","","","","","","","","","","","","","","","",""
"","ISI","","html-keyboard-response","50","131458","0.0-1.0-66.0","0","0","61112","","null","","","null","7","NaN","","","","","","","","","","","","","","",""
"","S2","","html-keyboard-response","51","131711","0.0-1.0-67.0","0","0","61112","","null","","","null","7","","NaN","","","","","","","","","","","","","",""
"","response","","html-keyboard-response","52","132102","0.0-1.0-68.0-0.0","0","0","61112","","390","","","68","7","","","1","7","training","adjacent","FE","6","5","N.jpg","O.jpg","1","0","0","",""
"","feedback","","html-keyboard-response","53","133105","0.0-1.0-69.0-0.0","0","0","61112","","null","","","null","7","","","","","","","","","","","","","","","",""
"","time_out","","html-keyboard-response","54","135109","0.0-1.0-71.0-0.0","0","0","61112","","null","","","null","7","","","","","","","","","","","","","","","",""
"","ITI","","html-keyboard-response","55","136112","0.0-1.0-72.0","0","0","61112","","null","","","null","7","","","","","","","","","","","","","","","NaN",""
"","S1","","html-keyboard-response","56","136365","0.0-1.0-74.0","0","0","61112","","null","","","null","8","","","","","","","","","","","","","","","",""
"","ISI","","html-keyboard-response","57","138369","0.0-1.0-75.0","0","0","61112","","null","","","null","8","NaN","","","","","","","","","","","","","","",""
"","S2","","html-keyboard-response","58","138622","0.0-1.0-76.0","0","0","61112","","null","","","null","8","","NaN","","","","","","","","","","","","","",""
"","response","","html-keyboard-response","59","138974","0.0-1.0-77.0-0.0","0","0","61112","","349","","","68","8","","","1","8","training","adjacent","DC","4","3","L.jpg","P.jpg","1","0","0","",""
"","feedback","","html-keyboard-response","60","139976","0.0-1.0-78.0-0.0","0","0","61112","","null","","","null","8","","","","","","","","","","","","","","","",""
"","time_out","","html-keyboard-response","61","141979","0.0-1.0-80.0-0.0","0","0","61112","","null","","","null","8","","","","","","","","","","","","","","","",""
"","ITI","","html-keyboard-response","62","142982","0.0-1.0-81.0","0","0","61112","","null","","","null","8","","","","","","","","","","","","","","","NaN",""
"","S1","","html-keyboard-response","63","143235","0.0-1.0-83.0","0","0","61112","","null","","","null","9","","","","","","","","","","","","","","","",""
"","ISI","","html-keyboard-response","64","145238","0.0-1.0-84.0","0","0","61112","","null","","","null","9","NaN","","","","","","","","","","","","","","",""
"","S2","","html-keyboard-response","65","145490","0.0-1.0-85.0","0","0","61112","","null","","","null","9","","NaN","","","","","","","","","","","","","",""
"","response","","html-keyboard-response","66","146329","0.0-1.0-86.0-0.0","0","0","61112","","838","","","68","9","","","1","9","training","adjacent","CD","3","4","P.jpg","L.jpg","1","1","1","",""
"","feedback","","html-keyboard-response","67","147333","0.0-1.0-87.0-0.0","0","0","61112","","null","","","null","9","","","","","","","","","","","","","","","",""
"","ITI","","html-keyboard-response","68","148335","0.0-1.0-90.0","0","0","61112","","null","","","null","9","","","","","","","","","","","","","","","NaN",""
"","S1","","html-keyboard-response","69","148588","0.0-1.0-92.0","0","0","61112","","null","","","null","10","","","","","","","","","","","","","","","",""
"","ISI","","html-keyboard-response","70","150590","0.0-1.0-93.0","0","0","61112","","null","","","null","10","NaN","","","","","","","","","","","","","","",""
"","S2","","html-keyboard-response","71","150843","0.0-1.0-94.0","0","0","61112","","null","","","null","10","","NaN","","","","","","","","","","","","","",""
"","response","","html-keyboard-response","72","151237","0.0-1.0-95.0-0.0","0","0","61112","","391","","","68","10","","","1","10","training","adjacent","FE","6","5","N.jpg","O.jpg","1","0","0","",""
"","feedback","","html-keyboard-response","73","152240","0.0-1.0-96.0-0.0","0","0","61112","","null","","","null","10","","","","","","","","","","","","","","","",""
"","time_out","","html-keyboard-response","74","154242","0.0-1.0-98.0-0.0","0","0","61112","","null","","","null","10","","","","","","","","","","","","","","","",""
"","ITI","","html-keyboard-response","75","155245","0.0-1.0-99.0","0","0","61112","","null","","","null","10","","","","","","","","","","","","","","","NaN",""
"","S1","","html-keyboard-response","76","155501","0.0-1.0-101.0","0","0","61112","","null","","","null","11","","","","","","","","","","","","","","","",""
"","ISI","","html-keyboard-response","77","157504","0.0-1.0-102.0","0","0","61112","","null","","","null","11","NaN","","","","","","","","","","","","","","",""
"","S2","","html-keyboard-response","78","157757","0.0-1.0-103.0","0","0","61112","","null","","","null","11","","NaN","","","","","","","","","","","","","",""
"","response","","html-keyboard-response","79","158212","0.0-1.0-104.0-0.0","0","0","61112","","452","","","75","11","","","1","11","training","adjacent","CB","3","2","P.jpg","M.jpg","0","0","1","",""
"","feedback","","html-keyboard-response","80","159215","0.0-1.0-105.0-0.0","0","0","61112","","null","","","null","11","","","","","","","","","","","","","","","",""
"","ITI","","html-keyboard-response","81","160218","0.0-1.0-108.0","0","0","61112","","null","","","null","11","","","","","","","","","","","","","","","NaN",""
"","S1","","html-keyboard-response","82","160470","0.0-1.0-110.0","0","0","61112","","null","","","null","12","","","","","","","","","","","","","","","",""
"","ISI","","html-keyboard-response","83","162473","0.0-1.0-111.0","0","0","61112","","null","","","null","12","NaN","","","","","","","","","","","","","","",""
"","S2","","html-keyboard-response","84","162727","0.0-1.0-112.0","0","0","61112","","null","","","null","12","","NaN","","","","","","","","","","","","","",""
"","response","","html-keyboard-response","85","163182","0.0-1.0-113.0-0.0","0","0","61112","","453","","","75","12","","","1","12","training","adjacent","AB","1","2","R.jpg","M.jpg","0","1","0","",""
"","feedback","","html-keyboard-response","86","164184","0.0-1.0-114.0-0.0","0","0","61112","","null","","","null","12","","","","","","","","","","","","","","","",""
"","time_out","","html-keyboard-response","87","166186","0.0-1.0-116.0-0.0","0","0","61112","","null","","","null","12","","","","","","","","","","","","","","","",""
"","ITI","","html-keyboard-response","88","167189","0.0-1.0-117.0","0","0","61112","","null","","","null","12","","","","","","","","","","","","","","","NaN",""
"","S1","","html-keyboard-response","89","167457","0.0-1.0-119.0","0","0","61112","","null","","","null","13","","","","","","","","","","","","","","","",""
"","ISI","","html-keyboard-response","90","169467","0.0-1.0-120.0","0","0","61112","","null","","","null","13","NaN","","","","","","","","","","","","","","",""
"","S2","","html-keyboard-response","91","169720","0.0-1.0-121.0","0","0","61112","","null","","","null","13","","NaN","","","","","","","","","","","","","",""
"","response","","html-keyboard-response","92","170078","0.0-1.0-122.0-0.0","0","0","61112","","355","","","68","13","","","1","13","training","adjacent","ED","5","4","O.jpg","L.jpg","1","0","0","",""
"","feedback","","html-keyboard-response","93","171081","0.0-1.0-123.0-0.0","0","0","61112","","null","","","null","13","","","","","","","","","","","","","","","",""
"","time_out","","html-keyboard-response","94","173084","0.0-1.0-125.0-0.0","0","0","61112","","null","","","null","13","","","","","","","","","","","","","","","",""
"","ITI","","html-keyboard-response","95","174095","0.0-1.0-126.0","0","0","61112","","null","","","null","13","","","","","","","","","","","","","","","NaN",""
"","S1","","html-keyboard-response","96","174349","0.0-1.0-128.0","0","0","61112","","null","","","null","14","","","","","","","","","","","","","","","",""
"","ISI","","html-keyboard-response","97","176351","0.0-1.0-129.0","0","0","61112","","null","","","null","14","NaN","","","","","","","","","","","","","","",""
"","S2","","html-keyboard-response","98","176605","0.0-1.0-130.0","0","0","61112","","null","","","null","14","","NaN","","","","","","","","","","","","","",""
"","response","","html-keyboard-response","99","177295","0.0-1.0-131.0-0.0","0","0","61112","","687","","","75","14","","","1","14","training","adjacent","BA","2","1","M.jpg","R.jpg","0","0","1","",""
"","feedback","","html-keyboard-response","100","178299","0.0-1.0-132.0-0.0","0","0","61112","","null","","","null","14","","","","","","","","","","","","","","","",""
"","ITI","","html-keyboard-response","101","179302","0.0-1.0-135.0","0","0","61112","","null","","","null","14","","","","","","","","","","","","","","","NaN",""
"","S1","","html-keyboard-response","102","179555","0.0-1.0-137.0","0","0","61112","","null","","","null","15","","","","","","","","","","","","","","","",""
"","ISI","","html-keyboard-response","103","181558","0.0-1.0-138.0","0","0","61112","","null","","","null","15","NaN","","","","","","","","","","","","","","",""
"","S2","","html-keyboard-response","104","181812","0.0-1.0-139.0","0","0","61112","","null","","","null","15","","NaN","","","","","","","","","","","","","",""
"","response","","html-keyboard-response","105","182220","0.0-1.0-140.0-0.0","0","0","61112","","406","","","68","15","","","1","15","training","adjacent","ED","5","4","O.jpg","L.jpg","1","0","0","",""
"","feedback","","html-keyboard-response","106","183223","0.0-1.0-141.0-0.0","0","0","61112","","null","","","null","15","","","","","","","","","","","","","","","",""
"","time_out","","html-keyboard-response","107","185227","0.0-1.0-143.0-0.0","0","0","61112","","null","","","null","15","","","","","","","","","","","","","","","",""
"","ITI","","html-keyboard-response","108","186230","0.0-1.0-144.0","0","0","61112","","null","","","null","15","","","","","","","","","","","","","","","NaN",""
"","S1","","html-keyboard-response","109","186483","0.0-1.0-146.0","0","0","61112","","null","","","null","16","","","","","","","","","","","","","","","",""
"","ISI","","html-keyboard-response","110","188486","0.0-1.0-147.0","0","0","61112","","null","","","null","16","NaN","","","","","","","","","","","","","","",""
"","S2","","html-keyboard-response","111","188739","0.0-1.0-148.0","0","0","61112","","null","","","null","16","","NaN","","","","","","","","","","","","","",""
"","response","","html-keyboard-response","112","189280","0.0-1.0-149.0-0.0","0","0","61112","","539","","","68","16","","","1","16","training","adjacent","CD","3","4","P.jpg","L.jpg","1","1","1","",""
"","feedback","","html-keyboard-response","113","190282","0.0-1.0-150.0-0.0","0","0","61112","","null","","","null","16","","","","","","","","","","","","","","","",""
"","ITI","","html-keyboard-response","114","191285","0.0-1.0-153.0","0","0","61112","","null","","","null","16","","","","","","","","","","","","","","","NaN",""
"","S1","","html-keyboard-response","115","191539","0.0-1.0-155.0","0","0","61112","","null","","","null","17","","","","","","","","","","","","","","","",""
"","ISI","","html-keyboard-response","116","193541","0.0-1.0-156.0","0","0","61112","","null","","","null","17","NaN","","","","","","","","","","","","","","",""
"","S2","","html-keyboard-response","117","193795","0.0-1.0-157.0","0","0","61112","","null","","","null","17","","NaN","","","","","","","","","","","","","",""
"","response","","html-keyboard-response","118","194086","0.0-1.0-158.0-0.0","0","0","61112","","290","","","68","17","","","1","17","training","adjacent","DC","4","3","L.jpg","P.jpg","1","0","0","",""
"","feedback","","html-keyboard-response","119","195089","0.0-1.0-159.0-0.0","0","0","61112","","null","","","null","17","","","","","","","","","","","","","","","",""
"","time_out","","html-keyboard-response","120","197092","0.0-1.0-161.0-0.0","0","0","61112","","null","","","null","17","","","","","","","","","","","","","","","",""
"","ITI","","html-keyboard-response","121","198094","0.0-1.0-162.0","0","0","61112","","null","","","null","17","","","","","","","","","","","","","","","NaN",""
"","S1","","html-keyboard-response","122","198347","0.0-1.0-164.0","0","0","61112","","null","","","null","18","","","","","","","","","","","","","","","",""
"","ISI","","html-keyboard-response","123","200349","0.0-1.0-165.0","0","0","61112","","null","","","null","18","NaN","","","","","","","","","","","","","","",""
"","S2","","html-keyboard-response","124","200603","0.0-1.0-166.0","0","0","61112","","null","","","null","18","","NaN","","","","","","","","","","","","","",""
"","response","","html-keyboard-response","125","200846","0.0-1.0-167.0-0.0","0","0","61112","","242","","","75","18","","","1","18","training","adjacent","GF","7","6","Q.jpg","N.jpg","0","0","1","",""
"","feedback","","html-keyboard-response","126","201849","0.0-1.0-168.0-0.0","0","0","61112","","null","","","null","18","","","","","","","","","","","","","","","",""
"","ITI","","html-keyboard-response","127","202852","0.0-1.0-171.0","0","0","61112","","null","","","null","18","","","","","","","","","","","","","","","NaN",""
"","S1","","html-keyboard-response","128","203105","0.0-1.0-173.0","0","0","61112","","null","","","null","19","","","","","","","","","","","","","","","",""
"","ISI","","html-keyboard-response","129","205108","0.0-1.0-174.0","0","0","61112","","null","","","null","19","NaN","","","","","","","","","","","","","","",""
"","S2","","html-keyboard-response","130","205361","0.0-1.0-175.0","0","0","61112","","null","","","null","19","","NaN","","","","","","","","","","","","","",""
"","response","","html-keyboard-response","131","207014","0.0-1.0-176.0-0.0","0","0","61112","","1651","","","75","19","","","1","19","training","adjacent","BA","2","1","M.jpg","R.jpg","0","0","1","",""
"","feedback","","html-keyboard-response","132","208016","0.0-1.0-177.0-0.0","0","0","61112","","null","","","null","19","","","","","","","","","","","","","","","",""
"","ITI","","html-keyboard-response","133","209020","0.0-1.0-180.0","0","0","61112","","null","","","null","19","","","","","","","","","","","","","","","NaN",""
"","S1","","html-keyboard-response","134","209272","0.0-1.0-182.0","0","0","61112","","null","","","null","20","","","","","","","","","","","","","","","",""
"","ISI","","html-keyboard-response","135","211275","0.0-1.0-183.0","0","0","61112","","null","","","null","20","NaN","","","","","","","","","","","","","","",""
"","S2","","html-keyboard-response","136","211532","0.0-1.0-184.0","0","0","61112","","null","","","null","20","","NaN","","","","","","","","","","","","","",""
"","response","","html-keyboard-response","137","212204","0.0-1.0-185.0-0.0","0","0","61112","","670","","","68","20","","","1","20","training","adjacent","CB","3","2","P.jpg","M.jpg","1","0","0","",""
"","feedback","","html-keyboard-response","138","213210","0.0-1.0-186.0-0.0","0","0","61112","","null","","","null","20","","","","","","","","","","","","","","","",""
"","time_out","","html-keyboard-response","139","215212","0.0-1.0-188.0-0.0","0","0","61112","","null","","","null","20","","","","","","","","","","","","","","","",""
"","ITI","","html-keyboard-response","140","216214","0.0-1.0-189.0","0","0","61112","","null","","","null","20","","","","","","","","","","","","","","","NaN",""
"","S1","","html-keyboard-response","141","216467","0.0-1.0-191.0","0","0","61112","","null","","","null","21","","","","","","","","","","","","","","","",""
"","ISI","","html-keyboard-response","142","218471","0.0-1.0-192.0","0","0","61112","","null","","","null","21","NaN","","","","","","","","","","","","","","",""
"","S2","","html-keyboard-response","143","218724","0.0-1.0-193.0","0","0","61112","","null","","","null","21","","NaN","","","","","","","","","","","","","",""
"","response","","html-keyboard-response","144","219080","0.0-1.0-194.0-0.0","0","0","61112","","354","","","75","21","","","1","21","training","adjacent","GF","7","6","Q.jpg","N.jpg","0","0","1","",""
"","feedback","","html-keyboard-response","145","220083","0.0-1.0-195.0-0.0","0","0","61112","","null","","","null","21","","","","","","","","","","","","","","","",""
"","ITI","","html-keyboard-response","146","221087","0.0-1.0-198.0","0","0","61112","","null","","","null","21","","","","","","","","","","","","","","","NaN",""
"","S1","","html-keyboard-response","147","221340","0.0-1.0-200.0","0","0","61112","","null","","","null","22","","","","","","","","","","","","","","","",""
"","ISI","","html-keyboard-response","148","223343","0.0-1.0-201.0","0","0","61112","","null","","","null","22","NaN","","","","","","","","","","","","","","",""
"","S2","","html-keyboard-response","149","223596","0.0-1.0-202.0","0","0","61112","","null","","","null","22","","NaN","","","","","","","","","","","","","",""
"","response","","html-keyboard-response","150","224062","0.0-1.0-203.0-0.0","0","0","61112","","463","","","75","22","","","1","22","training","adjacent","AB","1","2","R.jpg","M.jpg","0","1","0","",""
"","feedback","","html-keyboard-response","151","225065","0.0-1.0-204.0-0.0","0","0","61112","","null","","","null","22","","","","","","","","","","","","","","","",""
"","time_out","","html-keyboard-response","152","227079","0.0-1.0-206.0-0.0","0","0","61112","","null","","","null","22","","","","","","","","","","","","","","","",""
"","ITI","","html-keyboard-response","153","228082","0.0-1.0-207.0","0","0","61112","","null","","","null","22","","","","","","","","","","","","","","","NaN",""
"","S1","","html-keyboard-response","154","228336","0.0-1.0-209.0","0","0","61112","","null","","","null","23","","","","","","","","","","","","","","","",""
"","ISI","","html-keyboard-response","155","230338","0.0-1.0-210.0","0","0","61112","","230","","","68","23","d","","","","","","","","","","","","","","",""
"","S2","","html-keyboard-response","156","230593","0.0-1.0-211.0","0","0","61112","","null","","","null","23","","NaN","","","","","","","","","","","","","",""
"","response","","html-keyboard-response","157","230773","0.0-1.0-212.0-0.0","0","0","61112","","178","","","68","23","","","1","23","training","adjacent","CD","3","4","P.jpg","L.jpg","1","1","1","",""
"","feedback","","html-keyboard-response","158","231776","0.0-1.0-213.0-0.0","0","0","61112","","null","","","null","23","","","","","","","","","","","","","","","",""
"","ITI","","html-keyboard-response","159","232778","0.0-1.0-216.0","0","0","61112","","null","","","null","23","","","","","","","","","","","","","","","NaN",""
"","S1","","html-keyboard-response","160","233031","0.0-1.0-218.0","0","0","61112","","null","","","null","24","","","","","","","","","","","","","","","",""
"","ISI","","html-keyboard-response","161","235035","0.0-1.0-219.0","0","0","61112","","null","","","null","24","NaN","","","","","","","","","","","","","","",""
"","S2","","html-keyboard-response","162","235292","0.0-1.0-220.0","0","0","61112","","null","","","null","24","","NaN","","","","","","","","","","","","","",""
"","response","","html-keyboard-response","163","235897","0.0-1.0-221.0-0.0","0","0","61112","","604","","","75","24","","","1","24","training","adjacent","EF","5","6","O.jpg","N.jpg","0","1","0","",""
"","feedback","","html-keyboard-response","164","236900","0.0-1.0-222.0-0.0","0","0","61112","","null","","","null","24","","","","","","","","","","","","","","","",""
"","time_out","","html-keyboard-response","165","238903","0.0-1.0-224.0-0.0","0","0","61112","","null","","","null","24","","","","","","","","","","","","","","","",""
"","ITI","","html-keyboard-response","166","239906","0.0-1.0-225.0","0","0","61112","","null","","","null","24","","","","","","","","","","","","","","","NaN",""
"","S1","","html-keyboard-response","167","240158","0.0-1.0-227.0","0","0","61112","","null","","","null","25","","","","","","","","","","","","","","","",""
"","ISI","","html-keyboard-response","168","242160","0.0-1.0-228.0","0","0","61112","","null","","","null","25","NaN","","","","","","","","","","","","","","",""
"","S2","","html-keyboard-response","169","242413","0.0-1.0-229.0","0","0","61112","","null","","","null","25","","NaN","","","","","","","","","","","","","",""
"","response","","html-keyboard-response","170","242769","0.0-1.0-230.0-0.0","0","0","61112","","354","","","75","25","","","1","25","training","adjacent","ED","5","4","O.jpg","L.jpg","0","0","1","",""
"","feedback","","html-keyboard-response","171","243772","0.0-1.0-231.0-0.0","0","0","61112","","null","","","null","25","","","","","","","","","","","","","","","",""
"","ITI","","html-keyboard-response","172","244775","0.0-1.0-234.0","0","0","61112","","null","","","null","25","","","","","","","","","","","","","","","NaN",""
"","S1","","html-keyboard-response","173","245029","0.0-1.0-236.0","0","0","61112","","null","","","null","26","","","","","","","","","","","","","","","",""
"","ISI","","html-keyboard-response","174","247032","0.0-1.0-237.0","0","0","61112","","null","","","null","26","NaN","","","","","","","","","","","","","","",""
"","S2","","html-keyboard-response","175","247285","0.0-1.0-238.0","0","0","61112","","null","","","null","26","","NaN","","","","","","","","","","","","","",""
"","response","","html-keyboard-response","176","247695","0.0-1.0-239.0-0.0","0","0","61112","","408","","","75","26","","","1","26","training","adjacent","FG","6","7","N.jpg","Q.jpg","0","1","0","",""
"","feedback","","html-keyboard-response","177","248698","0.0-1.0-240.0-0.0","0","0","61112","","null","","","null","26","","","","","","","","","","","","","","","",""
"","time_out","","html-keyboard-response","178","250701","0.0-1.0-242.0-0.0","0","0","61112","","null","","","null","26","","","","","","","","","","","","","","","",""
"","ITI","","html-keyboard-response","179","251704","0.0-1.0-243.0","0","0","61112","","null","","","null","26","","","","","","","","","","","","","","","NaN",""
"","S1","","html-keyboard-response","180","251957","0.0-1.0-245.0","0","0","61112","","null","","","null","27","","","","","","","","","","","","","","","",""
"","ISI","","html-keyboard-response","181","253960","0.0-1.0-246.0","0","0","61112","","null","","","null","27","NaN","","","","","","","","","","","","","","",""
"","S2","","html-keyboard-response","182","254212","0.0-1.0-247.0","0","0","61112","","null","","","null","27","","NaN","","","","","","","","","","","","","",""
"","response","","html-keyboard-response","183","254818","0.0-1.0-248.0-0.0","0","0","61112","","605","","","68","27","","","1","27","training","adjacent","BC","2","3","M.jpg","P.jpg","1","1","1","",""
"","feedback","","html-keyboard-response","184","255820","0.0-1.0-249.0-0.0","0","0","61112","","null","","","null","27","","","","","","","","","","","","","","","",""
"","ITI","","html-keyboard-response","185","256823","0.0-1.0-252.0","0","0","61112","","null","","","null","27","","","","","","","","","","","","","","","NaN",""
"","S1","","html-keyboard-response","186","257090","0.0-1.0-254.0","0","0","61112","","null","","","null","28","","","","","","","","","","","","","","","",""
"","ISI","","html-keyboard-response","187","259093","0.0-1.0-255.0","0","0","61112","","null","","","null","28","NaN","","","","","","","","","","","","","","",""
"","S2","","html-keyboard-response","188","259346","0.0-1.0-256.0","0","0","61112","","null","","","null","28","","NaN","","","","","","","","","","","","","",""
"","response","","html-keyboard-response","189","259757","0.0-1.0-257.0-0.0","0","0","61112","","409","","","68","28","","","1","28","training","adjacent","DE","4","5","L.jpg","O.jpg","1","1","1","",""
"","feedback","","html-keyboard-response","190","260760","0.0-1.0-258.0-0.0","0","0","61112","","null","","","null","28","","","","","","","","","","","","","","","",""
"","ITI","","html-keyboard-response","191","261764","0.0-1.0-261.0","0","0","61112","","null","","","null","28","","","","","","","","","","","","","","","NaN",""
"","S1","","html-keyboard-response","192","262021","0.0-1.0-263.0","0","0","61112","","null","","","null","29","","","","","","","","","","","","","","","",""
"","ISI","","html-keyboard-response","193","264023","0.0-1.0-264.0","0","0","61112","","null","","","null","29","NaN","","","","","","","","","","","","","","",""
"","S2","","html-keyboard-response","194","264276","0.0-1.0-265.0","0","0","61112","","null","","","null","29","","NaN","","","","","","","","","","","","","",""
"","response","","html-keyboard-response","195","264385","0.0-1.0-266.0-0.0","0","0","61112","","106","","","68","29","","","1","29","training","adjacent","CB","3","2","P.jpg","M.jpg","1","0","0","",""
"","feedback","","html-keyboard-response","196","265388","0.0-1.0-267.0-0.0","0","0","61112","","null","","","null","29","","","","","","","","","","","","","","","",""
"","time_out","","html-keyboard-response","197","267391","0.0-1.0-269.0-0.0","0","0","61112","","null","","","null","29","","","","","","","","","","","","","","","",""
"","ITI","","html-keyboard-response","198","268394","0.0-1.0-270.0","0","0","61112","","null","","","null","29","","","","","","","","","","","","","","","NaN",""
"","S1","","html-keyboard-response","199","268647","0.0-1.0-272.0","0","0","61112","","null","","","null","30","","","","","","","","","","","","","","","",""
"","ISI","","html-keyboard-response","200","270650","0.0-1.0-273.0","0","0","61112","","null","","","null","30","NaN","","","","","","","","","","","","","","",""
"","S2","","html-keyboard-response","201","270903","0.0-1.0-274.0","0","0","61112","","null","","","null","30","","NaN","","","","","","","","","","","","","",""
"","response","","html-keyboard-response","202","271229","0.0-1.0-275.0-0.0","0","0","61112","","324","","","75","30","","","1","30","training","adjacent","ED","5","4","O.jpg","L.jpg","0","0","1","",""
"","feedback","","html-keyboard-response","203","272232","0.0-1.0-276.0-0.0","0","0","61112","","null","","","null","30","","","","","","","","","","","","","","","",""
"","ITI","","html-keyboard-response","204","273235","0.0-1.0-279.0","0","0","61112","","null","","","null","30","","","","","","","","","","","","","","","NaN",""
"","S1","","html-keyboard-response","205","273489","0.0-1.0-281.0","0","0","61112","","null","","","null","31","","","","","","","","","","","","","","","",""
"","ISI","","html-keyboard-response","206","275492","0.0-1.0-282.0","0","0","61112","","null","","","null","31","NaN","","","","","","","","","","","","","","",""
"","S2","","html-keyboard-response","207","275745","0.0-1.0-283.0","0","0","61112","","null","","","null","31","","NaN","","","","","","","","","","","","","",""
"","response","","html-keyboard-response","208","276176","0.0-1.0-284.0-0.0","0","0","61112","","428","","","68","31","","","1","31","training","adjacent","FG","6","7","N.jpg","Q.jpg","1","1","1","",""
"","feedback","","html-keyboard-response","209","277180","0.0-1.0-285.0-0.0","0","0","61112","","null","","","null","31","","","","","","","","","","","","","","","",""
"","ITI","","html-keyboard-response","210","278183","0.0-1.0-288.0","0","0","61112","","null","","","null","31","","","","","","","","","","","","","","","NaN",""
"","S1","","html-keyboard-response","211","278435","0.0-1.0-290.0","0","0","61112","","null","","","null","32","","","","","","","","","","","","","","","",""
"","ISI","","html-keyboard-response","212","280446","0.0-1.0-291.0","0","0","61112","","null","","","null","32","NaN","","","","","","","","","","","","","","",""
"","S2","","html-keyboard-response","213","280699","0.0-1.0-292.0","0","0","61112","","null","","","null","32","","NaN","","","","","","","","","","","","","",""
"","response","","html-keyboard-response","214","281132","0.0-1.0-293.0-0.0","0","0","61112","","430","","","75","32","","","1","32","training","adjacent","CB","3","2","P.jpg","M.jpg","0","0","1","",""
"","feedback","","html-keyboard-response","215","282134","0.0-1.0-294.0-0.0","0","0","61112","","null","","","null","32","","","","","","","","","","","","","","","",""
"","ITI","","html-keyboard-response","216","283138","0.0-1.0-297.0","0","0","61112","","null","","","null","32","","","","","","","","","","","","","","","NaN",""
"","S1","","html-keyboard-response","217","283391","0.0-1.0-299.0","0","0","61112","","null","","","null","33","","","","","","","","","","","","","","","",""
"","ISI","","html-keyboard-response","218","285393","0.0-1.0-300.0","0","0","61112","","null","","","null","33","NaN","","","","","","","","","","","","","","",""
"","S2","","html-keyboard-response","219","285646","0.0-1.0-301.0","0","0","61112","","null","","","null","33","","NaN","","","","","","","","","","","","","",""
"","response","","html-keyboard-response","220","286043","0.0-1.0-302.0-0.0","0","0","61112","","395","","","75","33","","","1","33","training","adjacent","EF","5","6","O.jpg","N.jpg","0","1","0","",""
"","feedback","","html-keyboard-response","221","287046","0.0-1.0-303.0-0.0","0","0","61112","","null","","","null","33","","","","","","","","","","","","","","","",""
"","time_out","","html-keyboard-response","222","289049","0.0-1.0-305.0-0.0","0","0","61112","","null","","","null","33","","","","","","","","","","","","","","","",""
"","ITI","","html-keyboard-response","223","290052","0.0-1.0-306.0","0","0","61112","","null","","","null","33","","","","","","","","","","","","","","","NaN",""
"","S1","","html-keyboard-response","224","290305","0.0-1.0-308.0","0","0","61112","","null","","","null","34","","","","","","","","","","","","","","","",""
"","ISI","","html-keyboard-response","225","292308","0.0-1.0-309.0","0","0","61112","","null","","","null","34","NaN","","","","","","","","","","","","","","",""
"","S2","","html-keyboard-response","226","292560","0.0-1.0-310.0","0","0","61112","","null","","","null","34","","NaN","","","","","","","","","","","","","",""
"","response","","html-keyboard-response","227","293000","0.0-1.0-311.0-0.0","0","0","61112","","437","","","68","34","","","1","34","training","adjacent","AB","1","2","R.jpg","M.jpg","1","1","1","",""
"","feedback","","html-keyboard-response","228","294003","0.0-1.0-312.0-0.0","0","0","61112","","null","","","null","34","","","","","","","","","","","","","","","",""
"","ITI","","html-keyboard-response","229","295006","0.0-1.0-315.0","0","0","61112","","null","","","null","34","","","","","","","","","","","","","","","NaN",""
"","S1","","html-keyboard-response","230","295260","0.0-1.0-317.0","0","0","61112","","null","","","null","35","","","","","","","","","","","","","","","",""
"","ISI","","html-keyboard-response","231","297263","0.0-1.0-318.0","0","0","61112","","null","","","null","35","NaN","","","","","","","","","","","","","","",""
"","S2","","html-keyboard-response","232","297516","0.0-1.0-319.0","0","0","61112","","null","","","null","35","","NaN","","","","","","","","","","","","","",""
"","response","","html-keyboard-response","233","297900","0.0-1.0-320.0-0.0","0","0","61112","","383","","","68","35","","","1","35","training","adjacent","GF","7","6","Q.jpg","N.jpg","1","0","0","",""
"","feedback","","html-keyboard-response","234","298904","0.0-1.0-321.0-0.0","0","0","61112","","null","","","null","35","","","","","","","","","","","","","","","",""
"","time_out","","html-keyboard-response","235","300906","0.0-1.0-323.0-0.0","0","0","61112","","null","","","null","35","","","","","","","","","","","","","","","",""
"","ITI","","html-keyboard-response","236","301908","0.0-1.0-324.0","0","0","61112","","null","","","null","35","","","","","","","","","","","","","","","NaN",""
"","S1","","html-keyboard-response","237","302161","0.0-1.0-326.0","0","0","61112","","null","","","null","36","","","","","","","","","","","","","","","",""
"","ISI","","html-keyboard-response","238","304165","0.0-1.0-327.0","0","0","61112","","420","","","75","36","k","","","","","","","","","","","","","","",""
"","S2","","html-keyboard-response","239","304418","0.0-1.0-328.0","0","0","61112","","null","","","null","36","","NaN","","","","","","","","","","","","","",""
"","response","","html-keyboard-response","240","304979","0.0-1.0-329.0-0.0","0","0","61112","","558","","","75","36","","","1","36","training","adjacent","DC","4","3","L.jpg","P.jpg","0","0","1","",""
"","feedback","","html-keyboard-response","241","305981","0.0-1.0-330.0-0.0","0","0","61112","","null","","","null","36","","","","","","","","","","","","","","","",""
"","ITI","","html-keyboard-response","242","306983","0.0-1.0-333.0","0","0","61112","","null","","","null","36","","","","","","","","","","","","","","","NaN",""
"","S1","","html-keyboard-response","243","307236","0.0-1.0-335.0","0","0","61112","","null","","","null","37","","","","","","","","","","","","","","","",""
"","ISI","","html-keyboard-response","244","309239","0.0-1.0-336.0","0","0","61112","","null","","","null","37","NaN","","","","","","","","","","","","","","",""
"","S2","","html-keyboard-response","245","309493","0.0-1.0-337.0","0","0","61112","","null","","","null","37","","NaN","","","","","","","","","","","","","",""
"","response","","html-keyboard-response","246","310115","0.0-1.0-338.0-0.0","0","0","61112","","621","","","68","37","","","1","37","training","adjacent","DE","4","5","L.jpg","O.jpg","1","1","1","",""
"","feedback","","html-keyboard-response","247","311118","0.0-1.0-339.0-0.0","0","0","61112","","null","","","null","37","","","","","","","","","","","","","","","",""
"","ITI","","html-keyboard-response","248","312121","0.0-1.0-342.0","0","0","61112","","null","","","null","37","","","","","","","","","","","","","","","NaN",""
"","S1","","html-keyboard-response","249","312374","0.0-1.0-344.0","0","0","61112","","null","","","null","38","","","","","","","","","","","","","","","",""
"","ISI","","html-keyboard-response","250","314377","0.0-1.0-345.0","0","0","61112","","null","","","null","38","NaN","","","","","","","","","","","","","","",""
"","S2","","html-keyboard-response","251","314630","0.0-1.0-346.0","0","0","61112","","null","","","null","38","","NaN","","","","","","","","","","","","","",""
"","response","","html-keyboard-response","252","315155","0.0-1.0-347.0-0.0","0","0","61112","","523","","","75","38","","","1","38","training","adjacent","AB","1","2","R.jpg","M.jpg","0","1","0","",""
"","feedback","","html-keyboard-response","253","316160","0.0-1.0-348.0-0.0","0","0","61112","","null","","","null","38","","","","","","","","","","","","","","","",""
"","time_out","","html-keyboard-response","254","318163","0.0-1.0-350.0-0.0","0","0","61112","","null","","","null","38","","","","","","","","","","","","","","","",""
"","ITI","","html-keyboard-response","255","319166","0.0-1.0-351.0","0","0","61112","","null","","","null","38","","","","","","","","","","","","","","","NaN",""
"","S1","","html-keyboard-response","256","319419","0.0-1.0-353.0","0","0","61112","","null","","","null","39","","","","","","","","","","","","","","","",""
"","ISI","","html-keyboard-response","257","321422","0.0-1.0-354.0","0","0","61112","","null","","","null","39","NaN","","","","","","","","","","","","","","",""
"","S2","","html-keyboard-response","258","321676","0.0-1.0-355.0","0","0","61112","","null","","","null","39","","NaN","","","","","","","","","","","","","",""
"","response","","html-keyboard-response","259","322144","0.0-1.0-356.0-0.0","0","0","61112","","466","","","68","39","","","1","39","training","adjacent","DE","4","5","L.jpg","O.jpg","1","1","1","",""
"","feedback","","html-keyboard-response","260","323147","0.0-1.0-357.0-0.0","0","0","61112","","null","","","null","39","","","","","","","","","","","","","","","",""
"","ITI","","html-keyboard-response","261","324151","0.0-1.0-360.0","0","0","61112","","null","","","null","39","","","","","","","","","","","","","","","NaN",""
"","S1","","html-keyboard-response","262","324405","0.0-1.0-362.0","0","0","61112","","null","","","null","40","","","","","","","","","","","","","","","",""
"","ISI","","html-keyboard-response","263","326408","0.0-1.0-363.0","0","0","61112","","null","","","null","40","NaN","","","","","","","","","","","","","","",""
"","S2","","html-keyboard-response","264","326661","0.0-1.0-364.0","0","0","61112","","null","","","null","40","","NaN","","","","","","","","","","","","","",""
"","response","","html-keyboard-response","265","326793","0.0-1.0-365.0-0.0","0","0","61112","","130","","","75","40","","","1","40","training","adjacent","BC","2","3","M.jpg","P.jpg","0","1","0","",""
"","feedback","","html-keyboard-response","266","327796","0.0-1.0-366.0-0.0","0","0","61112","","null","","","null","40","","","","","","","","","","","","","","","",""
"","time_out","","html-keyboard-response","267","329798","0.0-1.0-368.0-0.0","0","0","61112","","null","","","null","40","","","","","","","","","","","","","","","",""
"","ITI","","html-keyboard-response","268","330801","0.0-1.0-369.0","0","0","61112","","null","","","null","40","","","","","","","","","","","","","","","NaN",""
"","S1","","html-keyboard-response","269","331054","0.0-1.0-371.0","0","0","61112","","null","","","null","41","","","","","","","","","","","","","","","",""
"","ISI","","html-keyboard-response","270","333055","0.0-1.0-372.0","0","0","61112","","null","","","null","41","NaN","","","","","","","","","","","","","","",""
"","S2","","html-keyboard-response","271","333307","0.0-1.0-373.0","0","0","61112","","null","","","null","41","","NaN","","","","","","","","","","","","","",""
"","response","","html-keyboard-response","272","333737","0.0-1.0-374.0-0.0","0","0","61112","","427","","","68","41","","","1","41","training","adjacent","DE","4","5","L.jpg","O.jpg","1","1","1","",""
"","feedback","","html-keyboard-response","273","334740","0.0-1.0-375.0-0.0","0","0","61112","","null","","","null","41","","","","","","","","","","","","","","","",""
"","ITI","","html-keyboard-response","274","335743","0.0-1.0-378.0","0","0","61112","","null","","","null","41","","","","","","","","","","","","","","","NaN",""
"","S1","","html-keyboard-response","275","335997","0.0-1.0-380.0","0","0","61112","","null","","","null","42","","","","","","","","","","","","","","","",""
"","ISI","","html-keyboard-response","276","338000","0.0-1.0-381.0","0","0","61112","","null","","","null","42","NaN","","","","","","","","","","","","","","",""
"","S2","","html-keyboard-response","277","338253","0.0-1.0-382.0","0","0","61112","","null","","","null","42","","NaN","","","","","","","","","","","","","",""
"","response","","html-keyboard-response","278","338661","0.0-1.0-383.0-0.0","0","0","61112","","407","","","68","42","","","1","42","training","adjacent","FE","6","5","N.jpg","O.jpg","1","0","0","",""
"","feedback","","html-keyboard-response","279","339664","0.0-1.0-384.0-0.0","0","0","61112","","null","","","null","42","","","","","","","","","","","","","","","",""
"","time_out","","html-keyboard-response","280","341668","0.0-1.0-386.0-0.0","0","0","61112","","null","","","null","42","","","","","","","","","","","","","","","",""
"","ITI","","html-keyboard-response","281","342670","0.0-1.0-387.0","0","0","61112","","null","","","null","42","","","","","","","","","","","","","","","NaN",""
"","S1","","html-keyboard-response","282","342923","0.0-1.0-389.0","0","0","61112","","null","","","null","43","","","","","","","","","","","","","","","",""
"","ISI","","html-keyboard-response","283","344925","0.0-1.0-390.0","0","0","61112","","null","","","null","43","NaN","","","","","","","","","","","","","","",""
"","S2","","html-keyboard-response","284","345178","0.0-1.0-391.0","0","0","61112","","null","","","null","43","","NaN","","","","","","","","","","","","","",""
"","response","","html-keyboard-response","285","345359","0.0-1.0-392.0-0.0","0","0","61112","","178","","","75","43","","","1","43","training","adjacent","EF","5","6","O.jpg","N.jpg","0","1","0","",""
"","feedback","","html-keyboard-response","286","346362","0.0-1.0-393.0-0.0","0","0","61112","","null","","","null","43","","","","","","","","","","","","","","","",""
"","time_out","","html-keyboard-response","287","348365","0.0-1.0-395.0-0.0","0","0","61112","","null","","","null","43","","","","","","","","","","","","","","","",""
"","ITI","","html-keyboard-response","288","349368","0.0-1.0-396.0","0","0","61112","","null","","","null","43","","","","","","","","","","","","","","","NaN",""
"","S1","","html-keyboard-response","289","349621","0.0-1.0-398.0","0","0","61112","","null","","","null","44","","","","","","","","","","","","","","","",""
"","ISI","","html-keyboard-response","290","351624","0.0-1.0-399.0","0","0","61112","","null","","","null","44","NaN","","","","","","","","","","","","","","",""
"","S2","","html-keyboard-response","291","351878","0.0-1.0-400.0","0","0","61112","","null","","","null","44","","NaN","","","","","","","","","","","","","",""
"","response","","html-keyboard-response","292","352389","0.0-1.0-401.0-0.0","0","0","61112","","510","","","75","44","","","1","44","training","adjacent","DC","4","3","L.jpg","P.jpg","0","0","1","",""
"","feedback","","html-keyboard-response","293","353392","0.0-1.0-402.0-0.0","0","0","61112","","null","","","null","44","","","","","","","","","","","","","","","",""
"","ITI","","html-keyboard-response","294","354398","0.0-1.0-405.0","0","0","61112","","null","","","null","44","","","","","","","","","","","","","","","NaN",""
"","S1","","html-keyboard-response","295","354650","0.0-1.0-407.0","0","0","61112","","null","","","null","45","","","","","","","","","","","","","","","",""
"","ISI","","html-keyboard-response","296","356653","0.0-1.0-408.0","0","0","61112","","null","","","null","45","NaN","","","","","","","","","","","","","","",""
"","S2","","html-keyboard-response","297","356905","0.0-1.0-409.0","0","0","61112","","null","","","null","45","","NaN","","","","","","","","","","","","","",""
"","response","","html-keyboard-response","298","358076","0.0-1.0-410.0-0.0","0","0","61112","","1169","","","68","45","","","1","45","training","adjacent","BA","2","1","M.jpg","R.jpg","1","0","0","",""
"","feedback","","html-keyboard-response","299","359079","0.0-1.0-411.0-0.0","0","0","61112","","null","","","null","45","","","","","","","","","","","","","","","",""
"","time_out","","html-keyboard-response","300","361082","0.0-1.0-413.0-0.0","0","0","61112","","null","","","null","45","","","","","","","","","","","","","","","",""
"","ITI","","html-keyboard-response","301","362085","0.0-1.0-414.0","0","0","61112","","null","","","null","45","","","","","","","","","","","","","","","NaN",""
"","S1","","html-keyboard-response","302","362338","0.0-1.0-416.0","0","0","61112","","null","","","null","46","","","","","","","","","","","","","","","",""
"","ISI","","html-keyboard-response","303","364341","0.0-1.0-417.0","0","0","61112","","null","","","null","46","NaN","","","","","","","","","","","","","","",""
"","S2","","html-keyboard-response","304","364595","0.0-1.0-418.0","0","0","61112","","null","","","null","46","","NaN","","","","","","","","","","","","","",""
"","response","","html-keyboard-response","305","365092","0.0-1.0-419.0-0.0","0","0","61112","","496","","","68","46","","","1","46","training","adjacent","GF","7","6","Q.jpg","N.jpg","1","0","0","",""
"","feedback","","html-keyboard-response","306","366096","0.0-1.0-420.0-0.0","0","0","61112","","null","","","null","46","","","","","","","","","","","","","","","",""
"","time_out","","html-keyboard-response","307","368099","0.0-1.0-422.0-0.0","0","0","61112","","null","","","null","46","","","","","","","","","","","","","","","",""
"","ITI","","html-keyboard-response","308","369102","0.0-1.0-423.0","0","0","61112","","null","","","null","46","","","","","","","","","","","","","","","NaN",""
"","S1","","html-keyboard-response","309","369356","0.0-1.0-425.0","0","0","61112","","null","","","null","47","","","","","","","","","","","","","","","",""
"","ISI","","html-keyboard-response","310","371358","0.0-1.0-426.0","0","0","61112","","null","","","null","47","NaN","","","","","","","","","","","","","","",""
"","S2","","html-keyboard-response","311","371611","0.0-1.0-427.0","0","0","61112","","null","","","null","47","","NaN","","","","","","","","","","","","","",""
"","response","","html-keyboard-response","312","372230","0.0-1.0-428.0-0.0","0","0","61112","","617","","","75","47","","","1","47","training","adjacent","BC","2","3","M.jpg","P.jpg","0","1","0","",""
"","feedback","","html-keyboard-response","313","373233","0.0-1.0-429.0-0.0","0","0","61112","","null","","","null","47","","","","","","","","","","","","","","","",""
"","time_out","","html-keyboard-response","314","375236","0.0-1.0-431.0-0.0","0","0","61112","","null","","","null","47","","","","","","","","","","","","","","","",""
"","ITI","","html-keyboard-response","315","376239","0.0-1.0-432.0","0","0","61112","","null","","","null","47","","","","","","","","","","","","","","","NaN",""
"","block_over","","html-keyboard-response","316","433182","0.0-1.0-433.0-0.0","0","0","61112","","56941","","","32","47","","","","","","","","","","","","","","","",""
"","S1","","html-keyboard-response","317","433436","0.0-1.0-434.0","0","0","61112","","null","","","null","48","","","","","","","","","","","","","","","",""
"","ISI","","html-keyboard-response","318","435438","0.0-1.0-435.0","0","0","61112","","null","","","null","48","NaN","","","","","","","","","","","","","","",""
"","S2","","html-keyboard-response","319","435692","0.0-1.0-436.0","0","0","61112","","null","","","null","48","","NaN","","","","","","","","","","","","","",""
"","response","","html-keyboard-response","320","436178","0.0-1.0-437.0-0.0","0","0","61112","","484","","","68","48","","","2","48","training","adjacent","CD","3","4","P.jpg","L.jpg","1","1","1","",""
"","feedback","","html-keyboard-response","321","437182","0.0-1.0-438.0-0.0","0","0","61112","","null","","","null","48","","","","","","","","","","","","","","","",""
"","ITI","","html-keyboard-response","322","438184","0.0-1.0-441.0","0","0","61112","","null","","","null","48","","","","","","","","","","","","","","","NaN",""
"","S1","","html-keyboard-response","323","438437","0.0-1.0-443.0","0","0","61112","","null","","","null","49","","","","","","","","","","","","","","","",""
"","ISI","","html-keyboard-response","324","440438","0.0-1.0-444.0","0","0","61112","","null","","","null","49","NaN","","","","","","","","","","","","","","",""
"","S2","","html-keyboard-response","325","440691","0.0-1.0-445.0","0","0","61112","","null","","","null","49","","NaN","","","","","","","","","","","","","",""
"","response","","html-keyboard-response","326","441174","0.0-1.0-446.0-0.0","0","0","61112","","481","","","68","49","","","2","49","training","adjacent","ED","5","4","O.jpg","L.jpg","1","0","0","",""
"","feedback","","html-keyboard-response","327","442177","0.0-1.0-447.0-0.0","0","0","61112","","null","","","null","49","","","","","","","","","","","","","","","",""
"","time_out","","html-keyboard-response","328","444180","0.0-1.0-449.0-0.0","0","0","61112","","null","","","null","49","","","","","","","","","","","","","","","",""
"","ITI","","html-keyboard-response","329","445182","0.0-1.0-450.0","0","0","61112","","null","","","null","49","","","","","","","","","","","","","","","NaN",""
"","S1","","html-keyboard-response","330","445436","0.0-1.0-452.0","0","0","61112","","null","","","null","50","","","","","","","","","","","","","","","",""
"","ISI","","html-keyboard-response","331","447440","0.0-1.0-453.0","0","0","61112","","null","","","null","50","NaN","","","","","","","","","","","","","","",""
"","S2","","html-keyboard-response","332","447693","0.0-1.0-454.0","0","0","61112","","null","","","null","50","","NaN","","","","","","","","","","","","","",""
"","response","","html-keyboard-response","333","448048","0.0-1.0-455.0-0.0","0","0","61112","","352","","","75","50","","","2","50","training","adjacent","GF","7","6","Q.jpg","N.jpg","0","0","1","",""
"","feedback","","html-keyboard-response","334","449054","0.0-1.0-456.0-0.0","0","0","61112","","null","","","null","50","","","","","","","","","","","","","","","",""
"","ITI","","html-keyboard-response","335","450057","0.0-1.0-459.0","0","0","61112","","null","","","null","50","","","","","","","","","","","","","","","NaN",""
"","S1","","html-keyboard-response","336","450310","0.0-1.0-461.0","0","0","61112","","null","","","null","51","","","","","","","","","","","","","","","",""
"","ISI","","html-keyboard-response","337","452314","0.0-1.0-462.0","0","0","61112","","null","","","null","51","NaN","","","","","","","","","","","","","","",""
"","S2","","html-keyboard-response","338","452566","0.0-1.0-463.0","0","0","61112","","null","","","null","51","","NaN","","","","","","","","","","","","","",""
"","response","","html-keyboard-response","339","453073","0.0-1.0-464.0-0.0","0","0","61112","","504","","","68","51","","","2","51","training","adjacent","DC","4","3","L.jpg","P.jpg","1","0","0","",""
"","feedback","","html-keyboard-response","340","454076","0.0-1.0-465.0-0.0","0","0","61112","","null","","","null","51","","","","","","","","","","","","","","","",""
"","time_out","","html-keyboard-response","341","456079","0.0-1.0-467.0-0.0","0","0","61112","","null","","","null","51","","","","","","","","","","","","","","","",""
"","ITI","","html-keyboard-response","342","457081","0.0-1.0-468.0","0","0","61112","","null","","","null","51","","","","","","","","","","","","","","","NaN",""
"","S1","","html-keyboard-response","343","457334","0.0-1.0-470.0","0","0","61112","","null","","","null","52","","","","","","","","","","","","","","","",""
"","ISI","","html-keyboard-response","344","459337","0.0-1.0-471.0","0","0","61112","","null","","","null","52","NaN","","","","","","","","","","","","","","",""
"","S2","","html-keyboard-response","345","459590","0.0-1.0-472.0","0","0","61112","","null","","","null","52","","NaN","","","","","","","","","","","","","",""
"","response","","html-keyboard-response","346","459726","0.0-1.0-473.0-0.0","0","0","61112","","133","","","75","52","","","2","52","training","adjacent","DE","4","5","L.jpg","O.jpg","0","1","0","",""
"","feedback","","html-keyboard-response","347","460728","0.0-1.0-474.0-0.0","0","0","61112","","null","","","null","52","","","","","","","","","","","","","","","",""
"","time_out","","html-keyboard-response","348","462731","0.0-1.0-476.0-0.0","0","0","61112","","null","","","null","52","","","","","","","","","","","","","","","",""
"","ITI","","html-keyboard-response","349","463735","0.0-1.0-477.0","0","0","61112","","null","","","null","52","","","","","","","","","","","","","","","NaN",""
"","S1","","html-keyboard-response","350","463988","0.0-1.0-479.0","0","0","61112","","null","","","null","53","","","","","","","","","","","","","","","",""
"","ISI","","html-keyboard-response","351","465990","0.0-1.0-480.0","0","0","61112","","null","","","null","53","NaN","","","","","","","","","","","","","","",""
"","S2","","html-keyboard-response","352","466243","0.0-1.0-481.0","0","0","61112","","null","","","null","53","","NaN","","","","","","","","","","","","","",""
"","response","","html-keyboard-response","353","467078","0.0-1.0-482.0-0.0","0","0","61112","","832","","","75","53","","","2","53","training","adjacent","CB","3","2","P.jpg","M.jpg","0","0","1","",""
"","feedback","","html-keyboard-response","354","468081","0.0-1.0-483.0-0.0","0","0","61112","","null","","","null","53","","","","","","","","","","","","","","","",""
"","ITI","","html-keyboard-response","355","469084","0.0-1.0-486.0","0","0","61112","","null","","","null","53","","","","","","","","","","","","","","","NaN",""
"","S1","","html-keyboard-response","356","469338","0.0-1.0-488.0","0","0","61112","","null","","","null","54","","","","","","","","","","","","","","","",""
"","ISI","","html-keyboard-response","357","471341","0.0-1.0-489.0","0","0","61112","","null","","","null","54","NaN","","","","","","","","","","","","","","",""
"","S2","","html-keyboard-response","358","471594","0.0-1.0-490.0","0","0","61112","","null","","","null","54","","NaN","","","","","","","","","","","","","",""
"","response","","html-keyboard-response","359","472168","0.0-1.0-491.0-0.0","0","0","61112","","572","","","68","54","","","2","54","training","adjacent","ED","5","4","O.jpg","L.jpg","1","0","0","",""
"","feedback","","html-keyboard-response","360","473172","0.0-1.0-492.0-0.0","0","0","61112","","null","","","null","54","","","","","","","","","","","","","","","",""
"","time_out","","html-keyboard-response","361","475175","0.0-1.0-494.0-0.0","0","0","61112","","null","","","null","54","","","","","","","","","","","","","","","",""
"","ITI","","html-keyboard-response","362","476178","0.0-1.0-495.0","0","0","61112","","null","","","null","54","","","","","","","","","","","","","","","NaN",""
"","S1","","html-keyboard-response","363","476430","0.0-1.0-497.0","0","0","61112","","null","","","null","55","","","","","","","","","","","","","","","",""
"","ISI","","html-keyboard-response","364","478432","0.0-1.0-498.0","0","0","61112","","null","","","null","55","NaN","","","","","","","","","","","","","","",""
"","S2","","html-keyboard-response","365","478686","0.0-1.0-499.0","0","0","61112","","null","","","null","55","","NaN","","","","","","","","","","","","","",""
"","response","","html-keyboard-response","366","479094","0.0-1.0-500.0-0.0","0","0","61112","","406","","","68","55","","","2","55","training","adjacent","FG","6","7","N.jpg","Q.jpg","1","1","1","",""
"","feedback","","html-keyboard-response","367","480098","0.0-1.0-501.0-0.0","0","0","61112","","null","","","null","55","","","","","","","","","","","","","","","",""
"","ITI","","html-keyboard-response","368","481101","0.0-1.0-504.0","0","0","61112","","null","","","null","55","","","","","","","","","","","","","","","NaN",""
"","S1","","html-keyboard-response","369","481355","0.0-1.0-506.0","0","0","61112","","null","","","null","56","","","","","","","","","","","","","","","",""
"","ISI","","html-keyboard-response","370","483358","0.0-1.0-507.0","0","0","61112","","null","","","null","56","NaN","","","","","","","","","","","","","","",""
"","S2","","html-keyboard-response","371","483612","0.0-1.0-508.0","0","0","61112","","null","","","null","56","","NaN","","","","","","","","","","","","","",""
"","response","","html-keyboard-response","372","484105","0.0-1.0-509.0-0.0","0","0","61112","","491","","","75","56","","","2","56","training","adjacent","AB","1","2","R.jpg","M.jpg","0","1","0","",""
"","feedback","","html-keyboard-response","373","485108","0.0-1.0-510.0-0.0","0","0","61112","","null","","","null","56","","","","","","","","","","","","","","","",""
"","time_out","","html-keyboard-response","374","487111","0.0-1.0-512.0-0.0","0","0","61112","","null","","","null","56","","","","","","","","","","","","","","","",""
"","ITI","","html-keyboard-response","375","488114","0.0-1.0-513.0","0","0","61112","","null","","","null","56","","","","","","","","","","","","","","","NaN",""
"","S1","","html-keyboard-response","376","488372","0.0-1.0-515.0","0","0","61112","","null","","","null","57","","","","","","","","","","","","","","","",""
"","ISI","","html-keyboard-response","377","490375","0.0-1.0-516.0","0","0","61112","","null","","","null","57","NaN","","","","","","","","","","","","","","",""
"","S2","","html-keyboard-response","378","490629","0.0-1.0-517.0","0","0","61112","","null","","","null","57","","NaN","","","","","","","","","","","","","",""
"","response","","html-keyboard-response","379","490925","0.0-1.0-518.0-0.0","0","0","61112","","295","","","68","57","","","2","57","training","adjacent","DE","4","5","L.jpg","O.jpg","1","1","1","",""
"","feedback","","html-keyboard-response","380","491928","0.0-1.0-519.0-0.0","0","0","61112","","null","","","null","57","","","","","","","","","","","","","","","",""
"","ITI","","html-keyboard-response","381","492931","0.0-1.0-522.0","0","0","61112","","null","","","null","57","","","","","","","","","","","","","","","NaN",""
"","S1","","html-keyboard-response","382","493184","0.0-1.0-524.0","0","0","61112","","null","","","null","58","","","","","","","","","","","","","","","",""
"","ISI","","html-keyboard-response","383","495188","0.0-1.0-525.0","0","0","61112","","null","","","null","58","NaN","","","","","","","","","","","","","","",""
"","S2","","html-keyboard-response","384","495441","0.0-1.0-526.0","0","0","61112","","null","","","null","58","","NaN","","","","","","","","","","","","","",""
"","response","","html-keyboard-response","385","496053","0.0-1.0-527.0-0.0","0","0","61112","","610","","","68","58","","","2","58","training","adjacent","FE","6","5","N.jpg","O.jpg","1","0","0","",""
"","feedback","","html-keyboard-response","386","497057","0.0-1.0-528.0-0.0","0","0","61112","","null","","","null","58","","","","","","","","","","","","","","","",""
"","time_out","","html-keyboard-response","387","499059","0.0-1.0-530.0-0.0","0","0","61112","","null","","","null","58","","","","","","","","","","","","","","","",""
"","ITI","","html-keyboard-response","388","500061","0.0-1.0-531.0","0","0","61112","","null","","","null","58","","","","","","","","","","","","","","","NaN",""
"","S1","","html-keyboard-response","389","500313","0.0-1.0-533.0","0","0","61112","","null","","","null","59","","","","","","","","","","","","","","","",""
"","ISI","","html-keyboard-response","390","502316","0.0-1.0-534.0","0","0","61112","","null","","","null","59","NaN","","","","","","","","","","","","","","",""
"","S2","","html-keyboard-response","391","502567","0.0-1.0-535.0","0","0","61112","","null","","","null","59","","NaN","","","","","","","","","","","","","",""
"","response","","html-keyboard-response","392","502777","0.0-1.0-536.0-0.0","0","0","61112","","208","","","75","59","","","2","59","training","adjacent","FE","6","5","N.jpg","O.jpg","0","0","1","",""
"","feedback","","html-keyboard-response","393","503781","0.0-1.0-537.0-0.0","0","0","61112","","null","","","null","59","","","","","","","","","","","","","","","",""
"","ITI","","html-keyboard-response","394","504784","0.0-1.0-540.0","0","0","61112","","null","","","null","59","","","","","","","","","","","","","","","NaN",""
"","S1","","html-keyboard-response","395","505047","0.0-1.0-542.0","0","0","61112","","null","","","null","60","","","","","","","","","","","","","","","",""
"","ISI","","html-keyboard-response","396","507049","0.0-1.0-543.0","0","0","61112","","null","","","null","60","NaN","","","","","","","","","","","","","","",""
"","S2","","html-keyboard-response","397","507301","0.0-1.0-544.0","0","0","61112","","null","","","null","60","","NaN","","","","","","","","","","","","","",""
"","response","","html-keyboard-response","398","507850","0.0-1.0-545.0-0.0","0","0","61112","","546","","","75","60","","","2","60","training","adjacent","EF","5","6","O.jpg","N.jpg","0","1","0","",""
"","feedback","","html-keyboard-response","399","508854","0.0-1.0-546.0-0.0","0","0","61112","","null","","","null","60","","","","","","","","","","","","","","","",""
"","time_out","","html-keyboard-response","400","510856","0.0-1.0-548.0-0.0","0","0","61112","","null","","","null","60","","","","","","","","","","","","","","","",""
"","ITI","","html-keyboard-response","401","511859","0.0-1.0-549.0","0","0","61112","","null","","","null","60","","","","","","","","","","","","","","","NaN",""
"","S1","","html-keyboard-response","402","512112","0.0-1.0-551.0","0","0","61112","","null","","","null","61","","","","","","","","","","","","","","","",""
"","ISI","","html-keyboard-response","403","514115","0.0-1.0-552.0","0","0","61112","","null","","","null","61","NaN","","","","","","","","","","","","","","",""
"","S2","","html-keyboard-response","404","514367","0.0-1.0-553.0","0","0","61112","","null","","","null","61","","NaN","","","","","","","","","","","","","",""
"","response","","html-keyboard-response","405","514961","0.0-1.0-554.0-0.0","0","0","61112","","593","","","68","61","","","2","61","training","adjacent","FE","6","5","N.jpg","O.jpg","1","0","0","",""
"","feedback","","html-keyboard-response","406","515964","0.0-1.0-555.0-0.0","0","0","61112","","null","","","null","61","","","","","","","","","","","","","","","",""
"","time_out","","html-keyboard-response","407","517967","0.0-1.0-557.0-0.0","0","0","61112","","null","","","null","61","","","","","","","","","","","","","","","",""
"","ITI","","html-keyboard-response","408","518970","0.0-1.0-558.0","0","0","61112","","null","","","null","61","","","","","","","","","","","","","","","NaN",""
"","S1","","html-keyboard-response","409","519223","0.0-1.0-560.0","0","0","61112","","null","","","null","62","","","","","","","","","","","","","","","",""
"","ISI","","html-keyboard-response","410","521225","0.0-1.0-561.0","0","0","61112","","null","","","null","62","NaN","","","","","","","","","","","","","","",""
"","S2","","html-keyboard-response","411","521478","0.0-1.0-562.0","0","0","61112","","null","","","null","62","","NaN","","","","","","","","","","","","","",""
"","response","","html-keyboard-response","412","522143","0.0-1.0-563.0-0.0","0","0","61112","","662","","","68","62","","","2","62","training","adjacent","ED","5","4","O.jpg","L.jpg","1","0","0","",""
"","feedback","","html-keyboard-response","413","523146","0.0-1.0-564.0-0.0","0","0","61112","","null","","","null","62","","","","","","","","","","","","","","","",""
"","time_out","","html-keyboard-response","414","525149","0.0-1.0-566.0-0.0","0","0","61112","","null","","","null","62","","","","","","","","","","","","","","","",""
"","ITI","","html-keyboard-response","415","526151","0.0-1.0-567.0","0","0","61112","","null","","","null","62","","","","","","","","","","","","","","","NaN",""
"","S1","","html-keyboard-response","416","526404","0.0-1.0-569.0","0","0","61112","","null","","","null","63","","","","","","","","","","","","","","","",""
"","ISI","","html-keyboard-response","417","528406","0.0-1.0-570.0","0","0","61112","","null","","","null","63","NaN","","","","","","","","","","","","","","",""
"","S2","","html-keyboard-response","418","528659","0.0-1.0-571.0","0","0","61112","","null","","","null","63","","NaN","","","","","","","","","","","","","",""
"","response","","html-keyboard-response","419","529113","0.0-1.0-572.0-0.0","0","0","61112","","453","","","68","63","","","2","63","training","adjacent","AB","1","2","R.jpg","M.jpg","1","1","1","",""
"","feedback","","html-keyboard-response","420","530117","0.0-1.0-573.0-0.0","0","0","61112","","null","","","null","63","","","","","","","","","","","","","","","",""
"","ITI","","html-keyboard-response","421","531129","0.0-1.0-576.0","0","0","61112","","null","","","null","63","","","","","","","","","","","","","","","NaN",""
"","S1","","html-keyboard-response","422","531382","0.0-1.0-578.0","0","0","61112","","null","","","null","64","","","","","","","","","","","","","","","",""
"","ISI","","html-keyboard-response","423","533385","0.0-1.0-579.0","0","0","61112","","null","","","null","64","NaN","","","","","","","","","","","","","","",""
"","S2","","html-keyboard-response","424","533638","0.0-1.0-580.0","0","0","61112","","null","","","null","64","","NaN","","","","","","","","","","","","","",""
"","response","","html-keyboard-response","425","533784","0.0-1.0-581.0-0.0","0","0","61112","","144","","","75","64","","","2","64","training","adjacent","DE","4","5","L.jpg","O.jpg","0","1","0","",""
"","feedback","","html-keyboard-response","426","534788","0.0-1.0-582.0-0.0","0","0","61112","","null","","","null","64","","","","","","","","","","","","","","","",""
"","time_out","","html-keyboard-response","427","536792","0.0-1.0-584.0-0.0","0","0","61112","","null","","","null","64","","","","","","","","","","","","","","","",""
"","ITI","","html-keyboard-response","428","537795","0.0-1.0-585.0","0","0","61112","","null","","","null","64","","","","","","","","","","","","","","","NaN",""
"","S1","","html-keyboard-response","429","538048","0.0-1.0-587.0","0","0","61112","","null","","","null","65","","","","","","","","","","","","","","","",""
"","ISI","","html-keyboard-response","430","540051","0.0-1.0-588.0","0","0","61112","","null","","","null","65","NaN","","","","","","","","","","","","","","",""
"","S2","","html-keyboard-response","431","540305","0.0-1.0-589.0","0","0","61112","","null","","","null","65","","NaN","","","","","","","","","","","","","",""
"","response","","html-keyboard-response","432","540820","0.0-1.0-590.0-0.0","0","0","61112","","514","","","68","65","","","2","65","training","adjacent","AB","1","2","R.jpg","M.jpg","1","1","1","",""
"","feedback","","html-keyboard-response","433","541824","0.0-1.0-591.0-0.0","0","0","61112","","null","","","null","65","","","","","","","","","","","","","","","",""
"","ITI","","html-keyboard-response","434","542827","0.0-1.0-594.0","0","0","61112","","null","","","null","65","","","","","","","","","","","","","","","NaN",""
"","S1","","html-keyboard-response","435","543080","0.0-1.0-596.0","0","0","61112","","null","","","null","66","","","","","","","","","","","","","","","",""
"","ISI","","html-keyboard-response","436","545082","0.0-1.0-597.0","0","0","61112","","null","","","null","66","NaN","","","","","","","","","","","","","","",""
"","S2","","html-keyboard-response","437","545335","0.0-1.0-598.0","0","0","61112","","null","","","null","66","","NaN","","","","","","","","","","","","","",""
"","response","","html-keyboard-response","438","545834","0.0-1.0-599.0-0.0","0","0","61112","","496","","","75","66","","","2","66","training","adjacent","BC","2","3","M.jpg","P.jpg","0","1","0","",""
"","feedback","","html-keyboard-response","439","546837","0.0-1.0-600.0-0.0","0","0","61112","","null","","","null","66","","","","","","","","","","","","","","","",""
"","time_out","","html-keyboard-response","440","548840","0.0-1.0-602.0-0.0","0","0","61112","","null","","","null","66","","","","","","","","","","","","","","","",""
"","ITI","","html-keyboard-response","441","549844","0.0-1.0-603.0","0","0","61112","","null","","","null","66","","","","","","","","","","","","","","","NaN",""
"","S1","","html-keyboard-response","442","550108","0.0-1.0-605.0","0","0","61112","","null","","","null","67","","","","","","","","","","","","","","","",""
"","ISI","","html-keyboard-response","443","552111","0.0-1.0-606.0","0","0","61112","","null","","","null","67","NaN","","","","","","","","","","","","","","",""
"","S2","","html-keyboard-response","444","552364","0.0-1.0-607.0","0","0","61112","","null","","","null","67","","NaN","","","","","","","","","","","","","",""
"","response","","html-keyboard-response","445","553015","0.0-1.0-608.0-0.0","0","0","61112","","648","","","75","67","","","2","67","training","adjacent","BC","2","3","M.jpg","P.jpg","0","1","0","",""
"","feedback","","html-keyboard-response","446","554019","0.0-1.0-609.0-0.0","0","0","61112","","null","","","null","67","","","","","","","","","","","","","","","",""
"","time_out","","html-keyboard-response","447","556021","0.0-1.0-611.0-0.0","0","0","61112","","null","","","null","67","","","","","","","","","","","","","","","",""
"","ITI","","html-keyboard-response","448","557024","0.0-1.0-612.0","0","0","61112","","null","","","null","67","","","","","","","","","","","","","","","NaN",""
"","S1","","html-keyboard-response","449","557277","0.0-1.0-614.0","0","0","61112","","null","","","null","68","","","","","","","","","","","","","","","",""
"","ISI","","html-keyboard-response","450","559281","0.0-1.0-615.0","0","0","61112","","null","","","null","68","NaN","","","","","","","","","","","","","","",""
"","S2","","html-keyboard-response","451","559533","0.0-1.0-616.0","0","0","61112","","null","","","null","68","","NaN","","","","","","","","","","","","","",""
"","response","","html-keyboard-response","452","559871","0.0-1.0-617.0-0.0","0","0","61112","","336","","","75","68","","","2","68","training","adjacent","GF","7","6","Q.jpg","N.jpg","0","0","1","",""
"","feedback","","html-keyboard-response","453","560874","0.0-1.0-618.0-0.0","0","0","61112","","null","","","null","68","","","","","","","","","","","","","","","",""
"","ITI","","html-keyboard-response","454","561890","0.0-1.0-621.0","0","0","61112","","null","","","null","68","","","","","","","","","","","","","","","NaN",""
"","S1","","html-keyboard-response","455","562145","0.0-1.0-623.0","0","0","61112","","null","","","null","69","","","","","","","","","","","","","","","",""
"","ISI","","html-keyboard-response","456","564148","0.0-1.0-624.0","0","0","61112","","null","","","null","69","NaN","","","","","","","","","","","","","","",""
"","S2","","html-keyboard-response","457","564401","0.0-1.0-625.0","0","0","61112","","null","","","null","69","","NaN","","","","","","","","","","","","","",""
"","response","","html-keyboard-response","458","564827","0.0-1.0-626.0-0.0","0","0","61112","","424","","","68","69","","","2","69","training","adjacent","CD","3","4","P.jpg","L.jpg","1","1","1","",""
"","feedback","","html-keyboard-response","459","565831","0.0-1.0-627.0-0.0","0","0","61112","","null","","","null","69","","","","","","","","","","","","","","","",""
"","ITI","","html-keyboard-response","460","566846","0.0-1.0-630.0","0","0","61112","","null","","","null","69","","","","","","","","","","","","","","","NaN",""
"","S1","","html-keyboard-response","461","567100","0.0-1.0-632.0","0","0","61112","","null","","","null","70","","","","","","","","","","","","","","","",""
"","ISI","","html-keyboard-response","462","569102","0.0-1.0-633.0","0","0","61112","","null","","","null","70","NaN","","","","","","","","","","","","","","",""
"","S2","","html-keyboard-response","463","569355","0.0-1.0-634.0","0","0","61112","","null","","","null","70","","NaN","","","","","","","","","","","","","",""
"","response","","html-keyboard-response","464","569882","0.0-1.0-635.0-0.0","0","0","61112","","527","","","68","70","","","2","70","training","adjacent","CD","3","4","P.jpg","L.jpg","1","1","1","",""
"","feedback","","html-keyboard-response","465","570885","0.0-1.0-636.0-0.0","0","0","61112","","null","","","null","70","","","","","","","","","","","","","","","",""
"","ITI","","html-keyboard-response","466","571891","0.0-1.0-639.0","0","0","61112","","null","","","null","70","","","","","","","","","","","","","","","NaN",""
"","S1","","html-keyboard-response","467","572143","0.0-1.0-641.0","0","0","61112","","null","","","null","71","","","","","","","","","","","","","","","",""
"","ISI","","html-keyboard-response","468","574145","0.0-1.0-642.0","0","0","61112","","null","","","null","71","NaN","","","","","","","","","","","","","","",""
"","S2","","html-keyboard-response","469","574398","0.0-1.0-643.0","0","0","61112","","null","","","null","71","","NaN","","","","","","","","","","","","","",""
"","response","","html-keyboard-response","470","575060","0.0-1.0-644.0-0.0","0","0","61112","","659","","","68","71","","","2","71","training","adjacent","DC","4","3","L.jpg","P.jpg","1","0","0","",""
"","feedback","","html-keyboard-response","471","576063","0.0-1.0-645.0-0.0","0","0","61112","","null","","","null","71","","","","","","","","","","","","","","","",""
"","time_out","","html-keyboard-response","472","578066","0.0-1.0-647.0-0.0","0","0","61112","","null","","","null","71","","","","","","","","","","","","","","","",""
"","ITI","","html-keyboard-response","473","579069","0.0-1.0-648.0","0","0","61112","","null","","","null","71","","","","","","","","","","","","","","","NaN",""
"","S1","","html-keyboard-response","474","579322","0.0-1.0-650.0","0","0","61112","","null","","","null","72","","","","","","","","","","","","","","","",""
"","ISI","","html-keyboard-response","475","581326","0.0-1.0-651.0","0","0","61112","","null","","","null","72","NaN","","","","","","","","","","","","","","",""
"","S2","","html-keyboard-response","476","581579","0.0-1.0-652.0","0","0","61112","","null","","","null","72","","NaN","","","","","","","","","","","","","",""
"","response","","html-keyboard-response","477","581715","0.0-1.0-653.0-0.0","0","0","61112","","134","","","75","72","","","2","72","training","adjacent","CB","3","2","P.jpg","M.jpg","0","0","1","",""
"","feedback","","html-keyboard-response","478","582718","0.0-1.0-654.0-0.0","0","0","61112","","null","","","null","72","","","","","","","","","","","","","","","",""
"","ITI","","html-keyboard-response","479","583722","0.0-1.0-657.0","0","0","61112","","null","","","null","72","","","","","","","","","","","","","","","NaN",""
"","S1","","html-keyboard-response","480","583975","0.0-1.0-659.0","0","0","61112","","null","","","null","73","","","","","","","","","","","","","","","",""
"","ISI","","html-keyboard-response","481","585978","0.0-1.0-660.0","0","0","61112","","null","","","null","73","NaN","","","","","","","","","","","","","","",""
"","S2","","html-keyboard-response","482","586231","0.0-1.0-661.0","0","0","61112","","null","","","null","73","","NaN","","","","","","","","","","","","","",""
"","response","","html-keyboard-response","483","587491","0.0-1.0-662.0-0.0","0","0","61112","","1257","","","68","73","","","2","73","training","adjacent","BC","2","3","M.jpg","P.jpg","1","1","1","",""
"","feedback","","html-keyboard-response","484","588494","0.0-1.0-663.0-0.0","0","0","61112","","null","","","null","73","","","","","","","","","","","","","","","",""
"","ITI","","html-keyboard-response","485","589498","0.0-1.0-666.0","0","0","61112","","null","","","null","73","","","","","","","","","","","","","","","NaN",""
"","S1","","html-keyboard-response","486","589752","0.0-1.0-668.0","0","0","61112","","null","","","null","74","","","","","","","","","","","","","","","",""
"","ISI","","html-keyboard-response","487","591756","0.0-1.0-669.0","0","0","61112","","null","","","null","74","NaN","","","","","","","","","","","","","","",""
"","S2","","html-keyboard-response","488","592010","0.0-1.0-670.0","0","0","61112","","null","","","null","74","","NaN","","","","","","","","","","","","","",""
"","response","","html-keyboard-response","489","592416","0.0-1.0-671.0-0.0","0","0","61112","","404","","","75","74","","","2","74","training","adjacent","DE","4","5","L.jpg","O.jpg","0","1","0","",""
"","feedback","","html-keyboard-response","490","593420","0.0-1.0-672.0-0.0","0","0","61112","","null","","","null","74","","","","","","","","","","","","","","","",""
"","time_out","","html-keyboard-response","491","595423","0.0-1.0-674.0-0.0","0","0","61112","","null","","","null","74","","","","","","","","","","","","","","","",""
"","ITI","","html-keyboard-response","492","596425","0.0-1.0-675.0","0","0","61112","","null","","","null","74","","","","","","","","","","","","","","","NaN",""
"","S1","","html-keyboard-response","493","596678","0.0-1.0-677.0","0","0","61112","","null","","","null","75","","","","","","","","","","","","","","","",""
"","ISI","","html-keyboard-response","494","598681","0.0-1.0-678.0","0","0","61112","","null","","","null","75","NaN","","","","","","","","","","","","","","",""
"","S2","","html-keyboard-response","495","598934","0.0-1.0-679.0","0","0","61112","","null","","","null","75","","NaN","","","","","","","","","","","","","",""
"","response","","html-keyboard-response","496","599038","0.0-1.0-680.0-0.0","0","0","61112","","102","","","68","75","","","2","75","training","adjacent","DC","4","3","L.jpg","P.jpg","1","0","0","",""
"","feedback","","html-keyboard-response","497","600042","0.0-1.0-681.0-0.0","0","0","61112","","null","","","null","75","","","","","","","","","","","","","","","",""
"","time_out","","html-keyboard-response","498","602045","0.0-1.0-683.0-0.0","0","0","61112","","null","","","null","75","","","","","","","","","","","","","","","",""
"","ITI","","html-keyboard-response","499","603049","0.0-1.0-684.0","0","0","61112","","null","","","null","75","","","","","","","","","","","","","","","NaN",""
"","S1","","html-keyboard-response","500","603301","0.0-1.0-686.0","0","0","61112","","null","","","null","76","","","","","","","","","","","","","","","",""
"","ISI","","html-keyboard-response","501","605304","0.0-1.0-687.0","0","0","61112","","null","","","null","76","NaN","","","","","","","","","","","","","","",""
"","S2","","html-keyboard-response","502","605561","0.0-1.0-688.0","0","0","61112","","null","","","null","76","","NaN","","","","","","","","","","","","","",""
"","response","","html-keyboard-response","503","605750","0.0-1.0-689.0-0.0","0","0","61112","","186","","","75","76","","","2","76","training","adjacent","EF","5","6","O.jpg","N.jpg","0","1","0","",""
"","feedback","","html-keyboard-response","504","606754","0.0-1.0-690.0-0.0","0","0","61112","","null","","","null","76","","","","","","","","","","","","","","","",""
"","time_out","","html-keyboard-response","505","608758","0.0-1.0-692.0-0.0","0","0","61112","","null","","","null","76","","","","","","","","","","","","","","","",""
"","ITI","","html-keyboard-response","506","609762","0.0-1.0-693.0","0","0","61112","","null","","","null","76","","","","","","","","","","","","","","","NaN",""
"","S1","","html-keyboard-response","507","610015","0.0-1.0-695.0","0","0","61112","","null","","","null","77","","","","","","","","","","","","","","","",""
"","ISI","","html-keyboard-response","508","612017","0.0-1.0-696.0","0","0","61112","","null","","","null","77","NaN","","","","","","","","","","","","","","",""
"","S2","","html-keyboard-response","509","612271","0.0-1.0-697.0","0","0","61112","","null","","","null","77","","NaN","","","","","","","","","","","","","",""
"","response","","html-keyboard-response","510","612690","0.0-1.0-698.0-0.0","0","0","61112","","416","","","68","77","","","2","77","training","adjacent","EF","5","6","O.jpg","N.jpg","1","1","1","",""
"","feedback","","html-keyboard-response","511","613693","0.0-1.0-699.0-0.0","0","0","61112","","null","","","null","77","","","","","","","","","","","","","","","",""
"","ITI","","html-keyboard-response","512","614697","0.0-1.0-702.0","0","0","61112","","null","","","null","77","","","","","","","","","","","","","","","NaN",""
"","S1","","html-keyboard-response","513","614950","0.0-1.0-704.0","0","0","61112","","null","","","null","78","","","","","","","","","","","","","","","",""
"","ISI","","html-keyboard-response","514","616953","0.0-1.0-705.0","0","0","61112","","null","","","null","78","NaN","","","","","","","","","","","","","","",""
"","S2","","html-keyboard-response","515","617206","0.0-1.0-706.0","0","0","61112","","null","","","null","78","","NaN","","","","","","","","","","","","","",""
"","response","","html-keyboard-response","516","617671","0.0-1.0-707.0-0.0","0","0","61112","","463","","","75","78","","","2","78","training","adjacent","CB","3","2","P.jpg","M.jpg","0","0","1","",""
"","feedback","","html-keyboard-response","517","618675","0.0-1.0-708.0-0.0","0","0","61112","","null","","","null","78","","","","","","","","","","","","","","","",""
"","ITI","","html-keyboard-response","518","619677","0.0-1.0-711.0","0","0","61112","","null","","","null","78","","","","","","","","","","","","","","","NaN",""
"","S1","","html-keyboard-response","519","619930","0.0-1.0-713.0","0","0","61112","","null","","","null","79","","","","","","","","","","","","","","","",""
"","ISI","","html-keyboard-response","520","621933","0.0-1.0-714.0","0","0","61112","","null","","","null","79","NaN","","","","","","","","","","","","","","",""
"","S2","","html-keyboard-response","521","622189","0.0-1.0-715.0","0","0","61112","","null","","","null","79","","NaN","","","","","","","","","","","","","",""
"","response","","html-keyboard-response","522","622741","0.0-1.0-716.0-0.0","0","0","61112","","549","","","68","79","","","2","79","training","adjacent","BC","2","3","M.jpg","P.jpg","1","1","1","",""
"","feedback","","html-keyboard-response","523","623744","0.0-1.0-717.0-0.0","0","0","61112","","null","","","null","79","","","","","","","","","","","","","","","",""
"","ITI","","html-keyboard-response","524","624748","0.0-1.0-720.0","0","0","61112","","null","","","null","79","","","","","","","","","","","","","","","NaN",""
"","S1","","html-keyboard-response","525","625001","0.0-1.0-722.0","0","0","61112","","null","","","null","80","","","","","","","","","","","","","","","",""
"","ISI","","html-keyboard-response","526","627004","0.0-1.0-723.0","0","0","61112","","null","","","null","80","NaN","","","","","","","","","","","","","","",""
"","S2","","html-keyboard-response","527","627263","0.0-1.0-724.0","0","0","61112","","null","","","null","80","","NaN","","","","","","","","","","","","","",""
"","response","","html-keyboard-response","528","627607","0.0-1.0-725.0-0.0","0","0","61112","","342","","","75","80","","","2","80","training","adjacent","DC","4","3","L.jpg","P.jpg","0","0","1","",""
"","feedback","","html-keyboard-response","529","628611","0.0-1.0-726.0-0.0","0","0","61112","","null","","","null","80","","","","","","","","","","","","","","","",""
"","ITI","","html-keyboard-response","530","629614","0.0-1.0-729.0","0","0","61112","","null","","","null","80","","","","","","","","","","","","","","","NaN",""
"","S1","","html-keyboard-response","531","629870","0.0-1.0-731.0","0","0","61112","","null","","","null","81","","","","","","","","","","","","","","","",""
"","ISI","","html-keyboard-response","532","631872","0.0-1.0-732.0","0","0","61112","","null","","","null","81","NaN","","","","","","","","","","","","","","",""
"","S2","","html-keyboard-response","533","632124","0.0-1.0-733.0","0","0","61112","","null","","","null","81","","NaN","","","","","","","","","","","","","",""
"","response","","html-keyboard-response","534","632629","0.0-1.0-734.0-0.0","0","0","61112","","503","","","75","81","","","2","81","training","adjacent","BA","2","1","M.jpg","R.jpg","0","0","1","",""
"","feedback","","html-keyboard-response","535","633632","0.0-1.0-735.0-0.0","0","0","61112","","null","","","null","81","","","","","","","","","","","","","","","",""
"","ITI","","html-keyboard-response","536","634635","0.0-1.0-738.0","0","0","61112","","null","","","null","81","","","","","","","","","","","","","","","NaN",""
"","S1","","html-keyboard-response","537","634888","0.0-1.0-740.0","0","0","61112","","null","","","null","82","","","","","","","","","","","","","","","",""
"","ISI","","html-keyboard-response","538","636891","0.0-1.0-741.0","0","0","61112","","null","","","null","82","NaN","","","","","","","","","","","","","","",""
"","S2","","html-keyboard-response","539","637143","0.0-1.0-742.0","0","0","61112","","null","","","null","82","","NaN","","","","","","","","","","","","","",""
"","response","","html-keyboard-response","540","637903","0.0-1.0-743.0-0.0","0","0","61112","","758","","","75","82","","","2","82","training","adjacent","ED","5","4","O.jpg","L.jpg","0","0","1","",""
"","feedback","","html-keyboard-response","541","638907","0.0-1.0-744.0-0.0","0","0","61112","","null","","","null","82","","","","","","","","","","","","","","","",""
"","ITI","","html-keyboard-response","542","639910","0.0-1.0-747.0","0","0","61112","","null","","","null","82","","","","","","","","","","","","","","","NaN",""
"","S1","","html-keyboard-response","543","640163","0.0-1.0-749.0","0","0","61112","","null","","","null","83","","","","","","","","","","","","","","","",""
"","ISI","","html-keyboard-response","544","642165","0.0-1.0-750.0","0","0","61112","","null","","","null","83","NaN","","","","","","","","","","","","","","",""
"","S2","","html-keyboard-response","545","642419","0.0-1.0-751.0","0","0","61112","","null","","","null","83","","NaN","","","","","","","","","","","","","",""
"","response","","html-keyboard-response","546","642980","0.0-1.0-752.0-0.0","0","0","61112","","558","","","68","83","","","2","83","training","adjacent","CB","3","2","P.jpg","M.jpg","1","0","0","",""
"","feedback","","html-keyboard-response","547","643983","0.0-1.0-753.0-0.0","0","0","61112","","null","","","null","83","","","","","","","","","","","","","","","",""
"","time_out","","html-keyboard-response","548","645986","0.0-1.0-755.0-0.0","0","0","61112","","null","","","null","83","","","","","","","","","","","","","","","",""
"","ITI","","html-keyboard-response","549","646990","0.0-1.0-756.0","0","0","61112","","null","","","null","83","","","","","","","","","","","","","","","NaN",""
"","S1","","html-keyboard-response","550","647243","0.0-1.0-758.0","0","0","61112","","null","","","null","84","","","","","","","","","","","","","","","",""
"","ISI","","html-keyboard-response","551","649246","0.0-1.0-759.0","0","0","61112","","null","","","null","84","NaN","","","","","","","","","","","","","","",""
"","S2","","html-keyboard-response","552","649499","0.0-1.0-760.0","0","0","61112","","null","","","null","84","","NaN","","","","","","","","","","","","","",""
"","response","","html-keyboard-response","553","649720","0.0-1.0-761.0-0.0","0","0","61112","","219","","","75","84","","","2","84","training","adjacent","GF","7","6","Q.jpg","N.jpg","0","0","1","",""
"","feedback","","html-keyboard-response","554","650724","0.0-1.0-762.0-0.0","0","0","61112","","null","","","null","84","","","","","","","","","","","","","","","",""
"","ITI","","html-keyboard-response","555","651728","0.0-1.0-765.0","0","0","61112","","null","","","null","84","","","","","","","","","","","","","","","NaN",""
"","S1","","html-keyboard-response","556","651980","0.0-1.0-767.0","0","0","61112","","null","","","null","85","","","","","","","","","","","","","","","",""
"","ISI","","html-keyboard-response","557","653983","0.0-1.0-768.0","0","0","61112","","null","","","null","85","NaN","","","","","","","","","","","","","","",""
"","S2","","html-keyboard-response","558","654236","0.0-1.0-769.0","0","0","61112","","null","","","null","85","","NaN","","","","","","","","","","","","","",""
"","response","","html-keyboard-response","559","654622","0.0-1.0-770.0-0.0","0","0","61112","","383","","","75","85","","","2","85","training","adjacent","BA","2","1","M.jpg","R.jpg","0","0","1","",""
"","feedback","","html-keyboard-response","560","655626","0.0-1.0-771.0-0.0","0","0","61112","","null","","","null","85","","","","","","","","","","","","","","","",""
"","ITI","","html-keyboard-response","561","656629","0.0-1.0-774.0","0","0","61112","","null","","","null","85","","","","","","","","","","","","","","","NaN",""
"","S1","","html-keyboard-response","562","656882","0.0-1.0-776.0","0","0","61112","","null","","","null","86","","","","","","","","","","","","","","","",""
"","ISI","","html-keyboard-response","563","658885","0.0-1.0-777.0","0","0","61112","","null","","","null","86","NaN","","","","","","","","","","","","","","",""
"","S2","","html-keyboard-response","564","659138","0.0-1.0-778.0","0","0","61112","","null","","","null","86","","NaN","","","","","","","","","","","","","",""
"","response","","html-keyboard-response","565","659443","0.0-1.0-779.0-0.0","0","0","61112","","302","","","68","86","","","2","86","training","adjacent","FG","6","7","N.jpg","Q.jpg","1","1","1","",""
"","feedback","","html-keyboard-response","566","660447","0.0-1.0-780.0-0.0","0","0","61112","","null","","","null","86","","","","","","","","","","","","","","","",""
"","ITI","","html-keyboard-response","567","661450","0.0-1.0-783.0","0","0","61112","","null","","","null","86","","","","","","","","","","","","","","","NaN",""
"","S1","","html-keyboard-response","568","661703","0.0-1.0-785.0","0","0","61112","","null","","","null","87","","","","","","","","","","","","","","","",""
"","ISI","","html-keyboard-response","569","663707","0.0-1.0-786.0","0","0","61112","","null","","","null","87","NaN","","","","","","","","","","","","","","",""
"","S2","","html-keyboard-response","570","663960","0.0-1.0-787.0","0","0","61112","","null","","","null","87","","NaN","","","","","","","","","","","","","",""
"","response","","html-keyboard-response","571","664324","0.0-1.0-788.0-0.0","0","0","61112","","362","","","68","87","","","2","87","training","adjacent","FG","6","7","N.jpg","Q.jpg","1","1","1","",""
"","feedback","","html-keyboard-response","572","665329","0.0-1.0-789.0-0.0","0","0","61112","","null","","","null","87","","","","","","","","","","","","","","","",""
"","ITI","","html-keyboard-response","573","666332","0.0-1.0-792.0","0","0","61112","","null","","","null","87","","","","","","","","","","","","","","","NaN",""
"","S1","","html-keyboard-response","574","666585","0.0-1.0-794.0","0","0","61112","","null","","","null","88","","","","","","","","","","","","","","","",""
"","ISI","","html-keyboard-response","575","668589","0.0-1.0-795.0","0","0","61112","","null","","","null","88","NaN","","","","","","","","","","","","","","",""
"","S2","","html-keyboard-response","576","668842","0.0-1.0-796.0","0","0","61112","","null","","","null","88","","NaN","","","","","","","","","","","","","",""
"","response","","html-keyboard-response","577","669286","0.0-1.0-797.0-0.0","0","0","61112","","443","","","75","88","","","2","88","training","adjacent","FE","6","5","N.jpg","O.jpg","0","0","1","",""
"","feedback","","html-keyboard-response","578","670290","0.0-1.0-798.0-0.0","0","0","61112","","null","","","null","88","","","","","","","","","","","","","","","",""
"","ITI","","html-keyboard-response","579","671294","0.0-1.0-801.0","0","0","61112","","null","","","null","88","","","","","","","","","","","","","","","NaN",""
"","S1","","html-keyboard-response","580","671560","0.0-1.0-803.0","0","0","61112","","null","","","null","89","","","","","","","","","","","","","","","",""
"","ISI","","html-keyboard-response","581","673564","0.0-1.0-804.0","0","0","61112","","null","","","null","89","NaN","","","","","","","","","","","","","","",""
"","S2","","html-keyboard-response","582","673817","0.0-1.0-805.0","0","0","61112","","null","","","null","89","","NaN","","","","","","","","","","","","","",""
