"success","ttype","start_time","trial_type","trial_index","time_elapsed","internal_node_id","warning","missed_checkup","PID","view_history","rt","responses","repeat_instructions","key_press","index","keypress_isi","keypress_S2","block","trial_num","phase","group_type","pair_type","S1_stim","S2_stim","S1_img","S2_img","S1_chosen","S1_higher","accuracy","keypress_iti","total_bonus_tally"
"true","full_screen","d03082023hr2025","fullscreen","0","10569","0.0-0.0","0","0","76415","","","","","","","","","","","","","","","","","","","","","",""
"","instructions","","instructions","1","45677","0.0-1.0-0.0-0.0","0","0","76415","[{""page_index"":0,""viewing_time"":7325},{""page_index"":1,""viewing_time"":15725},{""page_index"":2,""viewing_time"":9475},{""page_index"":3,""viewing_time"":2577}]","35103","","","","","","","","","","","","","","","","","","","",""
"","comprehension_check","","survey-multi-choice","2","74166","0.0-1.0-0.0-1.0","0","0","76415","","28476","{""Q0"":""True"",""Q1"":""K"",""Q2"":""Only when the screen 'MAKE A CHOICE' is shown"",""Q3"":""Green mark"",""Q4"":""either D or K""}","1","","","","","","","","","","","","","","","","","",""
"","missed_instruction_checkup","","html-keyboard-response","3","75880","0.0-1.0-0.0-2.0-0.0","0","1","76415","","1700","","","32","","","","","","","","","","","","","","","","",""
"","instructions","","instructions","4","101463","0.0-1.0-0.1-0.1","0","0","76415","[{""page_index"":0,""viewing_time"":8394},{""page_index"":1,""viewing_time"":13788},{""page_index"":2,""viewing_time"":2247},{""page_index"":3,""viewing_time"":1150}]","25579","","","","","","","","","","","","","","","","","","","",""
"","comprehension_check","","survey-multi-choice","5","112790","0.0-1.0-0.1-1.1","0","0","76415","","11315","{""Q0"":""True"",""Q1"":""K"",""Q2"":""Once the second image appears and while the screen 'MAKE A CHOICE' is shown"",""Q3"":""Green mark"",""Q4"":""either D or K""}","0","","","","","","","","","","","","","","","","","",""
"","start_exp","","html-keyboard-response","6","114038","0.0-1.0-1.0","0","0","76415","","1239","","","32","","","","","","","","","","","","","","","","",""
"","S1","","html-keyboard-response","7","114293","0.0-1.0-2.0","0","0","76415","","null","","","null","0","","","","","","","","","","","","","","","",""
"","ISI","","html-keyboard-response","8","114448","0.0-1.0-3.0","0","0","76415","","null","","","null","0","NaN","","","","","","","","","","","","","","",""
"","S2","","html-keyboard-response","9","114704","0.0-1.0-4.0","0","0","76415","","null","","","null","0","","NaN","","","","","","","","","","","","","",""
"","response","","html-keyboard-response","10","116459","0.0-1.0-5.0-0.0","0","0","76415","","null","","","null","0","","","1","0","training","adjacent","CD","3","4","N.jpg","M.jpg","NaN","1","0","",""
"","too_slow_prompt","","html-keyboard-response","11","117463","0.0-1.0-7.0-0.0","1","0","76415","","null","","","null","","","","","","","","","","","","","","","","",""
"","time_out","","html-keyboard-response","12","119467","0.0-1.0-8.0-0.0","0","0","76415","","null","","","null","0","","","","","","","","","","","","","","","",""
"","ITI","","html-keyboard-response","13","120471","0.0-1.0-9.0","0","0","76415","","null","","","null","0","","","","","","","","","","","","","","","NaN",""
"","S1","","html-keyboard-response","14","120727","0.0-1.0-11.0","0","0","76415","","null","","","null","1","","","","","","","","","","","","","","","",""
"","ISI","","html-keyboard-response","15","120881","0.0-1.0-12.0","0","0","76415","","null","","","null","1","NaN","","","","","","","","","","","","","","",""
"","S2","","html-keyboard-response","16","121136","0.0-1.0-13.0","0","0","76415","","null","","","null","1","","NaN","","","","","","","","","","","","","",""
"","response","","html-keyboard-response","17","121684","0.0-1.0-14.0-0.0","0","0","76415","","545","","","68","1","","","1","1","training","adjacent","ED","5","4","O.jpg","M.jpg","0","0","1","",""
"","feedback","","html-keyboard-response","18","122689","0.0-1.0-15.0-0.0","0","0","76415","","null","","","null","1","","","","","","","","","","","","","","","",""
"","ITI","","html-keyboard-response","19","123692","0.0-1.0-18.0","0","0","76415","","null","","","null","1","","","","","","","","","","","","","","","NaN",""
"","S1","","html-keyboard-response","20","123946","0.0-1.0-20.0","0","0","76415","","null","","","null","2","","","","","","","","","","","","","","","",""
"","ISI","","html-keyboard-response","21","124101","0.0-1.0-21.0","0","0","76415","","null","","","null","2","NaN","","","","","","","","","","","","","","",""
"","S2","","html-keyboard-response","22","124355","0.0-1.0-22.0","0","0","76415","","null","","","null","2","","NaN","","","","","","","","","","","","","",""
"","response","","html-keyboard-response","23","124540","0.0-1.0-23.0-0.0","0","0","76415","","181","","","75","2","","","1","2","training","adjacent","FE","6","5","Q.jpg","O.jpg","1","0","0","",""
"","feedback","","html-keyboard-response","24","125544","0.0-1.0-24.0-0.0","0","0","76415","","null","","","null","2","","","","","","","","","","","","","","","",""
"","time_out","","html-keyboard-response","25","127548","0.0-1.0-26.0-0.0","0","0","76415","","null","","","null","2","","","","","","","","","","","","","","","",""
"","ITI","","html-keyboard-response","26","128552","0.0-1.0-27.0","0","0","76415","","null","","","null","2","","","","","","","","","","","","","","","NaN",""
"","S1","","html-keyboard-response","27","128807","0.0-1.0-29.0","0","0","76415","","null","","","null","3","","","","","","","","","","","","","","","",""
"","ISI","","html-keyboard-response","28","128960","0.0-1.0-30.0","0","0","76415","","null","","","null","3","NaN","","","","","","","","","","","","","","",""
"","S2","","html-keyboard-response","29","129127","0.0-1.0-31.0","0","0","76415","","163","","","68","3","","d","1","3","training","adjacent","CB","3","2","N.jpg","R.jpg","0","0","1","",""
"","feedback","","html-keyboard-response","30","130132","0.0-1.0-33.0-0.0","0","0","76415","","null","","","null","3","","","","","","","","","","","","","","","",""
"","ITI","","html-keyboard-response","31","131136","0.0-1.0-36.0","0","0","76415","","null","","","null","3","","","","","","","","","","","","","","","NaN",""
"","S1","","html-keyboard-response","32","131391","0.0-1.0-38.0","0","0","76415","","null","","","null","4","","","","","","","","","","","","","","","",""
"","ISI","","html-keyboard-response","33","131546","0.0-1.0-39.0","0","0","76415","","null","","","null","4","NaN","","","","","","","","","","","","","","",""
"","S2","","html-keyboard-response","34","131800","0.0-1.0-40.0","0","0","76415","","null","","","null","4","","NaN","","","","","","","","","","","","","",""
"","response","","html-keyboard-response","35","131868","0.0-1.0-41.0-0.0","0","0","76415","","64","","","75","4","","","1","4","training","adjacent","GF","7","6","P.jpg","Q.jpg","1","0","0","",""
"","feedback","","html-keyboard-response","36","132871","0.0-1.0-42.0-0.0","0","0","76415","","null","","","null","4","","","","","","","","","","","","","","","",""
"","time_out","","html-keyboard-response","37","134875","0.0-1.0-44.0-0.0","0","0","76415","","null","","","null","4","","","","","","","","","","","","","","","",""
"","ITI","","html-keyboard-response","38","135879","0.0-1.0-45.0","0","0","76415","","null","","","null","4","","","","","","","","","","","","","","","NaN",""
"","S1","","html-keyboard-response","39","136134","0.0-1.0-47.0","0","0","76415","","null","","","null","5","","","","","","","","","","","","","","","",""
"","ISI","","html-keyboard-response","40","136288","0.0-1.0-48.0","0","0","76415","","null","","","null","5","NaN","","","","","","","","","","","","","","",""
"","S2","","html-keyboard-response","41","136540","0.0-1.0-49.0","0","0","76415","","249","","","75","5","","k","1","5","training","adjacent","FG","6","7","Q.jpg","P.jpg","1","1","1","",""
"","feedback","","html-keyboard-response","42","137545","0.0-1.0-51.0-0.0","0","0","76415","","null","","","null","5","","","","","","","","","","","","","","","",""
"","ITI","","html-keyboard-response","43","138550","0.0-1.0-54.0","0","0","76415","","null","","","null","5","","","","","","","","","","","","","","","NaN",""
"","S1","","html-keyboard-response","44","138804","0.0-1.0-56.0","0","0","76415","","null","","","null","6","","","","","","","","","","","","","","","",""
"","ISI","","html-keyboard-response","45","138958","0.0-1.0-57.0","0","0","76415","","null","","","null","6","NaN","","","","","","","","","","","","","","",""
"","S2","","html-keyboard-response","46","139199","0.0-1.0-58.0","0","0","76415","","237","","","68","6","","d","1","6","training","adjacent","AB","1","2","L.jpg","R.jpg","0","1","0","",""
"","feedback","","html-keyboard-response","47","140203","0.0-1.0-60.0-0.0","0","0","76415","","null","","","null","6","","","","","","","","","","","","","","","",""
"","time_out","","html-keyboard-response","48","142207","0.0-1.0-62.0-0.0","0","0","76415","","null","","","null","6","","","","","","","","","","","","","","","",""
"","ITI","","html-keyboard-response","49","143211","0.0-1.0-63.0","0","0","76415","","5","","","75","6","","","","","","","","","","","","","","","k",""
"","S1","","html-keyboard-response","50","143464","0.0-1.0-65.0","0","0","76415","","null","","","null","7","","","","","","","","","","","","","","","",""
"","ISI","","html-keyboard-response","51","143618","0.0-1.0-66.0","0","0","76415","","42","","","75","7","k","","","","","","","","","","","","","","",""
"","S2","","html-keyboard-response","52","143873","0.0-1.0-67.0","0","0","76415","","null","","","null","7","","NaN","","","","","","","","","","","","","",""
"","response","","html-keyboard-response","53","143998","0.0-1.0-68.0-0.0","0","0","76415","","121","","","75","7","","","1","7","training","adjacent","CD","3","4","N.jpg","M.jpg","1","1","1","",""
"","feedback","","html-keyboard-response","54","145004","0.0-1.0-69.0-0.0","0","0","76415","","null","","","null","7","","","","","","","","","","","","","","","",""
"","ITI","","html-keyboard-response","55","146008","0.0-1.0-72.0","0","0","76415","","null","","","null","7","","","","","","","","","","","","","","","NaN",""
"","S1","","html-keyboard-response","56","146262","0.0-1.0-74.0","0","0","76415","","null","","","null","8","","","","","","","","","","","","","","","",""
"","ISI","","html-keyboard-response","57","146416","0.0-1.0-75.0","0","0","76415","","null","","","null","8","NaN","","","","","","","","","","","","","","",""
"","S2","","html-keyboard-response","58","146610","0.0-1.0-76.0","0","0","76415","","190","","","75","8","","k","1","8","training","adjacent","EF","5","6","O.jpg","Q.jpg","1","1","1","",""
"","feedback","","html-keyboard-response","59","147614","0.0-1.0-78.0-0.0","0","0","76415","","null","","","null","8","","","","","","","","","","","","","","","",""
"","ITI","","html-keyboard-response","60","148618","0.0-1.0-81.0","0","0","76415","","null","","","null","8","","","","","","","","","","","","","","","NaN",""
"","S1","","html-keyboard-response","61","148872","0.0-1.0-83.0","0","0","76415","","null","","","null","9","","","","","","","","","","","","","","","",""
"","ISI","","html-keyboard-response","62","149025","0.0-1.0-84.0","0","0","76415","","null","","","null","9","NaN","","","","","","","","","","","","","","",""
"","S2","","html-keyboard-response","63","149256","0.0-1.0-85.0","0","0","76415","","228","","","75","9","","k","1","9","training","adjacent","GF","7","6","P.jpg","Q.jpg","1","0","0","",""
"","feedback","","html-keyboard-response","64","150264","0.0-1.0-87.0-0.0","0","0","76415","","null","","","null","9","","","","","","","","","","","","","","","",""
"","time_out","","html-keyboard-response","65","152266","0.0-1.0-89.0-0.0","0","0","76415","","null","","","null","9","","","","","","","","","","","","","","","",""
"","ITI","","html-keyboard-response","66","153271","0.0-1.0-90.0","0","0","76415","","null","","","null","9","","","","","","","","","","","","","","","NaN",""
"","S1","","html-keyboard-response","67","153525","0.0-1.0-92.0","0","0","76415","","null","","","null","10","","","","","","","","","","","","","","","",""
"","ISI","","html-keyboard-response","68","153679","0.0-1.0-93.0","0","0","76415","","96","","","68","10","d","","","","","","","","","","","","","","",""
"","S2","","html-keyboard-response","69","153933","0.0-1.0-94.0","0","0","76415","","null","","","null","10","","NaN","","","","","","","","","","","","","",""
"","response","","html-keyboard-response","70","154015","0.0-1.0-95.0-0.0","0","0","76415","","79","","","68","10","","","1","10","training","adjacent","GF","7","6","P.jpg","Q.jpg","0","0","1","",""
"","feedback","","html-keyboard-response","71","155017","0.0-1.0-96.0-0.0","0","0","76415","","null","","","null","10","","","","","","","","","","","","","","","",""
"","ITI","","html-keyboard-response","72","156020","0.0-1.0-99.0","0","0","76415","","null","","","null","10","","","","","","","","","","","","","","","NaN",""
"","S1","","html-keyboard-response","73","156273","0.0-1.0-101.0","0","0","76415","","null","","","null","11","","","","","","","","","","","","","","","",""
"","ISI","","html-keyboard-response","74","156427","0.0-1.0-102.0","0","0","76415","","null","","","null","11","NaN","","","","","","","","","","","","","","",""
"","S2","","html-keyboard-response","75","156681","0.0-1.0-103.0","0","0","76415","","null","","","null","11","","NaN","","","","","","","","","","","","","",""
"","response","","html-keyboard-response","76","156754","0.0-1.0-104.0-0.0","0","0","76415","","69","","","75","11","","","1","11","training","adjacent","CB","3","2","N.jpg","R.jpg","1","0","0","",""
"","feedback","","html-keyboard-response","77","157759","0.0-1.0-105.0-0.0","0","0","76415","","null","","","null","11","","","","","","","","","","","","","","","",""
"","time_out","","html-keyboard-response","78","159762","0.0-1.0-107.0-0.0","0","0","76415","","null","","","null","11","","","","","","","","","","","","","","","",""
"","ITI","","html-keyboard-response","79","160767","0.0-1.0-108.0","0","0","76415","","null","","","null","11","","","","","","","","","","","","","","","NaN",""
"","S1","","html-keyboard-response","80","161020","0.0-1.0-110.0","0","0","76415","","null","","","null","12","","","","","","","","","","","","","","","",""
"","ISI","","html-keyboard-response","81","161174","0.0-1.0-111.0","0","0","76415","","null","","","null","12","NaN","","","","","","","","","","","","","","",""
"","S2","","html-keyboard-response","82","161428","0.0-1.0-112.0","0","0","76415","","null","","","null","12","","NaN","","","","","","","","","","","","","",""
"","response","","html-keyboard-response","83","161501","0.0-1.0-113.0-0.0","0","0","76415","","69","","","68","12","","","1","12","training","adjacent","AB","1","2","L.jpg","R.jpg","0","1","0","",""
"","feedback","","html-keyboard-response","84","162506","0.0-1.0-114.0-0.0","0","0","76415","","null","","","null","12","","","","","","","","","","","","","","","",""
"","time_out","","html-keyboard-response","85","164510","0.0-1.0-116.0-0.0","0","0","76415","","null","","","null","12","","","","","","","","","","","","","","","",""
"","ITI","","html-keyboard-response","86","165514","0.0-1.0-117.0","0","0","76415","","null","","","null","12","","","","","","","","","","","","","","","NaN",""
"","S1","","html-keyboard-response","87","165768","0.0-1.0-119.0","0","0","76415","","null","","","null","13","","","","","","","","","","","","","","","",""
"","ISI","","html-keyboard-response","88","165922","0.0-1.0-120.0","0","0","76415","","null","","","null","13","NaN","","","","","","","","","","","","","","",""
"","S2","","html-keyboard-response","89","166159","0.0-1.0-121.0","0","0","76415","","233","","","75","13","","k","1","13","training","adjacent","FE","6","5","Q.jpg","O.jpg","1","0","0","",""
"","feedback","","html-keyboard-response","90","167163","0.0-1.0-123.0-0.0","0","0","76415","","null","","","null","13","","","","","","","","","","","","","","","",""
"","time_out","","html-keyboard-response","91","169168","0.0-1.0-125.0-0.0","0","0","76415","","null","","","null","13","","","","","","","","","","","","","","","",""
"","ITI","","html-keyboard-response","92","170172","0.0-1.0-126.0","0","0","76415","","null","","","null","13","","","","","","","","","","","","","","","NaN",""
"","S1","","html-keyboard-response","93","170425","0.0-1.0-128.0","0","0","76415","","null","","","null","14","","","","","","","","","","","","","","","",""
"","ISI","","html-keyboard-response","94","170578","0.0-1.0-129.0","0","0","76415","","null","","","null","14","NaN","","","","","","","","","","","","","","",""
"","S2","","html-keyboard-response","95","170781","0.0-1.0-130.0","0","0","76415","","200","","","68","14","","d","1","14","training","adjacent","EF","5","6","O.jpg","Q.jpg","0","1","0","",""
"","feedback","","html-keyboard-response","96","171787","0.0-1.0-132.0-0.0","0","0","76415","","null","","","null","14","","","","","","","","","","","","","","","",""
"","time_out","","html-keyboard-response","97","173791","0.0-1.0-134.0-0.0","0","0","76415","","null","","","null","14","","","","","","","","","","","","","","","",""
"","ITI","","html-keyboard-response","98","174795","0.0-1.0-135.0","0","0","76415","","null","","","null","14","","","","","","","","","","","","","","","NaN",""
"","S1","","html-keyboard-response","99","175049","0.0-1.0-137.0","0","0","76415","","null","","","null","15","","","","","","","","","","","","","","","",""
"","ISI","","html-keyboard-response","100","175202","0.0-1.0-138.0","0","0","76415","","null","","","null","15","NaN","","","","","","","","","","","","","","",""
"","S2","","html-keyboard-response","101","175445","0.0-1.0-139.0","0","0","76415","","239","","","68","15","","d","1","15","training","adjacent","CD","3","4","N.jpg","M.jpg","0","1","0","",""
"","feedback","","html-keyboard-response","102","176449","0.0-1.0-141.0-0.0","0","0","76415","","null","","","null","15","","","","","","","","","","","","","","","",""
"","time_out","","html-keyboard-response","103","178453","0.0-1.0-143.0-0.0","0","0","76415","","null","","","null","15","","","","","","","","","","","","","","","",""
"","ITI","","html-keyboard-response","104","179457","0.0-1.0-144.0","0","0","76415","","null","","","null","15","","","","","","","","","","","","","","","NaN",""
"","S1","","html-keyboard-response","105","179712","0.0-1.0-146.0","0","0","76415","","null","","","null","16","","","","","","","","","","","","","","","",""
"","ISI","","html-keyboard-response","106","179868","0.0-1.0-147.0","0","0","76415","","null","","","null","16","NaN","","","","","","","","","","","","","","",""
"","S2","","html-keyboard-response","107","180059","0.0-1.0-148.0","0","0","76415","","188","","","75","16","","k","1","16","training","adjacent","AB","1","2","L.jpg","R.jpg","1","1","1","",""
"","feedback","","html-keyboard-response","108","181061","0.0-1.0-150.0-0.0","0","0","76415","","null","","","null","16","","","","","","","","","","","","","","","",""
"","ITI","","html-keyboard-response","109","182064","0.0-1.0-153.0","0","0","76415","","null","","","null","16","","","","","","","","","","","","","","","NaN",""
"","S1","","html-keyboard-response","110","182318","0.0-1.0-155.0","0","0","76415","","null","","","null","17","","","","","","","","","","","","","","","",""
"","ISI","","html-keyboard-response","111","182477","0.0-1.0-156.0","0","0","76415","","null","","","null","17","NaN","","","","","","","","","","","","","","",""
"","S2","","html-keyboard-response","112","182728","0.0-1.0-157.0","0","0","76415","","246","","","75","17","","k","1","17","training","adjacent","ED","5","4","O.jpg","M.jpg","1","0","0","",""
"","feedback","","html-keyboard-response","113","183733","0.0-1.0-159.0-0.0","0","0","76415","","null","","","null","17","","","","","","","","","","","","","","","",""
"","time_out","","html-keyboard-response","114","185737","0.0-1.0-161.0-0.0","0","0","76415","","null","","","null","17","","","","","","","","","","","","","","","",""
"","ITI","","html-keyboard-response","115","186740","0.0-1.0-162.0","0","0","76415","","null","","","null","17","","","","","","","","","","","","","","","NaN",""
"","S1","","html-keyboard-response","116","186995","0.0-1.0-164.0","0","0","76415","","null","","","null","18","","","","","","","","","","","","","","","",""
"","ISI","","html-keyboard-response","117","187150","0.0-1.0-165.0","0","0","76415","","null","","","null","18","NaN","","","","","","","","","","","","","","",""
"","S2","","html-keyboard-response","118","187339","0.0-1.0-166.0","0","0","76415","","186","","","68","18","","d","1","18","training","adjacent","FG","6","7","Q.jpg","P.jpg","0","1","0","",""
"","feedback","","html-keyboard-response","119","188343","0.0-1.0-168.0-0.0","0","0","76415","","null","","","null","18","","","","","","","","","","","","","","","",""
"","time_out","","html-keyboard-response","120","190347","0.0-1.0-170.0-0.0","0","0","76415","","null","","","null","18","","","","","","","","","","","","","","","",""
"","ITI","","html-keyboard-response","121","191351","0.0-1.0-171.0","0","0","76415","","null","","","null","18","","","","","","","","","","","","","","","NaN",""
"","S1","","html-keyboard-response","122","191606","0.0-1.0-173.0","0","0","76415","","null","","","null","19","","","","","","","","","","","","","","","",""
"","ISI","","html-keyboard-response","123","191761","0.0-1.0-174.0","0","0","76415","","null","","","null","19","NaN","","","","","","","","","","","","","","",""
"","S2","","html-keyboard-response","124","191918","0.0-1.0-175.0","0","0","76415","","153","","","75","19","","k","1","19","training","adjacent","FE","6","5","Q.jpg","O.jpg","1","0","0","",""
"","feedback","","html-keyboard-response","125","192923","0.0-1.0-177.0-0.0","0","0","76415","","null","","","null","19","","","","","","","","","","","","","","","",""
"","time_out","","html-keyboard-response","126","194927","0.0-1.0-179.0-0.0","0","0","76415","","null","","","null","19","","","","","","","","","","","","","","","",""
"","ITI","","html-keyboard-response","127","195932","0.0-1.0-180.0","0","0","76415","","null","","","null","19","","","","","","","","","","","","","","","NaN",""
"","S1","","html-keyboard-response","128","196186","0.0-1.0-182.0","0","0","76415","","null","","","null","20","","","","","","","","","","","","","","","",""
"","ISI","","html-keyboard-response","129","196341","0.0-1.0-183.0","0","0","76415","","null","","","null","20","NaN","","","","","","","","","","","","","","",""
"","S2","","html-keyboard-response","130","196440","0.0-1.0-184.0","0","0","76415","","96","","","68","20","","d","1","20","training","adjacent","BC","2","3","R.jpg","N.jpg","0","1","0","",""
"","feedback","","html-keyboard-response","131","197445","0.0-1.0-186.0-0.0","0","0","76415","","null","","","null","20","","","","","","","","","","","","","","","",""
"","time_out","","html-keyboard-response","132","199450","0.0-1.0-188.0-0.0","0","0","76415","","null","","","null","20","","","","","","","","","","","","","","","",""
"","ITI","","html-keyboard-response","133","200455","0.0-1.0-189.0","0","0","76415","","null","","","null","20","","","","","","","","","","","","","","","NaN",""
"","S1","","html-keyboard-response","134","200709","0.0-1.0-191.0","0","0","76415","","null","","","null","21","","","","","","","","","","","","","","","",""
"","ISI","","html-keyboard-response","135","200863","0.0-1.0-192.0","0","0","76415","","null","","","null","21","NaN","","","","","","","","","","","","","","",""
"","S2","","html-keyboard-response","136","201011","0.0-1.0-193.0","0","0","76415","","142","","","75","21","","k","1","21","training","adjacent","DC","4","3","M.jpg","N.jpg","1","0","0","",""
"","feedback","","html-keyboard-response","137","202015","0.0-1.0-195.0-0.0","0","0","76415","","null","","","null","21","","","","","","","","","","","","","","","",""
"","time_out","","html-keyboard-response","138","204018","0.0-1.0-197.0-0.0","0","0","76415","","null","","","null","21","","","","","","","","","","","","","","","",""
"","ITI","","html-keyboard-response","139","205023","0.0-1.0-198.0","0","0","76415","","null","","","null","21","","","","","","","","","","","","","","","NaN",""
"","S1","","html-keyboard-response","140","205277","0.0-1.0-200.0","0","0","76415","","null","","","null","22","","","","","","","","","","","","","","","",""
"","ISI","","html-keyboard-response","141","205431","0.0-1.0-201.0","0","0","76415","","null","","","null","22","NaN","","","","","","","","","","","","","","",""
"","S2","","html-keyboard-response","142","205587","0.0-1.0-202.0","0","0","76415","","153","","","75","22","","k","1","22","training","adjacent","BA","2","1","R.jpg","L.jpg","1","0","0","",""
"","feedback","","html-keyboard-response","143","206593","0.0-1.0-204.0-0.0","0","0","76415","","null","","","null","22","","","","","","","","","","","","","","","",""
"","time_out","","html-keyboard-response","144","208596","0.0-1.0-206.0-0.0","0","0","76415","","null","","","null","22","","","","","","","","","","","","","","","",""
"","ITI","","html-keyboard-response","145","209601","0.0-1.0-207.0","0","0","76415","","null","","","null","22","","","","","","","","","","","","","","","NaN",""
"","S1","","html-keyboard-response","146","209855","0.0-1.0-209.0","0","0","76415","","null","","","null","23","","","","","","","","","","","","","","","",""
"","ISI","","html-keyboard-response","147","210009","0.0-1.0-210.0","0","0","76415","","null","","","null","23","NaN","","","","","","","","","","","","","","",""
"","S2","","html-keyboard-response","148","210264","0.0-1.0-211.0","0","0","76415","","null","","","null","23","","NaN","","","","","","","","","","","","","",""
"","response","","html-keyboard-response","149","210298","0.0-1.0-212.0-0.0","0","0","76415","","31","","","68","23","","","1","23","training","adjacent","DE","4","5","M.jpg","O.jpg","0","1","0","",""
"","feedback","","html-keyboard-response","150","211303","0.0-1.0-213.0-0.0","0","0","76415","","null","","","null","23","","","","","","","","","","","","","","","",""
"","time_out","","html-keyboard-response","151","213307","0.0-1.0-215.0-0.0","0","0","76415","","null","","","null","23","","","","","","","","","","","","","","","",""
"","ITI","","html-keyboard-response","152","214312","0.0-1.0-216.0","0","0","76415","","null","","","null","23","","","","","","","","","","","","","","","NaN",""
"","S1","","html-keyboard-response","153","214567","0.0-1.0-218.0","0","0","76415","","null","","","null","24","","","","","","","","","","","","","","","",""
"","ISI","","html-keyboard-response","154","214721","0.0-1.0-219.0","0","0","76415","","null","","","null","24","NaN","","","","","","","","","","","","","","",""
"","S2","","html-keyboard-response","155","214917","0.0-1.0-220.0","0","0","76415","","193","","","68","24","","d","1","24","training","adjacent","AB","1","2","L.jpg","R.jpg","0","1","0","",""
"","feedback","","html-keyboard-response","156","215922","0.0-1.0-222.0-0.0","0","0","76415","","null","","","null","24","","","","","","","","","","","","","","","",""
"","time_out","","html-keyboard-response","157","217926","0.0-1.0-224.0-0.0","0","0","76415","","null","","","null","24","","","","","","","","","","","","","","","",""
"","ITI","","html-keyboard-response","158","218930","0.0-1.0-225.0","0","0","76415","","null","","","null","24","","","","","","","","","","","","","","","NaN",""
"","S1","","html-keyboard-response","159","219185","0.0-1.0-227.0","0","0","76415","","null","","","null","25","","","","","","","","","","","","","","","",""
"","ISI","","html-keyboard-response","160","219339","0.0-1.0-228.0","0","0","76415","","null","","","null","25","NaN","","","","","","","","","","","","","","",""
"","S2","","html-keyboard-response","161","219590","0.0-1.0-229.0","0","0","76415","","248","","","68","25","","d","1","25","training","adjacent","BA","2","1","R.jpg","L.jpg","0","0","1","",""
"","feedback","","html-keyboard-response","162","220595","0.0-1.0-231.0-0.0","0","0","76415","","null","","","null","25","","","","","","","","","","","","","","","",""
"","ITI","","html-keyboard-response","163","221600","0.0-1.0-234.0","0","0","76415","","null","","","null","25","","","","","","","","","","","","","","","NaN",""
"","S1","","html-keyboard-response","164","221854","0.0-1.0-236.0","0","0","76415","","null","","","null","26","","","","","","","","","","","","","","","",""
"","ISI","","html-keyboard-response","165","222009","0.0-1.0-237.0","0","0","76415","","null","","","null","26","NaN","","","","","","","","","","","","","","",""
"","S2","","html-keyboard-response","166","222264","0.0-1.0-238.0","0","0","76415","","null","","","null","26","","NaN","","","","","","","","","","","","","",""
"","response","","html-keyboard-response","167","222455","0.0-1.0-239.0-0.0","0","0","76415","","188","","","68","26","","","1","26","training","adjacent","ED","5","4","O.jpg","M.jpg","0","0","1","",""
"","feedback","","html-keyboard-response","168","223460","0.0-1.0-240.0-0.0","0","0","76415","","null","","","null","26","","","","","","","","","","","","","","","",""
"","ITI","","html-keyboard-response","169","224463","0.0-1.0-243.0","0","0","76415","","null","","","null","26","","","","","","","","","","","","","","","NaN",""
"","S1","","html-keyboard-response","170","224718","0.0-1.0-245.0","0","0","76415","","null","","","null","27","","","","","","","","","","","","","","","",""
"","ISI","","html-keyboard-response","171","224871","0.0-1.0-246.0","0","0","76415","","null","","","null","27","NaN","","","","","","","","","","","","","","",""
"","S2","","html-keyboard-response","172","225126","0.0-1.0-247.0","0","0","76415","","null","","","null","27","","NaN","","","","","","","","","","","","","",""
"","response","","html-keyboard-response","173","225986","0.0-1.0-248.0-0.0","0","0","76415","","857","","","68","27","","","1","27","training","adjacent","BC","2","3","R.jpg","N.jpg","0","1","0","",""
"","feedback","","html-keyboard-response","174","226989","0.0-1.0-249.0-0.0","0","0","76415","","null","","","null","27","","","","","","","","","","","","","","","",""
"","time_out","","html-keyboard-response","175","228994","0.0-1.0-251.0-0.0","0","0","76415","","null","","","null","27","","","","","","","","","","","","","","","",""
"","ITI","","html-keyboard-response","176","229998","0.0-1.0-252.0","0","0","76415","","null","","","null","27","","","","","","","","","","","","","","","NaN",""
"","S1","","html-keyboard-response","177","230250","0.0-1.0-254.0","0","0","76415","","null","","","null","28","","","","","","","","","","","","","","","",""
"","ISI","","html-keyboard-response","178","230403","0.0-1.0-255.0","0","0","76415","","null","","","null","28","NaN","","","","","","","","","","","","","","",""
"","S2","","html-keyboard-response","179","230656","0.0-1.0-256.0","0","0","76415","","null","","","null","28","","NaN","","","","","","","","","","","","","",""
"","response","","html-keyboard-response","180","230738","0.0-1.0-257.0-0.0","0","0","76415","","78","","","75","28","","","1","28","training","adjacent","EF","5","6","O.jpg","Q.jpg","1","1","1","",""
"","feedback","","html-keyboard-response","181","231743","0.0-1.0-258.0-0.0","0","0","76415","","null","","","null","28","","","","","","","","","","","","","","","",""
"","ITI","","html-keyboard-response","182","232747","0.0-1.0-261.0","0","0","76415","","null","","","null","28","","","","","","","","","","","","","","","NaN",""
"","S1","","html-keyboard-response","183","233000","0.0-1.0-263.0","0","0","76415","","null","","","null","29","","","","","","","","","","","","","","","",""
"","ISI","","html-keyboard-response","184","233153","0.0-1.0-264.0","0","0","76415","","null","","","null","29","NaN","","","","","","","","","","","","","","",""
"","S2","","html-keyboard-response","185","233408","0.0-1.0-265.0","0","0","76415","","null","","","null","29","","NaN","","","","","","","","","","","","","",""
"","response","","html-keyboard-response","186","233833","0.0-1.0-266.0-0.0","0","0","76415","","423","","","68","29","","","1","29","training","adjacent","BA","2","1","R.jpg","L.jpg","0","0","1","",""
"","feedback","","html-keyboard-response","187","234837","0.0-1.0-267.0-0.0","0","0","76415","","null","","","null","29","","","","","","","","","","","","","","","",""
"","ITI","","html-keyboard-response","188","235842","0.0-1.0-270.0","0","0","76415","","null","","","null","29","","","","","","","","","","","","","","","NaN",""
"","S1","","html-keyboard-response","189","236096","0.0-1.0-272.0","0","0","76415","","null","","","null","30","","","","","","","","","","","","","","","",""
"","ISI","","html-keyboard-response","190","236250","0.0-1.0-273.0","0","0","76415","","null","","","null","30","NaN","","","","","","","","","","","","","","",""
"","S2","","html-keyboard-response","191","236505","0.0-1.0-274.0","0","0","76415","","null","","","null","30","","NaN","","","","","","","","","","","","","",""
"","response","","html-keyboard-response","192","236923","0.0-1.0-275.0-0.0","0","0","76415","","414","","","75","30","","","1","30","training","adjacent","BC","2","3","R.jpg","N.jpg","1","1","1","",""
"","feedback","","html-keyboard-response","193","237928","0.0-1.0-276.0-0.0","0","0","76415","","null","","","null","30","","","","","","","","","","","","","","","",""
"","ITI","","html-keyboard-response","194","238932","0.0-1.0-279.0","0","0","76415","","null","","","null","30","","","","","","","","","","","","","","","NaN",""
"","S1","","html-keyboard-response","195","239187","0.0-1.0-281.0","0","0","76415","","null","","","null","31","","","","","","","","","","","","","","","",""
"","ISI","","html-keyboard-response","196","239341","0.0-1.0-282.0","0","0","76415","","null","","","null","31","NaN","","","","","","","","","","","","","","",""
"","S2","","html-keyboard-response","197","239596","0.0-1.0-283.0","0","0","76415","","null","","","null","31","","NaN","","","","","","","","","","","","","",""
"","response","","html-keyboard-response","198","240121","0.0-1.0-284.0-0.0","0","0","76415","","523","","","68","31","","","1","31","training","adjacent","FG","6","7","Q.jpg","P.jpg","0","1","0","",""
"","feedback","","html-keyboard-response","199","241126","0.0-1.0-285.0-0.0","0","0","76415","","null","","","null","31","","","","","","","","","","","","","","","",""
"","time_out","","html-keyboard-response","200","243130","0.0-1.0-287.0-0.0","0","0","76415","","null","","","null","31","","","","","","","","","","","","","","","",""
"","ITI","","html-keyboard-response","201","244134","0.0-1.0-288.0","0","0","76415","","null","","","null","31","","","","","","","","","","","","","","","NaN",""
"","S1","","html-keyboard-response","202","244389","0.0-1.0-290.0","0","0","76415","","null","","","null","32","","","","","","","","","","","","","","","",""
"","ISI","","html-keyboard-response","203","244544","0.0-1.0-291.0","0","0","76415","","null","","","null","32","NaN","","","","","","","","","","","","","","",""
"","S2","","html-keyboard-response","204","244798","0.0-1.0-292.0","0","0","76415","","null","","","null","32","","NaN","","","","","","","","","","","","","",""
"","response","","html-keyboard-response","205","244823","0.0-1.0-293.0-0.0","0","0","76415","","23","","","68","32","","","1","32","training","adjacent","BA","2","1","R.jpg","L.jpg","0","0","1","",""
"","feedback","","html-keyboard-response","206","245828","0.0-1.0-294.0-0.0","0","0","76415","","null","","","null","32","","","","","","","","","","","","","","","",""
"","ITI","","html-keyboard-response","207","246833","0.0-1.0-297.0","0","0","76415","","null","","","null","32","","","","","","","","","","","","","","","NaN",""
"","S1","","html-keyboard-response","208","247088","0.0-1.0-299.0","0","0","76415","","null","","","null","33","","","","","","","","","","","","","","","",""
"","ISI","","html-keyboard-response","209","247242","0.0-1.0-300.0","0","0","76415","","151","","","75","33","k","","","","","","","","","","","","","","",""
"","S2","","html-keyboard-response","210","247497","0.0-1.0-301.0","0","0","76415","","null","","","null","33","","NaN","","","","","","","","","","","","","",""
"","response","","html-keyboard-response","211","247740","0.0-1.0-302.0-0.0","0","0","76415","","239","","","75","33","","","1","33","training","adjacent","DE","4","5","M.jpg","O.jpg","1","1","1","",""
"","feedback","","html-keyboard-response","212","248746","0.0-1.0-303.0-0.0","0","0","76415","","null","","","null","33","","","","","","","","","","","","","","","",""
"","ITI","","html-keyboard-response","213","249750","0.0-1.0-306.0","0","0","76415","","null","","","null","33","","","","","","","","","","","","","","","NaN",""
"","S1","","html-keyboard-response","214","250004","0.0-1.0-308.0","0","0","76415","","null","","","null","34","","","","","","","","","","","","","","","",""
"","ISI","","html-keyboard-response","215","250159","0.0-1.0-309.0","0","0","76415","","null","","","null","34","NaN","","","","","","","","","","","","","","",""
"","S2","","html-keyboard-response","216","250414","0.0-1.0-310.0","0","0","76415","","null","","","null","34","","NaN","","","","","","","","","","","","","",""
"","response","","html-keyboard-response","217","250562","0.0-1.0-311.0-0.0","0","0","76415","","144","","","75","34","","","1","34","training","adjacent","FE","6","5","Q.jpg","O.jpg","1","0","0","",""
"","feedback","","html-keyboard-response","218","251566","0.0-1.0-312.0-0.0","0","0","76415","","null","","","null","34","","","","","","","","","","","","","","","",""
"","time_out","","html-keyboard-response","219","253569","0.0-1.0-314.0-0.0","0","0","76415","","null","","","null","34","","","","","","","","","","","","","","","",""
"","ITI","","html-keyboard-response","220","254573","0.0-1.0-315.0","0","0","76415","","null","","","null","34","","","","","","","","","","","","","","","NaN",""
"","S1","","html-keyboard-response","221","254828","0.0-1.0-317.0","0","0","76415","","null","","","null","35","","","","","","","","","","","","","","","",""
"","ISI","","html-keyboard-response","222","254982","0.0-1.0-318.0","0","0","76415","","null","","","null","35","NaN","","","","","","","","","","","","","","",""
"","S2","","html-keyboard-response","223","255179","0.0-1.0-319.0","0","0","76415","","194","","","75","35","","k","1","35","training","adjacent","FG","6","7","Q.jpg","P.jpg","1","1","1","",""
"","feedback","","html-keyboard-response","224","256185","0.0-1.0-321.0-0.0","0","0","76415","","null","","","null","35","","","","","","","","","","","","","","","",""
"","ITI","","html-keyboard-response","225","257189","0.0-1.0-324.0","0","0","76415","","null","","","null","35","","","","","","","","","","","","","","","NaN",""
"","S1","","html-keyboard-response","226","257443","0.0-1.0-326.0","0","0","76415","","null","","","null","36","","","","","","","","","","","","","","","",""
"","ISI","","html-keyboard-response","227","257597","0.0-1.0-327.0","0","0","76415","","134","","","68","36","d","","","","","","","","","","","","","","",""
"","S2","","html-keyboard-response","228","257851","0.0-1.0-328.0","0","0","76415","","null","","","null","36","","NaN","","","","","","","","","","","","","",""
"","response","","html-keyboard-response","229","257966","0.0-1.0-329.0-0.0","0","0","76415","","110","","","68","36","","","1","36","training","adjacent","ED","5","4","O.jpg","M.jpg","0","0","1","",""
"","feedback","","html-keyboard-response","230","258970","0.0-1.0-330.0-0.0","0","0","76415","","null","","","null","36","","","","","","","","","","","","","","","",""
"","ITI","","html-keyboard-response","231","259975","0.0-1.0-333.0","0","0","76415","","null","","","null","36","","","","","","","","","","","","","","","NaN",""
"","S1","","html-keyboard-response","232","260230","0.0-1.0-335.0","0","0","76415","","null","","","null","37","","","","","","","","","","","","","","","",""
"","ISI","","html-keyboard-response","233","260384","0.0-1.0-336.0","0","0","76415","","null","","","null","37","NaN","","","","","","","","","","","","","","",""
"","S2","","html-keyboard-response","234","260638","0.0-1.0-337.0","0","0","76415","","null","","","null","37","","NaN","","","","","","","","","","","","","",""
"","response","","html-keyboard-response","235","261070","0.0-1.0-338.0-0.0","0","0","76415","","429","","","68","37","","","1","37","training","adjacent","DC","4","3","M.jpg","N.jpg","0","0","1","",""
"","feedback","","html-keyboard-response","236","262075","0.0-1.0-339.0-0.0","0","0","76415","","null","","","null","37","","","","","","","","","","","","","","","",""
"","ITI","","html-keyboard-response","237","263079","0.0-1.0-342.0","0","0","76415","","null","","","null","37","","","","","","","","","","","","","","","NaN",""
"","S1","","html-keyboard-response","238","263335","0.0-1.0-344.0","0","0","76415","","null","","","null","38","","","","","","","","","","","","","","","",""
"","ISI","","html-keyboard-response","239","263488","0.0-1.0-345.0","0","0","76415","","null","","","null","38","NaN","","","","","","","","","","","","","","",""
"","S2","","html-keyboard-response","240","263744","0.0-1.0-346.0","0","0","76415","","null","","","null","38","","NaN","","","","","","","","","","","","","",""
"","response","","html-keyboard-response","241","264071","0.0-1.0-347.0-0.0","0","0","76415","","323","","","75","38","","","1","38","training","adjacent","DE","4","5","M.jpg","O.jpg","1","1","1","",""
"","feedback","","html-keyboard-response","242","265076","0.0-1.0-348.0-0.0","0","0","76415","","null","","","null","38","","","","","","","","","","","","","","","",""
"","ITI","","html-keyboard-response","243","266081","0.0-1.0-351.0","0","0","76415","","null","","","null","38","","","","","","","","","","","","","","","NaN",""
"","S1","","html-keyboard-response","244","266334","0.0-1.0-353.0","0","0","76415","","null","","","null","39","","","","","","","","","","","","","","","",""
"","ISI","","html-keyboard-response","245","266489","0.0-1.0-354.0","0","0","76415","","null","","","null","39","NaN","","","","","","","","","","","","","","",""
"","S2","","html-keyboard-response","246","266743","0.0-1.0-355.0","0","0","76415","","null","","","null","39","","NaN","","","","","","","","","","","","","",""
"","response","","html-keyboard-response","247","267167","0.0-1.0-356.0-0.0","0","0","76415","","420","","","68","39","","","1","39","training","adjacent","CB","3","2","N.jpg","R.jpg","0","0","1","",""
"","feedback","","html-keyboard-response","248","268172","0.0-1.0-357.0-0.0","0","0","76415","","null","","","null","39","","","","","","","","","","","","","","","",""
"","ITI","","html-keyboard-response","249","269176","0.0-1.0-360.0","0","0","76415","","null","","","null","39","","","","","","","","","","","","","","","NaN",""
"","S1","","html-keyboard-response","250","269431","0.0-1.0-362.0","0","0","76415","","null","","","null","40","","","","","","","","","","","","","","","",""
"","ISI","","html-keyboard-response","251","269588","0.0-1.0-363.0","0","0","76415","","null","","","null","40","NaN","","","","","","","","","","","","","","",""
"","S2","","html-keyboard-response","252","269843","0.0-1.0-364.0","0","0","76415","","null","","","null","40","","NaN","","","","","","","","","","","","","",""
"","response","","html-keyboard-response","253","270277","0.0-1.0-365.0-0.0","0","0","76415","","431","","","75","40","","","1","40","training","adjacent","DE","4","5","M.jpg","O.jpg","1","1","1","",""
"","feedback","","html-keyboard-response","254","271282","0.0-1.0-366.0-0.0","0","0","76415","","null","","","null","40","","","","","","","","","","","","","","","",""
"","ITI","","html-keyboard-response","255","272288","0.0-1.0-369.0","0","0","76415","","null","","","null","40","","","","","","","","","","","","","","","NaN",""
"","S1","","html-keyboard-response","256","272542","0.0-1.0-371.0","0","0","76415","","null","","","null","41","","","","","","","","","","","","","","","",""
"","ISI","","html-keyboard-response","257","272698","0.0-1.0-372.0","0","0","76415","","null","","","null","41","NaN","","","","","","","","","","","","","","",""
"","S2","","html-keyboard-response","258","272954","0.0-1.0-373.0","0","0","76415","","null","","","null","41","","NaN","","","","","","","","","","","","","",""
"","response","","html-keyboard-response","259","273262","0.0-1.0-374.0-0.0","0","0","76415","","304","","","75","41","","","1","41","training","adjacent","CB","3","2","N.jpg","R.jpg","1","0","0","",""
"","feedback","","html-keyboard-response","260","274267","0.0-1.0-375.0-0.0","0","0","76415","","null","","","null","41","","","","","","","","","","","","","","","",""
"","time_out","","html-keyboard-response","261","276271","0.0-1.0-377.0-0.0","0","0","76415","","null","","","null","41","","","","","","","","","","","","","","","",""
"","ITI","","html-keyboard-response","262","277276","0.0-1.0-378.0","0","0","76415","","null","","","null","41","","","","","","","","","","","","","","","NaN",""
"","S1","","html-keyboard-response","263","277531","0.0-1.0-380.0","0","0","76415","","null","","","null","42","","","","","","","","","","","","","","","",""
"","ISI","","html-keyboard-response","264","277685","0.0-1.0-381.0","0","0","76415","","null","","","null","42","NaN","","","","","","","","","","","","","","",""
"","S2","","html-keyboard-response","265","277940","0.0-1.0-382.0","0","0","76415","","null","","","null","42","","NaN","","","","","","","","","","","","","",""
"","response","","html-keyboard-response","266","278009","0.0-1.0-383.0-0.0","0","0","76415","","66","","","68","42","","","1","42","training","adjacent","BC","2","3","R.jpg","N.jpg","0","1","0","",""
"","feedback","","html-keyboard-response","267","279014","0.0-1.0-384.0-0.0","0","0","76415","","null","","","null","42","","","","","","","","","","","","","","","",""
"","time_out","","html-keyboard-response","268","281018","0.0-1.0-386.0-0.0","0","0","76415","","null","","","null","42","","","","","","","","","","","","","","","",""
"","ITI","","html-keyboard-response","269","282022","0.0-1.0-387.0","0","0","76415","","null","","","null","42","","","","","","","","","","","","","","","NaN",""
"","S1","","html-keyboard-response","270","282276","0.0-1.0-389.0","0","0","76415","","null","","","null","43","","","","","","","","","","","","","","","",""
"","ISI","","html-keyboard-response","271","282430","0.0-1.0-390.0","0","0","76415","","null","","","null","43","NaN","","","","","","","","","","","","","","",""
"","S2","","html-keyboard-response","272","282652","0.0-1.0-391.0","0","0","76415","","217","","","75","43","","k","1","43","training","adjacent","CD","3","4","N.jpg","M.jpg","1","1","1","",""
"","feedback","","html-keyboard-response","273","283657","0.0-1.0-393.0-0.0","0","0","76415","","null","","","null","43","","","","","","","","","","","","","","","",""
"","ITI","","html-keyboard-response","274","284662","0.0-1.0-396.0","0","0","76415","","null","","","null","43","","","","","","","","","","","","","","","NaN",""
"","S1","","html-keyboard-response","275","284928","0.0-1.0-398.0","0","0","76415","","null","","","null","44","","","","","","","","","","","","","","","",""
"","ISI","","html-keyboard-response","276","285083","0.0-1.0-399.0","0","0","76415","","null","","","null","44","NaN","","","","","","","","","","","","","","",""
"","S2","","html-keyboard-response","277","285337","0.0-1.0-400.0","0","0","76415","","null","","","null","44","","NaN","","","","","","","","","","","","","",""
"","response","","html-keyboard-response","278","285474","0.0-1.0-401.0-0.0","0","0","76415","","133","","","75","44","","","1","44","training","adjacent","DC","4","3","M.jpg","N.jpg","1","0","0","",""
"","feedback","","html-keyboard-response","279","286478","0.0-1.0-402.0-0.0","0","0","76415","","null","","","null","44","","","","","","","","","","","","","","","",""
"","time_out","","html-keyboard-response","280","288483","0.0-1.0-404.0-0.0","0","0","76415","","null","","","null","44","","","","","","","","","","","","","","","",""
"","ITI","","html-keyboard-response","281","289487","0.0-1.0-405.0","0","0","76415","","null","","","null","44","","","","","","","","","","","","","","","NaN",""
"","S1","","html-keyboard-response","282","289742","0.0-1.0-407.0","0","0","76415","","null","","","null","45","","","","","","","","","","","","","","","",""
"","ISI","","html-keyboard-response","283","289896","0.0-1.0-408.0","0","0","76415","","null","","","null","45","NaN","","","","","","","","","","","","","","",""
"","S2","","html-keyboard-response","284","290096","0.0-1.0-409.0","0","0","76415","","196","","","68","45","","d","1","45","training","adjacent","DC","4","3","M.jpg","N.jpg","0","0","1","",""
"","feedback","","html-keyboard-response","285","291105","0.0-1.0-411.0-0.0","0","0","76415","","null","","","null","45","","","","","","","","","","","","","","","",""
"","ITI","","html-keyboard-response","286","292110","0.0-1.0-414.0","0","0","76415","","null","","","null","45","","","","","","","","","","","","","","","NaN",""
"","S1","","html-keyboard-response","287","292364","0.0-1.0-416.0","0","0","76415","","null","","","null","46","","","","","","","","","","","","","","","",""
"","ISI","","html-keyboard-response","288","292519","0.0-1.0-417.0","0","0","76415","","null","","","null","46","NaN","","","","","","","","","","","","","","",""
"","S2","","html-keyboard-response","289","292766","0.0-1.0-418.0","0","0","76415","","244","","","75","46","","k","1","46","training","adjacent","EF","5","6","O.jpg","Q.jpg","1","1","1","",""
"","feedback","","html-keyboard-response","290","293771","0.0-1.0-420.0-0.0","0","0","76415","","null","","","null","46","","","","","","","","","","","","","","","",""
"","ITI","","html-keyboard-response","291","294776","0.0-1.0-423.0","0","0","76415","","null","","","null","46","","","","","","","","","","","","","","","NaN",""
"","S1","","html-keyboard-response","292","295030","0.0-1.0-425.0","0","0","76415","","null","","","null","47","","","","","","","","","","","","","","","",""
"","ISI","","html-keyboard-response","293","295184","0.0-1.0-426.0","0","0","76415","","null","","","null","47","NaN","","","","","","","","","","","","","","",""
"","S2","","html-keyboard-response","294","295438","0.0-1.0-427.0","0","0","76415","","null","","","null","47","","NaN","","","","","","","","","","","","","",""
"","response","","html-keyboard-response","295","295469","0.0-1.0-428.0-0.0","0","0","76415","","29","","","75","47","","","1","47","training","adjacent","GF","7","6","P.jpg","Q.jpg","1","0","0","",""
"","feedback","","html-keyboard-response","296","296473","0.0-1.0-429.0-0.0","0","0","76415","","null","","","null","47","","","","","","","","","","","","","","","",""
"","time_out","","html-keyboard-response","297","298478","0.0-1.0-431.0-0.0","0","0","76415","","null","","","null","47","","","","","","","","","","","","","","","",""
"","ITI","","html-keyboard-response","298","299482","0.0-1.0-432.0","0","0","76415","","null","","","null","47","","","","","","","","","","","","","","","NaN",""
"","block_over","","html-keyboard-response","299","303465","0.0-1.0-433.0-0.0","0","0","76415","","3979","","","32","47","","","","","","","","","","","","","","","",""
"","S1","","html-keyboard-response","300","303720","0.0-1.0-434.0","0","0","76415","","null","","","null","48","","","","","","","","","","","","","","","",""
"","ISI","","html-keyboard-response","301","303874","0.0-1.0-435.0","0","0","76415","","null","","","null","48","NaN","","","","","","","","","","","","","","",""
"","S2","","html-keyboard-response","302","304129","0.0-1.0-436.0","0","0","76415","","null","","","null","48","","NaN","","","","","","","","","","","","","",""
"","response","","html-keyboard-response","303","304155","0.0-1.0-437.0-0.0","0","0","76415","","24","","","68","48","","","2","48","training","adjacent","FE","6","5","Q.jpg","O.jpg","0","0","1","",""
"","feedback","","html-keyboard-response","304","305159","0.0-1.0-438.0-0.0","0","0","76415","","null","","","null","48","","","","","","","","","","","","","","","",""
"","ITI","","html-keyboard-response","305","306164","0.0-1.0-441.0","0","0","76415","","null","","","null","48","","","","","","","","","","","","","","","NaN",""
"","S1","","html-keyboard-response","306","306419","0.0-1.0-443.0","0","0","76415","","null","","","null","49","","","","","","","","","","","","","","","",""
"","ISI","","html-keyboard-response","307","306574","0.0-1.0-444.0","0","0","76415","","null","","","null","49","NaN","","","","","","","","","","","","","","",""
"","S2","","html-keyboard-response","308","306815","0.0-1.0-445.0","0","0","76415","","238","","","68","49","","d","2","49","training","adjacent","AB","1","2","L.jpg","R.jpg","0","1","0","",""
"","feedback","","html-keyboard-response","309","307820","0.0-1.0-447.0-0.0","0","0","76415","","null","","","null","49","","","","","","","","","","","","","","","",""
"","time_out","","html-keyboard-response","310","309825","0.0-1.0-449.0-0.0","0","0","76415","","null","","","null","49","","","","","","","","","","","","","","","",""
"","ITI","","html-keyboard-response","311","310829","0.0-1.0-450.0","0","0","76415","","null","","","null","49","","","","","","","","","","","","","","","NaN",""
"","S1","","html-keyboard-response","312","311083","0.0-1.0-452.0","0","0","76415","","null","","","null","50","","","","","","","","","","","","","","","",""
"","ISI","","html-keyboard-response","313","311238","0.0-1.0-453.0","0","0","76415","","null","","","null","50","NaN","","","","","","","","","","","","","","",""
"","S2","","html-keyboard-response","314","311493","0.0-1.0-454.0","0","0","76415","","null","","","null","50","","NaN","","","","","","","","","","","","","",""
"","response","","html-keyboard-response","315","311522","0.0-1.0-455.0-0.0","0","0","76415","","25","","","75","50","","","2","50","training","adjacent","CD","3","4","N.jpg","M.jpg","1","1","1","",""
"","feedback","","html-keyboard-response","316","312528","0.0-1.0-456.0-0.0","0","0","76415","","null","","","null","50","","","","","","","","","","","","","","","",""
"","ITI","","html-keyboard-response","317","313533","0.0-1.0-459.0","0","0","76415","","null","","","null","50","","","","","","","","","","","","","","","NaN",""
"","S1","","html-keyboard-response","318","313787","0.0-1.0-461.0","0","0","76415","","null","","","null","51","","","","","","","","","","","","","","","",""
"","ISI","","html-keyboard-response","319","313942","0.0-1.0-462.0","0","0","76415","","null","","","null","51","NaN","","","","","","","","","","","","","","",""
"","S2","","html-keyboard-response","320","314196","0.0-1.0-463.0","0","0","76415","","null","","","null","51","","NaN","","","","","","","","","","","","","",""
"","response","","html-keyboard-response","321","314503","0.0-1.0-464.0-0.0","0","0","76415","","304","","","68","51","","","2","51","training","adjacent","FG","6","7","Q.jpg","P.jpg","0","1","0","",""
"","feedback","","html-keyboard-response","322","315508","0.0-1.0-465.0-0.0","0","0","76415","","null","","","null","51","","","","","","","","","","","","","","","",""
"","time_out","","html-keyboard-response","323","317512","0.0-1.0-467.0-0.0","0","0","76415","","null","","","null","51","","","","","","","","","","","","","","","",""
"","ITI","","html-keyboard-response","324","318518","0.0-1.0-468.0","0","0","76415","","null","","","null","51","","","","","","","","","","","","","","","NaN",""
"","S1","","html-keyboard-response","325","318772","0.0-1.0-470.0","0","0","76415","","null","","","null","52","","","","","","","","","","","","","","","",""
"","ISI","","html-keyboard-response","326","318930","0.0-1.0-471.0","0","0","76415","","null","","","null","52","NaN","","","","","","","","","","","","","","",""
"","S2","","html-keyboard-response","327","319184","0.0-1.0-472.0","0","0","76415","","null","","","null","52","","NaN","","","","","","","","","","","","","",""
"","response","","html-keyboard-response","328","319221","0.0-1.0-473.0-0.0","0","0","76415","","33","","","68","52","","","2","52","training","adjacent","FE","6","5","Q.jpg","O.jpg","0","0","1","",""
"","feedback","","html-keyboard-response","329","320225","0.0-1.0-474.0-0.0","0","0","76415","","null","","","null","52","","","","","","","","","","","","","","","",""
"","ITI","","html-keyboard-response","330","321227","0.0-1.0-477.0","0","0","76415","","null","","","null","52","","","","","","","","","","","","","","","NaN",""
"","S1","","html-keyboard-response","331","321481","0.0-1.0-479.0","0","0","76415","","null","","","null","53","","","","","","","","","","","","","","","",""
"","ISI","","html-keyboard-response","332","321636","0.0-1.0-480.0","0","0","76415","","null","","","null","53","NaN","","","","","","","","","","","","","","",""
"","S2","","html-keyboard-response","333","321890","0.0-1.0-481.0","0","0","76415","","null","","","null","53","","NaN","","","","","","","","","","","","","",""
"","response","","html-keyboard-response","334","321968","0.0-1.0-482.0-0.0","0","0","76415","","74","","","75","53","","","2","53","training","adjacent","BA","2","1","R.jpg","L.jpg","1","0","0","",""
"","feedback","","html-keyboard-response","335","322973","0.0-1.0-483.0-0.0","0","0","76415","","null","","","null","53","","","","","","","","","","","","","","","",""
"","time_out","","html-keyboard-response","336","324977","0.0-1.0-485.0-0.0","0","0","76415","","null","","","null","53","","","","","","","","","","","","","","","",""
"","ITI","","html-keyboard-response","337","325981","0.0-1.0-486.0","0","0","76415","","null","","","null","53","","","","","","","","","","","","","","","NaN",""
"","S1","","html-keyboard-response","338","326235","0.0-1.0-488.0","0","0","76415","","null","","","null","54","","","","","","","","","","","","","","","",""
"","ISI","","html-keyboard-response","339","326389","0.0-1.0-489.0","0","0","76415","","37","","","68","54","d","","","","","","","","","","","","","","",""
"","S2","","html-keyboard-response","340","326644","0.0-1.0-490.0","0","0","76415","","null","","","null","54","","NaN","","","","","","","","","","","","","",""
"","response","","html-keyboard-response","341","326743","0.0-1.0-491.0-0.0","0","0","76415","","96","","","68","54","","","2","54","training","adjacent","AB","1","2","L.jpg","R.jpg","0","1","0","",""
"","feedback","","html-keyboard-response","342","327748","0.0-1.0-492.0-0.0","0","0","76415","","null","","","null","54","","","","","","","","","","","","","","","",""
"","time_out","","html-keyboard-response","343","329753","0.0-1.0-494.0-0.0","0","0","76415","","null","","","null","54","","","","","","","","","","","","","","","",""
"","ITI","","html-keyboard-response","344","330756","0.0-1.0-495.0","0","0","76415","","null","","","null","54","","","","","","","","","","","","","","","NaN",""
"","S1","","html-keyboard-response","345","331009","0.0-1.0-497.0","0","0","76415","","null","","","null","55","","","","","","","","","","","","","","","",""
"","ISI","","html-keyboard-response","346","331163","0.0-1.0-498.0","0","0","76415","","null","","","null","55","NaN","","","","","","","","","","","","","","",""
"","S2","","html-keyboard-response","347","331417","0.0-1.0-499.0","0","0","76415","","null","","","null","55","","NaN","","","","","","","","","","","","","",""
"","response","","html-keyboard-response","348","331601","0.0-1.0-500.0-0.0","0","0","76415","","181","","","75","55","","","2","55","training","adjacent","DE","4","5","M.jpg","O.jpg","1","1","1","",""
"","feedback","","html-keyboard-response","349","332607","0.0-1.0-501.0-0.0","0","0","76415","","null","","","null","55","","","","","","","","","","","","","","","",""
"","ITI","","html-keyboard-response","350","333611","0.0-1.0-504.0","0","0","76415","","null","","","null","55","","","","","","","","","","","","","","","NaN",""
"","S1","","html-keyboard-response","351","333866","0.0-1.0-506.0","0","0","76415","","null","","","null","56","","","","","","","","","","","","","","","",""
"","ISI","","html-keyboard-response","352","334020","0.0-1.0-507.0","0","0","76415","","null","","","null","56","NaN","","","","","","","","","","","","","","",""
"","S2","","html-keyboard-response","353","334252","0.0-1.0-508.0","0","0","76415","","228","","","68","56","","d","2","56","training","adjacent","CB","3","2","N.jpg","R.jpg","0","0","1","",""
"","feedback","","html-keyboard-response","354","335257","0.0-1.0-510.0-0.0","0","0","76415","","null","","","null","56","","","","","","","","","","","","","","","",""
"","ITI","","html-keyboard-response","355","336262","0.0-1.0-513.0","0","0","76415","","null","","","null","56","","","","","","","","","","","","","","","NaN",""
"","S1","","html-keyboard-response","356","336516","0.0-1.0-515.0","0","0","76415","","null","","","null","57","","","","","","","","","","","","","","","",""
"","ISI","","html-keyboard-response","357","336669","0.0-1.0-516.0","0","0","76415","","null","","","null","57","NaN","","","","","","","","","","","","","","",""
"","S2","","html-keyboard-response","358","336924","0.0-1.0-517.0","0","0","76415","","null","","","null","57","","NaN","","","","","","","","","","","","","",""
"","response","","html-keyboard-response","359","337320","0.0-1.0-518.0-0.0","0","0","76415","","393","","","75","57","","","2","57","training","adjacent","DC","4","3","M.jpg","N.jpg","1","0","0","",""
"","feedback","","html-keyboard-response","360","338325","0.0-1.0-519.0-0.0","0","0","76415","","null","","","null","57","","","","","","","","","","","","","","","",""
"","time_out","","html-keyboard-response","361","340329","0.0-1.0-521.0-0.0","0","0","76415","","null","","","null","57","","","","","","","","","","","","","","","",""
"","ITI","","html-keyboard-response","362","341333","0.0-1.0-522.0","0","0","76415","","null","","","null","57","","","","","","","","","","","","","","","NaN",""
"","S1","","html-keyboard-response","363","341587","0.0-1.0-524.0","0","0","76415","","null","","","null","58","","","","","","","","","","","","","","","",""
"","ISI","","html-keyboard-response","364","341741","0.0-1.0-525.0","0","0","76415","","null","","","null","58","NaN","","","","","","","","","","","","","","",""
"","S2","","html-keyboard-response","365","341996","0.0-1.0-526.0","0","0","76415","","null","","","null","58","","NaN","","","","","","","","","","","","","",""
"","response","","html-keyboard-response","366","342087","0.0-1.0-527.0-0.0","0","0","76415","","88","","","68","58","","","2","58","training","adjacent","FE","6","5","Q.jpg","O.jpg","0","0","1","",""
"","feedback","","html-keyboard-response","367","343092","0.0-1.0-528.0-0.0","0","0","76415","","null","","","null","58","","","","","","","","","","","","","","","",""
"","ITI","","html-keyboard-response","368","344097","0.0-1.0-531.0","0","0","76415","","null","","","null","58","","","","","","","","","","","","","","","NaN",""
"","S1","","html-keyboard-response","369","344351","0.0-1.0-533.0","0","0","76415","","null","","","null","59","","","","","","","","","","","","","","","",""
"","ISI","","html-keyboard-response","370","344505","0.0-1.0-534.0","0","0","76415","","null","","","null","59","NaN","","","","","","","","","","","","","","",""
"","S2","","html-keyboard-response","371","344760","0.0-1.0-535.0","0","0","76415","","null","","","null","59","","NaN","","","","","","","","","","","","","",""
"","response","","html-keyboard-response","372","345010","0.0-1.0-536.0-0.0","0","0","76415","","246","","","68","59","","","2","59","training","adjacent","ED","5","4","O.jpg","M.jpg","0","0","1","",""
"","feedback","","html-keyboard-response","373","346017","0.0-1.0-537.0-0.0","0","0","76415","","null","","","null","59","","","","","","","","","","","","","","","",""
"","ITI","","html-keyboard-response","374","347021","0.0-1.0-540.0","0","0","76415","","null","","","null","59","","","","","","","","","","","","","","","NaN",""
"","S1","","html-keyboard-response","375","347275","0.0-1.0-542.0","0","0","76415","","null","","","null","60","","","","","","","","","","","","","","","",""
"","ISI","","html-keyboard-response","376","347430","0.0-1.0-543.0","0","0","76415","","null","","","null","60","NaN","","","","","","","","","","","","","","",""
"","S2","","html-keyboard-response","377","347684","0.0-1.0-544.0","0","0","76415","","null","","","null","60","","NaN","","","","","","","","","","","","","",""
"","response","","html-keyboard-response","378","347707","0.0-1.0-545.0-0.0","0","0","76415","","19","","","75","60","","","2","60","training","adjacent","BC","2","3","R.jpg","N.jpg","1","1","1","",""
"","feedback","","html-keyboard-response","379","348713","0.0-1.0-546.0-0.0","0","0","76415","","null","","","null","60","","","","","","","","","","","","","","","",""
"","ITI","","html-keyboard-response","380","349718","0.0-1.0-549.0","0","0","76415","","null","","","null","60","","","","","","","","","","","","","","","NaN",""
"","S1","","html-keyboard-response","381","349972","0.0-1.0-551.0","0","0","76415","","null","","","null","61","","","","","","","","","","","","","","","",""
"","ISI","","html-keyboard-response","382","350134","0.0-1.0-552.0","0","0","76415","","null","","","null","61","NaN","","","","","","","","","","","","","","",""
"","S2","","html-keyboard-response","383","350389","0.0-1.0-553.0","0","0","76415","","null","","","null","61","","NaN","","","","","","","","","","","","","",""
"","response","","html-keyboard-response","384","350666","0.0-1.0-554.0-0.0","0","0","76415","","274","","","75","61","","","2","61","training","adjacent","ED","5","4","O.jpg","M.jpg","1","0","0","",""
"","feedback","","html-keyboard-response","385","351673","0.0-1.0-555.0-0.0","0","0","76415","","null","","","null","61","","","","","","","","","","","","","","","",""
"","time_out","","html-keyboard-response","386","353678","0.0-1.0-557.0-0.0","0","0","76415","","null","","","null","61","","","","","","","","","","","","","","","",""
"","ITI","","html-keyboard-response","387","354683","0.0-1.0-558.0","0","0","76415","","null","","","null","61","","","","","","","","","","","","","","","NaN",""
"","S1","","html-keyboard-response","388","354937","0.0-1.0-560.0","0","0","76415","","null","","","null","62","","","","","","","","","","","","","","","",""
"","ISI","","html-keyboard-response","389","355091","0.0-1.0-561.0","0","0","76415","","null","","","null","62","NaN","","","","","","","","","","","","","","",""
"","S2","","html-keyboard-response","390","355345","0.0-1.0-562.0","0","0","76415","","null","","","null","62","","NaN","","","","","","","","","","","","","",""
"","response","","html-keyboard-response","391","355352","0.0-1.0-563.0-0.0","0","0","76415","","4","","","68","62","","","2","62","training","adjacent","BA","2","1","R.jpg","L.jpg","0","0","1","",""
"","feedback","","html-keyboard-response","392","356356","0.0-1.0-564.0-0.0","0","0","76415","","null","","","null","62","","","","","","","","","","","","","","","",""
"","ITI","","html-keyboard-response","393","357361","0.0-1.0-567.0","0","0","76415","","null","","","null","62","","","","","","","","","","","","","","","NaN",""
"","S1","","html-keyboard-response","394","357613","0.0-1.0-569.0","0","0","76415","","null","","","null","63","","","","","","","","","","","","","","","",""
"","ISI","","html-keyboard-response","395","357766","0.0-1.0-570.0","0","0","76415","","null","","","null","63","NaN","","","","","","","","","","","","","","",""
"","S2","","html-keyboard-response","396","358023","0.0-1.0-571.0","0","0","76415","","null","","","null","63","","NaN","","","","","","","","","","","","","",""
"","response","","html-keyboard-response","397","358317","0.0-1.0-572.0-0.0","0","0","76415","","291","","","68","63","","","2","63","training","adjacent","GF","7","6","P.jpg","Q.jpg","0","0","1","",""
"","feedback","","html-keyboard-response","398","359322","0.0-1.0-573.0-0.0","0","0","76415","","null","","","null","63","","","","","","","","","","","","","","","",""
"","ITI","","html-keyboard-response","399","360327","0.0-1.0-576.0","0","0","76415","","null","","","null","63","","","","","","","","","","","","","","","NaN",""
"","S1","","html-keyboard-response","400","360581","0.0-1.0-578.0","0","0","76415","","null","","","null","64","","","","","","","","","","","","","","","",""
"","ISI","","html-keyboard-response","401","360734","0.0-1.0-579.0","0","0","76415","","null","","","null","64","NaN","","","","","","","","","","","","","","",""
"","S2","","html-keyboard-response","402","360988","0.0-1.0-580.0","0","0","76415","","null","","","null","64","","NaN","","","","","","","","","","","","","",""
"","response","","html-keyboard-response","403","360993","0.0-1.0-581.0-0.0","0","0","76415","","2","","","75","64","","","2","64","training","adjacent","EF","5","6","O.jpg","Q.jpg","1","1","1","",""
"","feedback","","html-keyboard-response","404","361998","0.0-1.0-582.0-0.0","0","0","76415","","null","","","null","64","","","","","","","","","","","","","","","",""
"","ITI","","html-keyboard-response","405","363002","0.0-1.0-585.0","0","0","76415","","null","","","null","64","","","","","","","","","","","","","","","NaN",""
"","S1","","html-keyboard-response","406","363256","0.0-1.0-587.0","0","0","76415","","null","","","null","65","","","","","","","","","","","","","","","",""
"","ISI","","html-keyboard-response","407","363410","0.0-1.0-588.0","0","0","76415","","72","","","75","65","k","","","","","","","","","","","","","","",""
"","S2","","html-keyboard-response","408","363666","0.0-1.0-589.0","0","0","76415","","null","","","null","65","","NaN","","","","","","","","","","","","","",""
"","response","","html-keyboard-response","409","364010","0.0-1.0-590.0-0.0","0","0","76415","","339","","","75","65","","","2","65","training","adjacent","GF","7","6","P.jpg","Q.jpg","1","0","0","",""
"","feedback","","html-keyboard-response","410","365014","0.0-1.0-591.0-0.0","0","0","76415","","null","","","null","65","","","","","","","","","","","","","","","",""
"","time_out","","html-keyboard-response","411","367019","0.0-1.0-593.0-0.0","0","0","76415","","null","","","null","65","","","","","","","","","","","","","","","",""
"","ITI","","html-keyboard-response","412","368023","0.0-1.0-594.0","0","0","76415","","null","","","null","65","","","","","","","","","","","","","","","NaN",""
"","S1","","html-keyboard-response","413","368276","0.0-1.0-596.0","0","0","76415","","null","","","null","66","","","","","","","","","","","","","","","",""
"","ISI","","html-keyboard-response","414","368430","0.0-1.0-597.0","0","0","76415","","null","","","null","66","NaN","","","","","","","","","","","","","","",""
"","S2","","html-keyboard-response","415","368684","0.0-1.0-598.0","0","0","76415","","null","","","null","66","","NaN","","","","","","","","","","","","","",""
"","response","","html-keyboard-response","416","368709","0.0-1.0-599.0-0.0","0","0","76415","","21","","","68","66","","","2","66","training","adjacent","DC","4","3","M.jpg","N.jpg","0","0","1","",""
"","feedback","","html-keyboard-response","417","369714","0.0-1.0-600.0-0.0","0","0","76415","","null","","","null","66","","","","","","","","","","","","","","","",""
"","ITI","","html-keyboard-response","418","370717","0.0-1.0-603.0","0","0","76415","","null","","","null","66","","","","","","","","","","","","","","","NaN",""
"","S1","","html-keyboard-response","419","370971","0.0-1.0-605.0","0","0","76415","","null","","","null","67","","","","","","","","","","","","","","","",""
"","ISI","","html-keyboard-response","420","371126","0.0-1.0-606.0","0","0","76415","","null","","","null","67","NaN","","","","","","","","","","","","","","",""
"","S2","","html-keyboard-response","421","371348","0.0-1.0-607.0","0","0","76415","","219","","","75","67","","k","2","67","training","adjacent","FG","6","7","Q.jpg","P.jpg","1","1","1","",""
"","feedback","","html-keyboard-response","422","372353","0.0-1.0-609.0-0.0","0","0","76415","","null","","","null","67","","","","","","","","","","","","","","","",""
"","ITI","","html-keyboard-response","423","373359","0.0-1.0-612.0","0","0","76415","","null","","","null","67","","","","","","","","","","","","","","","NaN",""
"","S1","","html-keyboard-response","424","373613","0.0-1.0-614.0","0","0","76415","","null","","","null","68","","","","","","","","","","","","","","","",""
"","ISI","","html-keyboard-response","425","373768","0.0-1.0-615.0","0","0","76415","","null","","","null","68","NaN","","","","","","","","","","","","","","",""
"","S2","","html-keyboard-response","426","373966","0.0-1.0-616.0","0","0","76415","","194","","","75","68","","k","2","68","training","adjacent","DE","4","5","M.jpg","O.jpg","1","1","1","",""
"","feedback","","html-keyboard-response","427","374985","0.0-1.0-618.0-0.0","0","0","76415","","null","","","null","68","","","","","","","","","","","","","","","",""
"","ITI","","html-keyboard-response","428","375989","0.0-1.0-621.0","0","0","76415","","null","","","null","68","","","","","","","","","","","","","","","NaN",""
"","S1","","html-keyboard-response","429","376245","0.0-1.0-623.0","0","0","76415","","null","","","null","69","","","","","","","","","","","","","","","",""
"","ISI","","html-keyboard-response","430","376400","0.0-1.0-624.0","0","0","76415","","null","","","null","69","NaN","","","","","","","","","","","","","","",""
"","S2","","html-keyboard-response","431","376654","0.0-1.0-625.0","0","0","76415","","null","","","null","69","","NaN","","","","","","","","","","","","","",""
"","response","","html-keyboard-response","432","376698","0.0-1.0-626.0-0.0","0","0","76415","","42","","","68","69","","","2","69","training","adjacent","BA","2","1","R.jpg","L.jpg","0","0","1","",""
"","feedback","","html-keyboard-response","433","377702","0.0-1.0-627.0-0.0","0","0","76415","","null","","","null","69","","","","","","","","","","","","","","","",""
"","ITI","","html-keyboard-response","434","378705","0.0-1.0-630.0","0","0","76415","","null","","","null","69","","","","","","","","","","","","","","","NaN",""
"","S1","","html-keyboard-response","435","378958","0.0-1.0-632.0","0","0","76415","","null","","","null","70","","","","","","","","","","","","","","","",""
"","ISI","","html-keyboard-response","436","379113","0.0-1.0-633.0","0","0","76415","","null","","","null","70","NaN","","","","","","","","","","","","","","",""
"","S2","","html-keyboard-response","437","379368","0.0-1.0-634.0","0","0","76415","","null","","","null","70","","NaN","","","","","","","","","","","","","",""
"","response","","html-keyboard-response","438","379427","0.0-1.0-635.0-0.0","0","0","76415","","56","","","75","70","","","2","70","training","adjacent","DC","4","3","M.jpg","N.jpg","1","0","0","",""
"","feedback","","html-keyboard-response","439","380432","0.0-1.0-636.0-0.0","0","0","76415","","null","","","null","70","","","","","","","","","","","","","","","",""
"","time_out","","html-keyboard-response","440","382436","0.0-1.0-638.0-0.0","0","0","76415","","null","","","null","70","","","","","","","","","","","","","","","",""
"","ITI","","html-keyboard-response","441","383441","0.0-1.0-639.0","0","0","76415","","null","","","null","70","","","","","","","","","","","","","","","NaN",""
"","S1","","html-keyboard-response","442","383695","0.0-1.0-641.0","0","0","76415","","null","","","null","71","","","","","","","","","","","","","","","",""
"","ISI","","html-keyboard-response","443","383849","0.0-1.0-642.0","0","0","76415","","null","","","null","71","NaN","","","","","","","","","","","","","","",""
"","S2","","html-keyboard-response","444","384104","0.0-1.0-643.0","0","0","76415","","null","","","null","71","","NaN","","","","","","","","","","","","","",""
"","response","","html-keyboard-response","445","384199","0.0-1.0-644.0-0.0","0","0","76415","","91","","","68","71","","","2","71","training","adjacent","FG","6","7","Q.jpg","P.jpg","0","1","0","",""
"","feedback","","html-keyboard-response","446","385204","0.0-1.0-645.0-0.0","0","0","76415","","null","","","null","71","","","","","","","","","","","","","","","",""
"","time_out","","html-keyboard-response","447","387209","0.0-1.0-647.0-0.0","0","0","76415","","null","","","null","71","","","","","","","","","","","","","","","",""
"","ITI","","html-keyboard-response","448","388213","0.0-1.0-648.0","0","0","76415","","null","","","null","71","","","","","","","","","","","","","","","NaN",""
"","S1","","html-keyboard-response","449","388467","0.0-1.0-650.0","0","0","76415","","null","","","null","72","","","","","","","","","","","","","","","",""
"","ISI","","html-keyboard-response","450","388622","0.0-1.0-651.0","0","0","76415","","71","","","68","72","d","","","","","","","","","","","","","","",""
"","S2","","html-keyboard-response","451","388878","0.0-1.0-652.0","0","0","76415","","null","","","null","72","","NaN","","","","","","","","","","","","","",""
"","response","","html-keyboard-response","452","389690","0.0-1.0-653.0-0.0","0","0","76415","","809","","","68","72","","","2","72","training","adjacent","FG","6","7","Q.jpg","P.jpg","0","1","0","",""
"","feedback","","html-keyboard-response","453","390695","0.0-1.0-654.0-0.0","0","0","76415","","null","","","null","72","","","","","","","","","","","","","","","",""
"","time_out","","html-keyboard-response","454","392700","0.0-1.0-656.0-0.0","0","0","76415","","null","","","null","72","","","","","","","","","","","","","","","",""
"","ITI","","html-keyboard-response","455","393704","0.0-1.0-657.0","0","0","76415","","null","","","null","72","","","","","","","","","","","","","","","NaN",""
"","S1","","html-keyboard-response","456","393958","0.0-1.0-659.0","0","0","76415","","null","","","null","73","","","","","","","","","","","","","","","",""
"","ISI","","html-keyboard-response","457","394112","0.0-1.0-660.0","0","0","76415","","47","","","75","73","k","","","","","","","","","","","","","","",""
"","S2","","html-keyboard-response","458","394372","0.0-1.0-661.0","0","0","76415","","null","","","null","73","","NaN","","","","","","","","","","","","","",""
"","response","","html-keyboard-response","459","394411","0.0-1.0-662.0-0.0","0","0","76415","","36","","","75","73","","","2","73","training","adjacent","ED","5","4","O.jpg","M.jpg","1","0","0","",""
"","feedback","","html-keyboard-response","460","395416","0.0-1.0-663.0-0.0","0","0","76415","","null","","","null","73","","","","","","","","","","","","","","","",""
"","time_out","","html-keyboard-response","461","397421","0.0-1.0-665.0-0.0","0","0","76415","","null","","","null","73","","","","","","","","","","","","","","","",""
"","ITI","","html-keyboard-response","462","398425","0.0-1.0-666.0","0","0","76415","","null","","","null","73","","","","","","","","","","","","","","","NaN",""
"","S1","","html-keyboard-response","463","398681","0.0-1.0-668.0","0","0","76415","","null","","","null","74","","","","","","","","","","","","","","","",""
"","ISI","","html-keyboard-response","464","398836","0.0-1.0-669.0","0","0","76415","","null","","","null","74","NaN","","","","","","","","","","","","","","",""
"","S2","","html-keyboard-response","465","399091","0.0-1.0-670.0","0","0","76415","","null","","","null","74","","NaN","","","","","","","","","","","","","",""
"","response","","html-keyboard-response","466","399484","0.0-1.0-671.0-0.0","0","0","76415","","390","","","75","74","","","2","74","training","adjacent","CD","3","4","N.jpg","M.jpg","1","1","1","",""
"","feedback","","html-keyboard-response","467","400490","0.0-1.0-672.0-0.0","0","0","76415","","null","","","null","74","","","","","","","","","","","","","","","",""
"","ITI","","html-keyboard-response","468","401495","0.0-1.0-675.0","0","0","76415","","null","","","null","74","","","","","","","","","","","","","","","NaN",""
"","S1","","html-keyboard-response","469","401749","0.0-1.0-677.0","0","0","76415","","null","","","null","75","","","","","","","","","","","","","","","",""
"","ISI","","html-keyboard-response","470","401904","0.0-1.0-678.0","0","0","76415","","null","","","null","75","NaN","","","","","","","","","","","","","","",""
"","S2","","html-keyboard-response","471","402159","0.0-1.0-679.0","0","0","76415","","null","","","null","75","","NaN","","","","","","","","","","","","","",""
"","response","","html-keyboard-response","472","402206","0.0-1.0-680.0-0.0","0","0","76415","","42","","","68","75","","","2","75","training","adjacent","AB","1","2","L.jpg","R.jpg","0","1","0","",""
"","feedback","","html-keyboard-response","473","403211","0.0-1.0-681.0-0.0","0","0","76415","","null","","","null","75","","","","","","","","","","","","","","","",""
"","time_out","","html-keyboard-response","474","405216","0.0-1.0-683.0-0.0","0","0","76415","","null","","","null","75","","","","","","","","","","","","","","","",""
"","ITI","","html-keyboard-response","475","406220","0.0-1.0-684.0","0","0","76415","","null","","","null","75","","","","","","","","","","","","","","","NaN",""
"","S1","","html-keyboard-response","476","406475","0.0-1.0-686.0","0","0","76415","","null","","","null","76","","","","","","","","","","","","","","","",""
"","ISI","","html-keyboard-response","477","406629","0.0-1.0-687.0","0","0","76415","","50","","","75","76","k","","","","","","","","","","","","","","",""
"","S2","","html-keyboard-response","478","406884","0.0-1.0-688.0","0","0","76415","","null","","","null","76","","NaN","","","","","","","","","","","","","",""
"","response","","html-keyboard-response","479","406978","0.0-1.0-689.0-0.0","0","0","76415","","90","","","75","76","","","2","76","training","adjacent","FE","6","5","Q.jpg","O.jpg","1","0","0","",""
"","feedback","","html-keyboard-response","480","407983","0.0-1.0-690.0-0.0","0","0","76415","","null","","","null","76","","","","","","","","","","","","","","","",""
"","time_out","","html-keyboard-response","481","409988","0.0-1.0-692.0-0.0","0","0","76415","","null","","","null","76","","","","","","","","","","","","","","","",""
"","ITI","","html-keyboard-response","482","410992","0.0-1.0-693.0","0","0","76415","","null","","","null","76","","","","","","","","","","","","","","","NaN",""
"","S1","","html-keyboard-response","483","411247","0.0-1.0-695.0","0","0","76415","","null","","","null","77","","","","","","","","","","","","","","","",""
"","ISI","","html-keyboard-response","484","411401","0.0-1.0-696.0","0","0","76415","","null","","","null","77","NaN","","","","","","","","","","","","","","",""
"","S2","","html-keyboard-response","485","411656","0.0-1.0-697.0","0","0","76415","","null","","","null","77","","NaN","","","","","","","","","","","","","",""
"","response","","html-keyboard-response","486","412170","0.0-1.0-698.0-0.0","0","0","76415","","510","","","75","77","","","2","77","training","adjacent","CB","3","2","N.jpg","R.jpg","1","0","0","",""
"","feedback","","html-keyboard-response","487","413175","0.0-1.0-699.0-0.0","0","0","76415","","null","","","null","77","","","","","","","","","","","","","","","",""
"","time_out","","html-keyboard-response","488","415178","0.0-1.0-701.0-0.0","0","0","76415","","null","","","null","77","","","","","","","","","","","","","","","",""
"","ITI","","html-keyboard-response","489","416182","0.0-1.0-702.0","0","0","76415","","null","","","null","77","","","","","","","","","","","","","","","NaN",""
"","S1","","html-keyboard-response","490","416436","0.0-1.0-704.0","0","0","76415","","null","","","null","78","","","","","","","","","","","","","","","",""
"","ISI","","html-keyboard-response","491","416591","0.0-1.0-705.0","0","0","76415","","24","","","68","78","d","","","","","","","","","","","","","","",""
"","S2","","html-keyboard-response","492","416846","0.0-1.0-706.0","0","0","76415","","null","","","null","78","","NaN","","","","","","","","","","","","","",""
"","response","","html-keyboard-response","493","416887","0.0-1.0-707.0-0.0","0","0","76415","","37","","","68","78","","","2","78","training","adjacent","DE","4","5","M.jpg","O.jpg","0","1","0","",""
"","feedback","","html-keyboard-response","494","417892","0.0-1.0-708.0-0.0","0","0","76415","","null","","","null","78","","","","","","","","","","","","","","","",""
"","time_out","","html-keyboard-response","495","419897","0.0-1.0-710.0-0.0","0","0","76415","","null","","","null","78","","","","","","","","","","","","","","","",""
"","ITI","","html-keyboard-response","496","420901","0.0-1.0-711.0","0","0","76415","","null","","","null","78","","","","","","","","","","","","","","","NaN",""
"","S1","","html-keyboard-response","497","421155","0.0-1.0-713.0","0","0","76415","","null","","","null","79","","","","","","","","","","","","","","","",""
"","ISI","","html-keyboard-response","498","421310","0.0-1.0-714.0","0","0","76415","","null","","","null","79","NaN","","","","","","","","","","","","","","",""
"","S2","","html-keyboard-response","499","421565","0.0-1.0-715.0","0","0","76415","","null","","","null","79","","NaN","","","","","","","","","","","","","",""
"","response","","html-keyboard-response","500","421845","0.0-1.0-716.0-0.0","0","0","76415","","276","","","75","79","","","2","79","training","adjacent","BC","2","3","R.jpg","N.jpg","1","1","1","",""
"","feedback","","html-keyboard-response","501","422855","0.0-1.0-717.0-0.0","0","0","76415","","null","","","null","79","","","","","","","","","","","","","","","",""
"","ITI","","html-keyboard-response","502","423861","0.0-1.0-720.0","0","0","76415","","null","","","null","79","","","","","","","","","","","","","","","NaN",""
"","S1","","html-keyboard-response","503","424115","0.0-1.0-722.0","0","0","76415","","null","","","null","80","","","","","","","","","","","","","","","",""
"","ISI","","html-keyboard-response","504","424269","0.0-1.0-723.0","0","0","76415","","null","","","null","80","NaN","","","","","","","","","","","","","","",""
"","S2","","html-keyboard-response","505","424524","0.0-1.0-724.0","0","0","76415","","null","","","null","80","","NaN","","","","","","","","","","","","","",""
"","response","","html-keyboard-response","506","424561","0.0-1.0-725.0-0.0","0","0","76415","","32","","","75","80","","","2","80","training","adjacent","CB","3","2","N.jpg","R.jpg","1","0","0","",""
"","feedback","","html-keyboard-response","507","425566","0.0-1.0-726.0-0.0","0","0","76415","","null","","","null","80","","","","","","","","","","","","","","","",""
"","time_out","","html-keyboard-response","508","427572","0.0-1.0-728.0-0.0","0","0","76415","","null","","","null","80","","","","","","","","","","","","","","","",""
"","ITI","","html-keyboard-response","509","428576","0.0-1.0-729.0","0","0","76415","","null","","","null","80","","","","","","","","","","","","","","","NaN",""
"","S1","","html-keyboard-response","510","428831","0.0-1.0-731.0","0","0","76415","","null","","","null","81","","","","","","","","","","","","","","","",""
"","ISI","","html-keyboard-response","511","428992","0.0-1.0-732.0","0","0","76415","","null","","","null","81","NaN","","","","","","","","","","","","","","",""
"","S2","","html-keyboard-response","512","429256","0.0-1.0-733.0","0","0","76415","","null","","","null","81","","NaN","","","","","","","","","","","","","",""
"","response","","html-keyboard-response","513","429699","0.0-1.0-734.0-0.0","0","0","76415","","439","","","68","81","","","2","81","training","adjacent","BA","2","1","R.jpg","L.jpg","0","0","1","",""
"","feedback","","html-keyboard-response","514","430705","0.0-1.0-735.0-0.0","0","0","76415","","null","","","null","81","","","","","","","","","","","","","","","",""
"","ITI","","html-keyboard-response","515","431709","0.0-1.0-738.0","0","0","76415","","null","","","null","81","","","","","","","","","","","","","","","NaN",""
"","S1","","html-keyboard-response","516","431963","0.0-1.0-740.0","0","0","76415","","null","","","null","82","","","","","","","","","","","","","","","",""
"","ISI","","html-keyboard-response","517","432117","0.0-1.0-741.0","0","0","76415","","null","","","null","82","NaN","","","","","","","","","","","","","","",""
"","S2","","html-keyboard-response","518","432372","0.0-1.0-742.0","0","0","76415","","null","","","null","82","","NaN","","","","","","","","","","","","","",""
"","response","","html-keyboard-response","519","432978","0.0-1.0-743.0-0.0","0","0","76415","","602","","","68","82","","","2","82","training","adjacent","EF","5","6","O.jpg","Q.jpg","0","1","0","",""
"","feedback","","html-keyboard-response","520","433984","0.0-1.0-744.0-0.0","0","0","76415","","null","","","null","82","","","","","","","","","","","","","","","",""
"","time_out","","html-keyboard-response","521","435988","0.0-1.0-746.0-0.0","0","0","76415","","null","","","null","82","","","","","","","","","","","","","","","",""
"","ITI","","html-keyboard-response","522","436993","0.0-1.0-747.0","0","0","76415","","null","","","null","82","","","","","","","","","","","","","","","NaN",""
"","S1","","html-keyboard-response","523","437247","0.0-1.0-749.0","0","0","76415","","null","","","null","83","","","","","","","","","","","","","","","",""
"","ISI","","html-keyboard-response","524","437401","0.0-1.0-750.0","0","0","76415","","null","","","null","83","NaN","","","","","","","","","","","","","","",""
"","S2","","html-keyboard-response","525","437669","0.0-1.0-751.0","0","0","76415","","null","","","null","83","","NaN","","","","","","","","","","","","","",""
"","response","","html-keyboard-response","526","438265","0.0-1.0-752.0-0.0","0","0","76415","","592","","","75","83","","","2","83","training","adjacent","DC","4","3","M.jpg","N.jpg","1","0","0","",""
"","feedback","","html-keyboard-response","527","439272","0.0-1.0-753.0-0.0","0","0","76415","","null","","","null","83","","","","","","","","","","","","","","","",""
"","time_out","","html-keyboard-response","528","441278","0.0-1.0-755.0-0.0","0","0","76415","","null","","","null","83","","","","","","","","","","","","","","","",""
"","ITI","","html-keyboard-response","529","442282","0.0-1.0-756.0","0","0","76415","","null","","","null","83","","","","","","","","","","","","","","","NaN",""
"","S1","","html-keyboard-response","530","442536","0.0-1.0-758.0","0","0","76415","","null","","","null","84","","","","","","","","","","","","","","","",""
"","ISI","","html-keyboard-response","531","442690","0.0-1.0-759.0","0","0","76415","","null","","","null","84","NaN","","","","","","","","","","","","","","",""
"","S2","","html-keyboard-response","532","442933","0.0-1.0-760.0","0","0","76415","","238","","","68","84","","d","2","84","training","adjacent","AB","1","2","L.jpg","R.jpg","0","1","0","",""
"","feedback","","html-keyboard-response","533","443938","0.0-1.0-762.0-0.0","0","0","76415","","null","","","null","84","","","","","","","","","","","","","","","",""
"","time_out","","html-keyboard-response","534","445943","0.0-1.0-764.0-0.0","0","0","76415","","null","","","null","84","","","","","","","","","","","","","","","",""
"","ITI","","html-keyboard-response","535","446947","0.0-1.0-765.0","0","0","76415","","205","","","75","84","","","","","","","","","","","","","","","k",""
"","S1","","html-keyboard-response","536","447202","0.0-1.0-767.0","0","0","76415","","null","","","null","85","","","","","","","","","","","","","","","",""
"","ISI","","html-keyboard-response","537","447360","0.0-1.0-768.0","0","0","76415","","48","","","75","85","k","","","","","","","","","","","","","","",""
"","S2","","html-keyboard-response","538","447615","0.0-1.0-769.0","0","0","76415","","null","","","null","85","","NaN","","","","","","","","","","","","","",""
"","response","","html-keyboard-response","539","447778","0.0-1.0-770.0-0.0","0","0","76415","","159","","","75","85","","","2","85","training","adjacent","BC","2","3","R.jpg","N.jpg","1","1","1","",""
"","feedback","","html-keyboard-response","540","448783","0.0-1.0-771.0-0.0","0","0","76415","","null","","","null","85","","","","","","","","","","","","","","","",""
"","ITI","","html-keyboard-response","541","449787","0.0-1.0-774.0","0","0","76415","","null","","","null","85","","","","","","","","","","","","","","","NaN",""
"","S1","","html-keyboard-response","542","450040","0.0-1.0-776.0","0","0","76415","","null","","","null","86","","","","","","","","","","","","","","","",""
"","ISI","","html-keyboard-response","543","450194","0.0-1.0-777.0","0","0","76415","","null","","","null","86","NaN","","","","","","","","","","","","","","",""
"","S2","","html-keyboard-response","544","450410","0.0-1.0-778.0","0","0","76415","","211","","","75","86","","k","2","86","training","adjacent","CD","3","4","N.jpg","M.jpg","1","1","1","",""
"","feedback","","html-keyboard-response","545","451415","0.0-1.0-780.0-0.0","0","0","76415","","null","","","null","86","","","","","","","","","","","","","","","",""
"","ITI","","html-keyboard-response","546","452420","0.0-1.0-783.0","0","0","76415","","null","","","null","86","","","","","","","","","","","","","","","NaN",""
"","S1","","html-keyboard-response","547","452674","0.0-1.0-785.0","0","0","76415","","null","","","null","87","","","","","","","","","","","","","","","",""
"","ISI","","html-keyboard-response","548","452829","0.0-1.0-786.0","0","0","76415","","null","","","null","87","NaN","","","","","","","","","","","","","","",""
"","S2","","html-keyboard-response","549","453083","0.0-1.0-787.0","0","0","76415","","null","","","null","87","","NaN","","","","","","","","","","","","","",""
"","response","","html-keyboard-response","550","453441","0.0-1.0-788.0-0.0","0","0","76415","","354","","","75","87","","","2","87","training","adjacent","DE","4","5","M.jpg","O.jpg","1","1","1","",""
"","feedback","","html-keyboard-response","551","454446","0.0-1.0-789.0-0.0","0","0","76415","","null","","","null","87","","","","","","","","","","","","","","","",""
"","ITI","","html-keyboard-response","552","455451","0.0-1.0-792.0","0","0","76415","","null","","","null","87","","","","","","","","","","","","","","","NaN",""
"","S1","","html-keyboard-response","553","455705","0.0-1.0-794.0","0","0","76415","","null","","","null","88","","","","","","","","","","","","","","","",""
"","ISI","","html-keyboard-response","554","455860","0.0-1.0-795.0","0","0","76415","","null","","","null","88","NaN","","","","","","","","","","","","","","",""
"","S2","","html-keyboard-response","555","456114","0.0-1.0-796.0","0","0","76415","","null","","","null","88","","NaN","","","","","","","","","","","","","",""
"","response","","html-keyboard-response","556","456125","0.0-1.0-797.0-0.0","0","0","76415","","7","","","68","88","","","2","88","training","adjacent","EF","5","6","O.jpg","Q.jpg","0","1","0","",""
"","feedback","","html-keyboard-response","557","457130","0.0-1.0-798.0-0.0","0","0","76415","","null","","","null","88","","","","","","","","","","","","","","","",""
"","time_out","","html-keyboard-response","558","459136","0.0-1.0-800.0-0.0","0","0","76415","","null","","","null","88","","","","","","","","","","","","","","","",""
"","ITI","","html-keyboard-response","559","460140","0.0-1.0-801.0","0","0","76415","","null","","","null","88","","","","","","","","","","","","","","","NaN",""
"","S1","","html-keyboard-response","560","460395","0.0-1.0-803.0","0","0","76415","","null","","","null","89","","","","","","","","","","","","","","","",""
"","ISI","","html-keyboard-response","561","460549","0.0-1.0-804.0","0","0","76415","","null","","","null","89","NaN","","","","","","","","","","","","","","",""
"","S2","","html-keyboard-response","562","460804","0.0-1.0-805.0","0","0","76415","","null","","","null","89","","NaN","","","","","","","","","","","","","",""
"","response","","html-keyboard-response","563","461223","0.0-1.0-806.0-0.0","0","0","76415","","416","","","75","89","","","2","89","training","adjacent","GF","7","6","P.jpg","Q.jpg","1","0","0","",""
"","feedback","","html-keyboard-response","564","462228","0.0-1.0-807.0-0.0","0","0","76415","","null","","","null","89","","","","","","","","","","","","","","","",""
"","time_out","","html-keyboard-response","565","464234","0.0-1.0-809.0-0.0","0","0","76415","","null","","","null","89","","","","","","","","","","","","","","","",""
"","ITI","","html-keyboard-response","566","465239","0.0-1.0-810.0","0","0","76415","","null","","","null","89","","","","","","","","","","","","","","","NaN",""
"","S1","","html-keyboard-response","567","465493","0.0-1.0-812.0","0","0","76415","","null","","","null","90","","","","","","","","","","","","","","","",""
"","ISI","","html-keyboard-response","568","465647","0.0-1.0-813.0","0","0","76415","","null","","","null","90","NaN","","","","","","","","","","","","","","",""
"","S2","","html-keyboard-response","569","465901","0.0-1.0-814.0","0","0","76415","","null","","","null","90","","NaN","","","","","","","","","","","","","",""
"","response","","html-keyboard-response","570","466630","0.0-1.0-815.0-0.0","0","0","76415","","726","","","68","90","","","2","90","training","adjacent","GF","7","6","P.jpg","Q.jpg","0","0","1","",""
"","feedback","","html-keyboard-response","571","467635","0.0-1.0-816.0-0.0","0","0","76415","","null","","","null","90","","","","","","","","","","","","","","","",""
"","ITI","","html-keyboard-response","572","468640","0.0-1.0-819.0","0","0","76415","","null","","","null","90","","","","","","","","","","","","","","","NaN",""
"","S1","","html-keyboard-response","573","468894","0.0-1.0-821.0","0","0","76415","","null","","","null","91","","","","","","","","","","","","","","","",""
"","ISI","","html-keyboard-response","574","469048","0.0-1.0-822.0","0","0","76415","","null","","","null","91","NaN","","","","","","","","","","","","","","",""
"","S2","","html-keyboard-response","575","469302","0.0-1.0-823.0","0","0","76415","","null","","","null","91","","NaN","","","","","","","","","","","","","",""
"","response","","html-keyboard-response","576","469630","0.0-1.0-824.0-0.0","0","0","76415","","325","","","68","91","","","2","91","training","adjacent","CB","3","2","N.jpg","R.jpg","0","0","1","",""
"","feedback","","html-keyboard-response","577","470636","0.0-1.0-825.0-0.0","0","0","76415","","null","","","null","91","","","","","","","","","","","","","","","",""
"","ITI","","html-keyboard-response","578","471641","0.0-1.0-828.0","0","0","76415","","null","","","null","91","","","","","","","","","","","","","","","NaN",""
"","S1","","html-keyboard-response","579","471896","0.0-1.0-830.0","0","0","76415","","null","","","null","92","","","","","","","","","","","","","","","",""
"","ISI","","html-keyboard-response","580","472050","0.0-1.0-831.0","0","0","76415","","null","","","null","92","NaN","","","","","","","","","","","","","","",""
"","S2","","html-keyboard-response","581","472305","0.0-1.0-832.0","0","0","76415","","null","","","null","92","","NaN","","","","","","","","","","","","","",""
