"success","ttype","start_time","trial_type","trial_index","time_elapsed","internal_node_id","warning","missed_checkup","PID","view_history","rt","responses","repeat_instructions","key_press","index","keypress_isi","keypress_S2","block","trial_num","phase","group_type","pair_type","S1_stim","S2_stim","S1_img","S2_img","S1_chosen","S1_higher","accuracy","keypress_iti","total_bonus_tally"
"true","full_screen","d03072023hr2338","fullscreen","0","14680","0.0-0.0","0","0","68874","","","","","","","","","","","","","","","","","","","","","",""
"","instructions","","instructions","1","69737","0.0-1.0-0.0-0.0","0","0","68874","[{""page_index"":0,""viewing_time"":6579},{""page_index"":1,""viewing_time"":28530},{""page_index"":2,""viewing_time"":17046},{""page_index"":3,""viewing_time"":2897}]","55054","","","","","","","","","","","","","","","","","","","",""
"","comprehension_check","","survey-multi-choice","2","108861","0.0-1.0-0.0-1.0","0","0","68874","","39116","{""Q0"":""True"",""Q1"":""D"",""Q2"":""Once the second image appears and while the screen 'MAKE A CHOICE' is shown"",""Q3"":""Green mark"",""Q4"":""either D or K""}","0","","","","","","","","","","","","","","","","","",""
"","start_exp","","html-keyboard-response","3","114113","0.0-1.0-1.0","0","0","68874","","5245","","","32","","","","","","","","","","","","","","","","",""
"","S1","","html-keyboard-response","4","114368","0.0-1.0-2.0","0","0","68874","","null","","","null","0","","","","","","","","","","","","","","","",""
"","ISI","","html-keyboard-response","5","115378","0.0-1.0-3.0","0","0","68874","","null","","","null","0","NaN","","","","","","","","","","","","","","",""
"","S2","","html-keyboard-response","6","115636","0.0-1.0-4.0","0","0","68874","","null","","","null","0","","NaN","","","","","","","","","","","","","",""
"","response","","html-keyboard-response","7","116436","0.0-1.0-5.0-0.0","0","0","68874","","797","","","75","0","","","1","0","training","adjacent","AB","1","2","Q.jpg","L.jpg","0","1","0","",""
"","feedback","","html-keyboard-response","8","117447","0.0-1.0-6.0-0.0","0","0","68874","","null","","","null","0","","","","","","","","","","","","","","","",""
"","time_out","","html-keyboard-response","9","119457","0.0-1.0-8.0-0.0","0","0","68874","","null","","","null","0","","","","","","","","","","","","","","","",""
"","ITI","","html-keyboard-response","10","120459","0.0-1.0-9.0","0","0","68874","","null","","","null","0","","","","","","","","","","","","","","","NaN",""
"","S1","","html-keyboard-response","11","120721","0.0-1.0-11.0","0","0","68874","","null","","","null","1","","","","","","","","","","","","","","","",""
"","ISI","","html-keyboard-response","12","121729","0.0-1.0-12.0","0","0","68874","","null","","","null","1","NaN","","","","","","","","","","","","","","",""
"","S2","","html-keyboard-response","13","121994","0.0-1.0-13.0","0","0","68874","","null","","","null","1","","NaN","","","","","","","","","","","","","",""
"","response","","html-keyboard-response","14","122784","0.0-1.0-14.0-0.0","0","0","68874","","787","","","68","1","","","1","1","training","adjacent","DE","4","5","R.jpg","P.jpg","1","1","1","",""
"","feedback","","html-keyboard-response","15","123790","0.0-1.0-15.0-0.0","0","0","68874","","null","","","null","1","","","","","","","","","","","","","","","",""
"","ITI","","html-keyboard-response","16","124796","0.0-1.0-18.0","0","0","68874","","null","","","null","1","","","","","","","","","","","","","","","NaN",""
"","S1","","html-keyboard-response","17","125050","0.0-1.0-20.0","0","0","68874","","null","","","null","2","","","","","","","","","","","","","","","",""
"","ISI","","html-keyboard-response","18","126054","0.0-1.0-21.0","0","0","68874","","null","","","null","2","NaN","","","","","","","","","","","","","","",""
"","S2","","html-keyboard-response","19","126308","0.0-1.0-22.0","0","0","68874","","null","","","null","2","","NaN","","","","","","","","","","","","","",""
"","response","","html-keyboard-response","20","126978","0.0-1.0-23.0-0.0","0","0","68874","","667","","","75","2","","","1","2","training","adjacent","ED","5","4","P.jpg","R.jpg","0","0","1","",""
"","feedback","","html-keyboard-response","21","127989","0.0-1.0-24.0-0.0","0","0","68874","","null","","","null","2","","","","","","","","","","","","","","","",""
"","ITI","","html-keyboard-response","22","128996","0.0-1.0-27.0","0","0","68874","","null","","","null","2","","","","","","","","","","","","","","","NaN",""
"","S1","","html-keyboard-response","23","129254","0.0-1.0-29.0","0","0","68874","","null","","","null","3","","","","","","","","","","","","","","","",""
"","ISI","","html-keyboard-response","24","130263","0.0-1.0-30.0","0","0","68874","","null","","","null","3","NaN","","","","","","","","","","","","","","",""
"","S2","","html-keyboard-response","25","130523","0.0-1.0-31.0","0","0","68874","","null","","","null","3","","NaN","","","","","","","","","","","","","",""
"","response","","html-keyboard-response","26","131218","0.0-1.0-32.0-0.0","0","0","68874","","692","","","68","3","","","1","3","training","adjacent","DC","4","3","R.jpg","O.jpg","1","0","0","",""
"","feedback","","html-keyboard-response","27","132228","0.0-1.0-33.0-0.0","0","0","68874","","null","","","null","3","","","","","","","","","","","","","","","",""
"","time_out","","html-keyboard-response","28","134238","0.0-1.0-35.0-0.0","0","0","68874","","null","","","null","3","","","","","","","","","","","","","","","",""
"","ITI","","html-keyboard-response","29","135244","0.0-1.0-36.0","0","0","68874","","null","","","null","3","","","","","","","","","","","","","","","NaN",""
"","S1","","html-keyboard-response","30","135501","0.0-1.0-38.0","0","0","68874","","null","","","null","4","","","","","","","","","","","","","","","",""
"","ISI","","html-keyboard-response","31","136505","0.0-1.0-39.0","0","0","68874","","null","","","null","4","NaN","","","","","","","","","","","","","","",""
"","S2","","html-keyboard-response","32","136763","0.0-1.0-40.0","0","0","68874","","null","","","null","4","","NaN","","","","","","","","","","","","","",""
"","response","","html-keyboard-response","33","137324","0.0-1.0-41.0-0.0","0","0","68874","","558","","","75","4","","","1","4","training","adjacent","BA","2","1","L.jpg","Q.jpg","0","0","1","",""
"","feedback","","html-keyboard-response","34","138335","0.0-1.0-42.0-0.0","0","0","68874","","null","","","null","4","","","","","","","","","","","","","","","",""
"","ITI","","html-keyboard-response","35","139356","0.0-1.0-45.0","0","0","68874","","null","","","null","4","","","","","","","","","","","","","","","NaN",""
"","S1","","html-keyboard-response","36","139610","0.0-1.0-47.0","0","0","68874","","null","","","null","5","","","","","","","","","","","","","","","",""
"","ISI","","html-keyboard-response","37","140620","0.0-1.0-48.0","0","0","68874","","null","","","null","5","NaN","","","","","","","","","","","","","","",""
"","S2","","html-keyboard-response","38","140885","0.0-1.0-49.0","0","0","68874","","null","","","null","5","","NaN","","","","","","","","","","","","","",""
"","response","","html-keyboard-response","39","141462","0.0-1.0-50.0-0.0","0","0","68874","","576","","","75","5","","","1","5","training","adjacent","GF","7","6","N.jpg","M.jpg","0","0","1","",""
"","feedback","","html-keyboard-response","40","142470","0.0-1.0-51.0-0.0","0","0","68874","","null","","","null","5","","","","","","","","","","","","","","","",""
"","ITI","","html-keyboard-response","41","143488","0.0-1.0-54.0","0","0","68874","","null","","","null","5","","","","","","","","","","","","","","","NaN",""
"","S1","","html-keyboard-response","42","143743","0.0-1.0-56.0","0","0","68874","","null","","","null","6","","","","","","","","","","","","","","","",""
"","ISI","","html-keyboard-response","43","144747","0.0-1.0-57.0","0","0","68874","","null","","","null","6","NaN","","","","","","","","","","","","","","",""
"","S2","","html-keyboard-response","44","145009","0.0-1.0-58.0","0","0","68874","","null","","","null","6","","NaN","","","","","","","","","","","","","",""
"","response","","html-keyboard-response","45","145582","0.0-1.0-59.0-0.0","0","0","68874","","572","","","68","6","","","1","6","training","adjacent","CB","3","2","O.jpg","L.jpg","1","0","0","",""
"","feedback","","html-keyboard-response","46","146591","0.0-1.0-60.0-0.0","0","0","68874","","null","","","null","6","","","","","","","","","","","","","","","",""
"","time_out","","html-keyboard-response","47","148601","0.0-1.0-62.0-0.0","0","0","68874","","null","","","null","6","","","","","","","","","","","","","","","",""
"","ITI","","html-keyboard-response","48","149612","0.0-1.0-63.0","0","0","68874","","null","","","null","6","","","","","","","","","","","","","","","NaN",""
"","S1","","html-keyboard-response","49","149872","0.0-1.0-65.0","0","0","68874","","null","","","null","7","","","","","","","","","","","","","","","",""
"","ISI","","html-keyboard-response","50","150881","0.0-1.0-66.0","0","0","68874","","null","","","null","7","NaN","","","","","","","","","","","","","","",""
"","S2","","html-keyboard-response","51","151137","0.0-1.0-67.0","0","0","68874","","null","","","null","7","","NaN","","","","","","","","","","","","","",""
"","response","","html-keyboard-response","52","151627","0.0-1.0-68.0-0.0","0","0","68874","","488","","","68","7","","","1","7","training","adjacent","DC","4","3","R.jpg","O.jpg","1","0","0","",""
"","feedback","","html-keyboard-response","53","152636","0.0-1.0-69.0-0.0","0","0","68874","","null","","","null","7","","","","","","","","","","","","","","","",""
"","time_out","","html-keyboard-response","54","154647","0.0-1.0-71.0-0.0","0","0","68874","","null","","","null","7","","","","","","","","","","","","","","","",""
"","ITI","","html-keyboard-response","55","155666","0.0-1.0-72.0","0","0","68874","","null","","","null","7","","","","","","","","","","","","","","","NaN",""
"","S1","","html-keyboard-response","56","155921","0.0-1.0-74.0","0","0","68874","","null","","","null","8","","","","","","","","","","","","","","","",""
"","ISI","","html-keyboard-response","57","156929","0.0-1.0-75.0","0","0","68874","","null","","","null","8","NaN","","","","","","","","","","","","","","",""
"","S2","","html-keyboard-response","58","157188","0.0-1.0-76.0","0","0","68874","","null","","","null","8","","NaN","","","","","","","","","","","","","",""
"","response","","html-keyboard-response","59","157813","0.0-1.0-77.0-0.0","0","0","68874","","622","","","75","8","","","1","8","training","adjacent","BA","2","1","L.jpg","Q.jpg","0","0","1","",""
"","feedback","","html-keyboard-response","60","158816","0.0-1.0-78.0-0.0","0","0","68874","","null","","","null","8","","","","","","","","","","","","","","","",""
"","ITI","","html-keyboard-response","61","159828","0.0-1.0-81.0","0","0","68874","","null","","","null","8","","","","","","","","","","","","","","","NaN",""
"","S1","","html-keyboard-response","62","160090","0.0-1.0-83.0","0","0","68874","","null","","","null","9","","","","","","","","","","","","","","","",""
"","ISI","","html-keyboard-response","63","161098","0.0-1.0-84.0","0","0","68874","","null","","","null","9","NaN","","","","","","","","","","","","","","",""
"","S2","","html-keyboard-response","64","161356","0.0-1.0-85.0","0","0","68874","","null","","","null","9","","NaN","","","","","","","","","","","","","",""
"","response","","html-keyboard-response","65","161976","0.0-1.0-86.0-0.0","0","0","68874","","617","","","75","9","","","1","9","training","adjacent","ED","5","4","P.jpg","R.jpg","0","0","1","",""
"","feedback","","html-keyboard-response","66","162983","0.0-1.0-87.0-0.0","0","0","68874","","null","","","null","9","","","","","","","","","","","","","","","",""
"","ITI","","html-keyboard-response","67","163987","0.0-1.0-90.0","0","0","68874","","null","","","null","9","","","","","","","","","","","","","","","NaN",""
"","S1","","html-keyboard-response","68","164244","0.0-1.0-92.0","0","0","68874","","null","","","null","10","","","","","","","","","","","","","","","",""
"","ISI","","html-keyboard-response","69","165251","0.0-1.0-93.0","0","0","68874","","null","","","null","10","NaN","","","","","","","","","","","","","","",""
"","S2","","html-keyboard-response","70","165506","0.0-1.0-94.0","0","0","68874","","null","","","null","10","","NaN","","","","","","","","","","","","","",""
"","response","","html-keyboard-response","71","165999","0.0-1.0-95.0-0.0","0","0","68874","","491","","","68","10","","","1","10","training","adjacent","DC","4","3","R.jpg","O.jpg","1","0","0","",""
"","feedback","","html-keyboard-response","72","167009","0.0-1.0-96.0-0.0","0","0","68874","","null","","","null","10","","","","","","","","","","","","","","","",""
"","time_out","","html-keyboard-response","73","169021","0.0-1.0-98.0-0.0","0","0","68874","","null","","","null","10","","","","","","","","","","","","","","","",""
"","ITI","","html-keyboard-response","74","170026","0.0-1.0-99.0","0","0","68874","","null","","","null","10","","","","","","","","","","","","","","","NaN",""
"","S1","","html-keyboard-response","75","170284","0.0-1.0-101.0","0","0","68874","","null","","","null","11","","","","","","","","","","","","","","","",""
"","ISI","","html-keyboard-response","76","171289","0.0-1.0-102.0","0","0","68874","","null","","","null","11","NaN","","","","","","","","","","","","","","",""
"","S2","","html-keyboard-response","77","171549","0.0-1.0-103.0","0","0","68874","","null","","","null","11","","NaN","","","","","","","","","","","","","",""
"","response","","html-keyboard-response","78","172070","0.0-1.0-104.0-0.0","0","0","68874","","519","","","68","11","","","1","11","training","adjacent","DC","4","3","R.jpg","O.jpg","1","0","0","",""
"","feedback","","html-keyboard-response","79","173074","0.0-1.0-105.0-0.0","0","0","68874","","null","","","null","11","","","","","","","","","","","","","","","",""
"","time_out","","html-keyboard-response","80","175081","0.0-1.0-107.0-0.0","0","0","68874","","null","","","null","11","","","","","","","","","","","","","","","",""
"","ITI","","html-keyboard-response","81","176084","0.0-1.0-108.0","0","0","68874","","null","","","null","11","","","","","","","","","","","","","","","NaN",""
"","S1","","html-keyboard-response","82","176340","0.0-1.0-110.0","0","0","68874","","null","","","null","12","","","","","","","","","","","","","","","",""
"","ISI","","html-keyboard-response","83","177355","0.0-1.0-111.0","0","0","68874","","null","","","null","12","NaN","","","","","","","","","","","","","","",""
"","S2","","html-keyboard-response","84","177615","0.0-1.0-112.0","0","0","68874","","null","","","null","12","","NaN","","","","","","","","","","","","","",""
"","response","","html-keyboard-response","85","178126","0.0-1.0-113.0-0.0","0","0","68874","","509","","","75","12","","","1","12","training","adjacent","ED","5","4","P.jpg","R.jpg","0","0","1","",""
"","feedback","","html-keyboard-response","86","179131","0.0-1.0-114.0-0.0","0","0","68874","","null","","","null","12","","","","","","","","","","","","","","","",""
"","ITI","","html-keyboard-response","87","180138","0.0-1.0-117.0","0","0","68874","","null","","","null","12","","","","","","","","","","","","","","","NaN",""
"","S1","","html-keyboard-response","88","180391","0.0-1.0-119.0","0","0","68874","","null","","","null","13","","","","","","","","","","","","","","","",""
"","ISI","","html-keyboard-response","89","181397","0.0-1.0-120.0","0","0","68874","","null","","","null","13","NaN","","","","","","","","","","","","","","",""
"","S2","","html-keyboard-response","90","181652","0.0-1.0-121.0","0","0","68874","","null","","","null","13","","NaN","","","","","","","","","","","","","",""
"","response","","html-keyboard-response","91","182218","0.0-1.0-122.0-0.0","0","0","68874","","564","","","68","13","","","1","13","training","adjacent","EF","5","6","P.jpg","M.jpg","1","1","1","",""
"","feedback","","html-keyboard-response","92","183230","0.0-1.0-123.0-0.0","0","0","68874","","null","","","null","13","","","","","","","","","","","","","","","",""
"","ITI","","html-keyboard-response","93","184238","0.0-1.0-126.0","0","0","68874","","null","","","null","13","","","","","","","","","","","","","","","NaN",""
"","S1","","html-keyboard-response","94","184493","0.0-1.0-128.0","0","0","68874","","null","","","null","14","","","","","","","","","","","","","","","",""
"","ISI","","html-keyboard-response","95","185499","0.0-1.0-129.0","0","0","68874","","null","","","null","14","NaN","","","","","","","","","","","","","","",""
"","S2","","html-keyboard-response","96","185755","0.0-1.0-130.0","0","0","68874","","null","","","null","14","","NaN","","","","","","","","","","","","","",""
"","response","","html-keyboard-response","97","186414","0.0-1.0-131.0-0.0","0","0","68874","","656","","","68","14","","","1","14","training","adjacent","FG","6","7","M.jpg","N.jpg","1","1","1","",""
"","feedback","","html-keyboard-response","98","187421","0.0-1.0-132.0-0.0","0","0","68874","","null","","","null","14","","","","","","","","","","","","","","","",""
"","ITI","","html-keyboard-response","99","188431","0.0-1.0-135.0","0","0","68874","","null","","","null","14","","","","","","","","","","","","","","","NaN",""
"","S1","","html-keyboard-response","100","188692","0.0-1.0-137.0","0","0","68874","","null","","","null","15","","","","","","","","","","","","","","","",""
"","ISI","","html-keyboard-response","101","189698","0.0-1.0-138.0","0","0","68874","","null","","","null","15","NaN","","","","","","","","","","","","","","",""
"","S2","","html-keyboard-response","102","189954","0.0-1.0-139.0","0","0","68874","","null","","","null","15","","NaN","","","","","","","","","","","","","",""
"","response","","html-keyboard-response","103","190514","0.0-1.0-140.0-0.0","0","0","68874","","558","","","68","15","","","1","15","training","adjacent","FE","6","5","M.jpg","P.jpg","1","0","0","",""
"","feedback","","html-keyboard-response","104","191520","0.0-1.0-141.0-0.0","0","0","68874","","null","","","null","15","","","","","","","","","","","","","","","",""
"","time_out","","html-keyboard-response","105","193527","0.0-1.0-143.0-0.0","0","0","68874","","null","","","null","15","","","","","","","","","","","","","","","",""
"","ITI","","html-keyboard-response","106","194536","0.0-1.0-144.0","0","0","68874","","null","","","null","15","","","","","","","","","","","","","","","NaN",""
"","S1","","html-keyboard-response","107","194791","0.0-1.0-146.0","0","0","68874","","null","","","null","16","","","","","","","","","","","","","","","",""
"","ISI","","html-keyboard-response","108","195798","0.0-1.0-147.0","0","0","68874","","null","","","null","16","NaN","","","","","","","","","","","","","","",""
"","S2","","html-keyboard-response","109","196056","0.0-1.0-148.0","0","0","68874","","null","","","null","16","","NaN","","","","","","","","","","","","","",""
"","response","","html-keyboard-response","110","196473","0.0-1.0-149.0-0.0","0","0","68874","","414","","","75","16","","","1","16","training","adjacent","CB","3","2","O.jpg","L.jpg","0","0","1","",""
"","feedback","","html-keyboard-response","111","197489","0.0-1.0-150.0-0.0","0","0","68874","","null","","","null","16","","","","","","","","","","","","","","","",""
"","ITI","","html-keyboard-response","112","198495","0.0-1.0-153.0","0","0","68874","","null","","","null","16","","","","","","","","","","","","","","","NaN",""
"","S1","","html-keyboard-response","113","198751","0.0-1.0-155.0","0","0","68874","","null","","","null","17","","","","","","","","","","","","","","","",""
"","ISI","","html-keyboard-response","114","199758","0.0-1.0-156.0","0","0","68874","","null","","","null","17","NaN","","","","","","","","","","","","","","",""
"","S2","","html-keyboard-response","115","200014","0.0-1.0-157.0","0","0","68874","","null","","","null","17","","NaN","","","","","","","","","","","","","",""
"","response","","html-keyboard-response","116","200466","0.0-1.0-158.0-0.0","0","0","68874","","451","","","68","17","","","1","17","training","adjacent","AB","1","2","Q.jpg","L.jpg","1","1","1","",""
"","feedback","","html-keyboard-response","117","201477","0.0-1.0-159.0-0.0","0","0","68874","","null","","","null","17","","","","","","","","","","","","","","","",""
"","ITI","","html-keyboard-response","118","202495","0.0-1.0-162.0","0","0","68874","","null","","","null","17","","","","","","","","","","","","","","","NaN",""
"","S1","","html-keyboard-response","119","202749","0.0-1.0-164.0","0","0","68874","","null","","","null","18","","","","","","","","","","","","","","","",""
"","ISI","","html-keyboard-response","120","203757","0.0-1.0-165.0","0","0","68874","","null","","","null","18","NaN","","","","","","","","","","","","","","",""
"","S2","","html-keyboard-response","121","204014","0.0-1.0-166.0","0","0","68874","","null","","","null","18","","NaN","","","","","","","","","","","","","",""
"","response","","html-keyboard-response","122","204637","0.0-1.0-167.0-0.0","0","0","68874","","620","","","68","18","","","1","18","training","adjacent","AB","1","2","Q.jpg","L.jpg","1","1","1","",""
"","feedback","","html-keyboard-response","123","205645","0.0-1.0-168.0-0.0","0","0","68874","","null","","","null","18","","","","","","","","","","","","","","","",""
"","ITI","","html-keyboard-response","124","206652","0.0-1.0-171.0","0","0","68874","","null","","","null","18","","","","","","","","","","","","","","","NaN",""
"","S1","","html-keyboard-response","125","206906","0.0-1.0-173.0","0","0","68874","","null","","","null","19","","","","","","","","","","","","","","","",""
"","ISI","","html-keyboard-response","126","207911","0.0-1.0-174.0","0","0","68874","","null","","","null","19","NaN","","","","","","","","","","","","","","",""
"","S2","","html-keyboard-response","127","208166","0.0-1.0-175.0","0","0","68874","","null","","","null","19","","NaN","","","","","","","","","","","","","",""
"","response","","html-keyboard-response","128","208817","0.0-1.0-176.0-0.0","0","0","68874","","649","","","68","19","","","1","19","training","adjacent","EF","5","6","P.jpg","M.jpg","1","1","1","",""
"","feedback","","html-keyboard-response","129","209824","0.0-1.0-177.0-0.0","0","0","68874","","null","","","null","19","","","","","","","","","","","","","","","",""
"","ITI","","html-keyboard-response","130","210828","0.0-1.0-180.0","0","0","68874","","null","","","null","19","","","","","","","","","","","","","","","NaN",""
"","S1","","html-keyboard-response","131","211086","0.0-1.0-182.0","0","0","68874","","null","","","null","20","","","","","","","","","","","","","","","",""
"","ISI","","html-keyboard-response","132","212096","0.0-1.0-183.0","0","0","68874","","null","","","null","20","NaN","","","","","","","","","","","","","","",""
"","S2","","html-keyboard-response","133","212351","0.0-1.0-184.0","0","0","68874","","null","","","null","20","","NaN","","","","","","","","","","","","","",""
"","response","","html-keyboard-response","134","212803","0.0-1.0-185.0-0.0","0","0","68874","","449","","","68","20","","","1","20","training","adjacent","EF","5","6","P.jpg","M.jpg","1","1","1","",""
"","feedback","","html-keyboard-response","135","213806","0.0-1.0-186.0-0.0","0","0","68874","","null","","","null","20","","","","","","","","","","","","","","","",""
"","ITI","","html-keyboard-response","136","214814","0.0-1.0-189.0","0","0","68874","","null","","","null","20","","","","","","","","","","","","","","","NaN",""
"","S1","","html-keyboard-response","137","215072","0.0-1.0-191.0","0","0","68874","","null","","","null","21","","","","","","","","","","","","","","","",""
"","ISI","","html-keyboard-response","138","216082","0.0-1.0-192.0","0","0","68874","","null","","","null","21","NaN","","","","","","","","","","","","","","",""
"","S2","","html-keyboard-response","139","216339","0.0-1.0-193.0","0","0","68874","","null","","","null","21","","NaN","","","","","","","","","","","","","",""
"","response","","html-keyboard-response","140","216737","0.0-1.0-194.0-0.0","0","0","68874","","396","","","75","21","","","1","21","training","adjacent","CD","3","4","O.jpg","R.jpg","0","1","0","",""
"","feedback","","html-keyboard-response","141","217744","0.0-1.0-195.0-0.0","0","0","68874","","null","","","null","21","","","","","","","","","","","","","","","",""
"","time_out","","html-keyboard-response","142","219753","0.0-1.0-197.0-0.0","0","0","68874","","null","","","null","21","","","","","","","","","","","","","","","",""
"","ITI","","html-keyboard-response","143","220756","0.0-1.0-198.0","0","0","68874","","null","","","null","21","","","","","","","","","","","","","","","NaN",""
"","S1","","html-keyboard-response","144","221016","0.0-1.0-200.0","0","0","68874","","null","","","null","22","","","","","","","","","","","","","","","",""
"","ISI","","html-keyboard-response","145","222029","0.0-1.0-201.0","0","0","68874","","null","","","null","22","NaN","","","","","","","","","","","","","","",""
"","S2","","html-keyboard-response","146","222289","0.0-1.0-202.0","0","0","68874","","null","","","null","22","","NaN","","","","","","","","","","","","","",""
"","response","","html-keyboard-response","147","222635","0.0-1.0-203.0-0.0","0","0","68874","","345","","","68","22","","","1","22","training","adjacent","CD","3","4","O.jpg","R.jpg","1","1","1","",""
"","feedback","","html-keyboard-response","148","223652","0.0-1.0-204.0-0.0","0","0","68874","","null","","","null","22","","","","","","","","","","","","","","","",""
"","ITI","","html-keyboard-response","149","224662","0.0-1.0-207.0","0","0","68874","","null","","","null","22","","","","","","","","","","","","","","","NaN",""
"","S1","","html-keyboard-response","150","224915","0.0-1.0-209.0","0","0","68874","","null","","","null","23","","","","","","","","","","","","","","","",""
"","ISI","","html-keyboard-response","151","225920","0.0-1.0-210.0","0","0","68874","","null","","","null","23","NaN","","","","","","","","","","","","","","",""
"","S2","","html-keyboard-response","152","226178","0.0-1.0-211.0","0","0","68874","","null","","","null","23","","NaN","","","","","","","","","","","","","",""
"","response","","html-keyboard-response","153","226842","0.0-1.0-212.0-0.0","0","0","68874","","662","","","68","23","","","1","23","training","adjacent","FE","6","5","M.jpg","P.jpg","1","0","0","",""
"","feedback","","html-keyboard-response","154","227856","0.0-1.0-213.0-0.0","0","0","68874","","null","","","null","23","","","","","","","","","","","","","","","",""
"","time_out","","html-keyboard-response","155","229864","0.0-1.0-215.0-0.0","0","0","68874","","null","","","null","23","","","","","","","","","","","","","","","",""
"","ITI","","html-keyboard-response","156","230874","0.0-1.0-216.0","0","0","68874","","null","","","null","23","","","","","","","","","","","","","","","NaN",""
"","S1","","html-keyboard-response","157","231128","0.0-1.0-218.0","0","0","68874","","null","","","null","24","","","","","","","","","","","","","","","",""
"","ISI","","html-keyboard-response","158","232132","0.0-1.0-219.0","0","0","68874","","null","","","null","24","NaN","","","","","","","","","","","","","","",""
"","S2","","html-keyboard-response","159","232392","0.0-1.0-220.0","0","0","68874","","null","","","null","24","","NaN","","","","","","","","","","","","","",""
"","response","","html-keyboard-response","160","232791","0.0-1.0-221.0-0.0","0","0","68874","","396","","","75","24","","","1","24","training","adjacent","FE","6","5","M.jpg","P.jpg","0","0","1","",""
"","feedback","","html-keyboard-response","161","233796","0.0-1.0-222.0-0.0","0","0","68874","","null","","","null","24","","","","","","","","","","","","","","","",""
"","ITI","","html-keyboard-response","162","234803","0.0-1.0-225.0","0","0","68874","","null","","","null","24","","","","","","","","","","","","","","","NaN",""
"","S1","","html-keyboard-response","163","235058","0.0-1.0-227.0","0","0","68874","","null","","","null","25","","","","","","","","","","","","","","","",""
"","ISI","","html-keyboard-response","164","236064","0.0-1.0-228.0","0","0","68874","","null","","","null","25","NaN","","","","","","","","","","","","","","",""
"","S2","","html-keyboard-response","165","236325","0.0-1.0-229.0","0","0","68874","","null","","","null","25","","NaN","","","","","","","","","","","","","",""
"","response","","html-keyboard-response","166","236955","0.0-1.0-230.0-0.0","0","0","68874","","629","","","75","25","","","1","25","training","adjacent","BC","2","3","L.jpg","O.jpg","0","1","0","",""
"","feedback","","html-keyboard-response","167","237959","0.0-1.0-231.0-0.0","0","0","68874","","null","","","null","25","","","","","","","","","","","","","","","",""
"","time_out","","html-keyboard-response","168","239964","0.0-1.0-233.0-0.0","0","0","68874","","null","","","null","25","","","","","","","","","","","","","","","",""
"","ITI","","html-keyboard-response","169","240970","0.0-1.0-234.0","0","0","68874","","null","","","null","25","","","","","","","","","","","","","","","NaN",""
"","S1","","html-keyboard-response","170","241232","0.0-1.0-236.0","0","0","68874","","null","","","null","26","","","","","","","","","","","","","","","",""
"","ISI","","html-keyboard-response","171","242237","0.0-1.0-237.0","0","0","68874","","null","","","null","26","NaN","","","","","","","","","","","","","","",""
"","S2","","html-keyboard-response","172","242493","0.0-1.0-238.0","0","0","68874","","null","","","null","26","","NaN","","","","","","","","","","","","","",""
"","response","","html-keyboard-response","173","243069","0.0-1.0-239.0-0.0","0","0","68874","","573","","","75","26","","","1","26","training","adjacent","CB","3","2","O.jpg","L.jpg","0","0","1","",""
"","feedback","","html-keyboard-response","174","244078","0.0-1.0-240.0-0.0","0","0","68874","","null","","","null","26","","","","","","","","","","","","","","","",""
"","ITI","","html-keyboard-response","175","245089","0.0-1.0-243.0","0","0","68874","","null","","","null","26","","","","","","","","","","","","","","","NaN",""
"","S1","","html-keyboard-response","176","245345","0.0-1.0-245.0","0","0","68874","","null","","","null","27","","","","","","","","","","","","","","","",""
"","ISI","","html-keyboard-response","177","246353","0.0-1.0-246.0","0","0","68874","","null","","","null","27","NaN","","","","","","","","","","","","","","",""
"","S2","","html-keyboard-response","178","246609","0.0-1.0-247.0","0","0","68874","","null","","","null","27","","NaN","","","","","","","","","","","","","",""
"","response","","html-keyboard-response","179","247128","0.0-1.0-248.0-0.0","0","0","68874","","516","","","68","27","","","1","27","training","adjacent","GF","7","6","N.jpg","M.jpg","1","0","0","",""
"","feedback","","html-keyboard-response","180","248132","0.0-1.0-249.0-0.0","0","0","68874","","null","","","null","27","","","","","","","","","","","","","","","",""
"","time_out","","html-keyboard-response","181","250136","0.0-1.0-251.0-0.0","0","0","68874","","null","","","null","27","","","","","","","","","","","","","","","",""
"","ITI","","html-keyboard-response","182","251139","0.0-1.0-252.0","0","0","68874","","null","","","null","27","","","","","","","","","","","","","","","NaN",""
"","S1","","html-keyboard-response","183","251394","0.0-1.0-254.0","0","0","68874","","null","","","null","28","","","","","","","","","","","","","","","",""
"","ISI","","html-keyboard-response","184","252404","0.0-1.0-255.0","0","0","68874","","null","","","null","28","NaN","","","","","","","","","","","","","","",""
"","S2","","html-keyboard-response","185","252661","0.0-1.0-256.0","0","0","68874","","null","","","null","28","","NaN","","","","","","","","","","","","","",""
"","response","","html-keyboard-response","186","253254","0.0-1.0-257.0-0.0","0","0","68874","","590","","","68","28","","","1","28","training","adjacent","DE","4","5","R.jpg","P.jpg","1","1","1","",""
"","feedback","","html-keyboard-response","187","254262","0.0-1.0-258.0-0.0","0","0","68874","","null","","","null","28","","","","","","","","","","","","","","","",""
"","ITI","","html-keyboard-response","188","255266","0.0-1.0-261.0","0","0","68874","","null","","","null","28","","","","","","","","","","","","","","","NaN",""
"","S1","","html-keyboard-response","189","255523","0.0-1.0-263.0","0","0","68874","","null","","","null","29","","","","","","","","","","","","","","","",""
"","ISI","","html-keyboard-response","190","256529","0.0-1.0-264.0","0","0","68874","","null","","","null","29","NaN","","","","","","","","","","","","","","",""
"","S2","","html-keyboard-response","191","256785","0.0-1.0-265.0","0","0","68874","","null","","","null","29","","NaN","","","","","","","","","","","","","",""
"","response","","html-keyboard-response","192","257274","0.0-1.0-266.0-0.0","0","0","68874","","487","","","75","29","","","1","29","training","adjacent","CD","3","4","O.jpg","R.jpg","0","1","0","",""
"","feedback","","html-keyboard-response","193","258279","0.0-1.0-267.0-0.0","0","0","68874","","null","","","null","29","","","","","","","","","","","","","","","",""
"","time_out","","html-keyboard-response","194","260283","0.0-1.0-269.0-0.0","0","0","68874","","null","","","null","29","","","","","","","","","","","","","","","",""
"","ITI","","html-keyboard-response","195","261290","0.0-1.0-270.0","0","0","68874","","null","","","null","29","","","","","","","","","","","","","","","NaN",""
"","S1","","html-keyboard-response","196","261548","0.0-1.0-272.0","0","0","68874","","null","","","null","30","","","","","","","","","","","","","","","",""
"","ISI","","html-keyboard-response","197","262555","0.0-1.0-273.0","0","0","68874","","null","","","null","30","NaN","","","","","","","","","","","","","","",""
"","S2","","html-keyboard-response","198","262812","0.0-1.0-274.0","0","0","68874","","null","","","null","30","","NaN","","","","","","","","","","","","","",""
"","response","","html-keyboard-response","199","263529","0.0-1.0-275.0-0.0","0","0","68874","","714","","","75","30","","","1","30","training","adjacent","BC","2","3","L.jpg","O.jpg","0","1","0","",""
"","feedback","","html-keyboard-response","200","264539","0.0-1.0-276.0-0.0","0","0","68874","","null","","","null","30","","","","","","","","","","","","","","","",""
"","time_out","","html-keyboard-response","201","266547","0.0-1.0-278.0-0.0","0","0","68874","","null","","","null","30","","","","","","","","","","","","","","","",""
"","ITI","","html-keyboard-response","202","267558","0.0-1.0-279.0","0","0","68874","","null","","","null","30","","","","","","","","","","","","","","","NaN",""
"","S1","","html-keyboard-response","203","267811","0.0-1.0-281.0","0","0","68874","","null","","","null","31","","","","","","","","","","","","","","","",""
"","ISI","","html-keyboard-response","204","268814","0.0-1.0-282.0","0","0","68874","","null","","","null","31","NaN","","","","","","","","","","","","","","",""
"","S2","","html-keyboard-response","205","269070","0.0-1.0-283.0","0","0","68874","","null","","","null","31","","NaN","","","","","","","","","","","","","",""
"","response","","html-keyboard-response","206","269863","0.0-1.0-284.0-0.0","0","0","68874","","791","","","68","31","","","1","31","training","adjacent","EF","5","6","P.jpg","M.jpg","1","1","1","",""
"","feedback","","html-keyboard-response","207","270882","0.0-1.0-285.0-0.0","0","0","68874","","null","","","null","31","","","","","","","","","","","","","","","",""
"","ITI","","html-keyboard-response","208","271888","0.0-1.0-288.0","0","0","68874","","null","","","null","31","","","","","","","","","","","","","","","NaN",""
"","S1","","html-keyboard-response","209","272142","0.0-1.0-290.0","0","0","68874","","null","","","null","32","","","","","","","","","","","","","","","",""
"","ISI","","html-keyboard-response","210","273150","0.0-1.0-291.0","0","0","68874","","null","","","null","32","NaN","","","","","","","","","","","","","","",""
"","S2","","html-keyboard-response","211","273408","0.0-1.0-292.0","0","0","68874","","null","","","null","32","","NaN","","","","","","","","","","","","","",""
"","response","","html-keyboard-response","212","273959","0.0-1.0-293.0-0.0","0","0","68874","","550","","","75","32","","","1","32","training","adjacent","BA","2","1","L.jpg","Q.jpg","0","0","1","",""
"","feedback","","html-keyboard-response","213","274964","0.0-1.0-294.0-0.0","0","0","68874","","null","","","null","32","","","","","","","","","","","","","","","",""
"","ITI","","html-keyboard-response","214","275967","0.0-1.0-297.0","0","0","68874","","null","","","null","32","","","","","","","","","","","","","","","NaN",""
"","S1","","html-keyboard-response","215","276223","0.0-1.0-299.0","0","0","68874","","null","","","null","33","","","","","","","","","","","","","","","",""
"","ISI","","html-keyboard-response","216","277238","0.0-1.0-300.0","0","0","68874","","null","","","null","33","NaN","","","","","","","","","","","","","","",""
"","S2","","html-keyboard-response","217","277497","0.0-1.0-301.0","0","0","68874","","null","","","null","33","","NaN","","","","","","","","","","","","","",""
"","response","","html-keyboard-response","218","277924","0.0-1.0-302.0-0.0","0","0","68874","","425","","","68","33","","","1","33","training","adjacent","BC","2","3","L.jpg","O.jpg","1","1","1","",""
"","feedback","","html-keyboard-response","219","278936","0.0-1.0-303.0-0.0","0","0","68874","","null","","","null","33","","","","","","","","","","","","","","","",""
"","ITI","","html-keyboard-response","220","279941","0.0-1.0-306.0","0","0","68874","","null","","","null","33","","","","","","","","","","","","","","","NaN",""
"","S1","","html-keyboard-response","221","280198","0.0-1.0-308.0","0","0","68874","","null","","","null","34","","","","","","","","","","","","","","","",""
"","ISI","","html-keyboard-response","222","281204","0.0-1.0-309.0","0","0","68874","","null","","","null","34","NaN","","","","","","","","","","","","","","",""
"","S2","","html-keyboard-response","223","281465","0.0-1.0-310.0","0","0","68874","","null","","","null","34","","NaN","","","","","","","","","","","","","",""
"","response","","html-keyboard-response","224","281959","0.0-1.0-311.0-0.0","0","0","68874","","492","","","75","34","","","1","34","training","adjacent","CB","3","2","O.jpg","L.jpg","0","0","1","",""
"","feedback","","html-keyboard-response","225","282963","0.0-1.0-312.0-0.0","0","0","68874","","null","","","null","34","","","","","","","","","","","","","","","",""
"","ITI","","html-keyboard-response","226","283968","0.0-1.0-315.0","0","0","68874","","null","","","null","34","","","","","","","","","","","","","","","NaN",""
"","S1","","html-keyboard-response","227","284227","0.0-1.0-317.0","0","0","68874","","null","","","null","35","","","","","","","","","","","","","","","",""
"","ISI","","html-keyboard-response","228","285233","0.0-1.0-318.0","0","0","68874","","null","","","null","35","NaN","","","","","","","","","","","","","","",""
"","S2","","html-keyboard-response","229","285488","0.0-1.0-319.0","0","0","68874","","null","","","null","35","","NaN","","","","","","","","","","","","","",""
"","response","","html-keyboard-response","230","286036","0.0-1.0-320.0-0.0","0","0","68874","","547","","","75","35","","","1","35","training","adjacent","GF","7","6","N.jpg","M.jpg","0","0","1","",""
"","feedback","","html-keyboard-response","231","287045","0.0-1.0-321.0-0.0","0","0","68874","","null","","","null","35","","","","","","","","","","","","","","","",""
"","ITI","","html-keyboard-response","232","288054","0.0-1.0-324.0","0","0","68874","","null","","","null","35","","","","","","","","","","","","","","","NaN",""
"","S1","","html-keyboard-response","233","288308","0.0-1.0-326.0","0","0","68874","","null","","","null","36","","","","","","","","","","","","","","","",""
"","ISI","","html-keyboard-response","234","289315","0.0-1.0-327.0","0","0","68874","","null","","","null","36","NaN","","","","","","","","","","","","","","",""
"","S2","","html-keyboard-response","235","289568","0.0-1.0-328.0","0","0","68874","","null","","","null","36","","NaN","","","","","","","","","","","","","",""
"","response","","html-keyboard-response","236","290045","0.0-1.0-329.0-0.0","0","0","68874","","474","","","68","36","","","1","36","training","adjacent","BC","2","3","L.jpg","O.jpg","1","1","1","",""
"","feedback","","html-keyboard-response","237","291052","0.0-1.0-330.0-0.0","0","0","68874","","null","","","null","36","","","","","","","","","","","","","","","",""
"","ITI","","html-keyboard-response","238","292067","0.0-1.0-333.0","0","0","68874","","null","","","null","36","","","","","","","","","","","","","","","NaN",""
"","S1","","html-keyboard-response","239","292327","0.0-1.0-335.0","0","0","68874","","null","","","null","37","","","","","","","","","","","","","","","",""
"","ISI","","html-keyboard-response","240","293334","0.0-1.0-336.0","0","0","68874","","null","","","null","37","NaN","","","","","","","","","","","","","","",""
"","S2","","html-keyboard-response","241","293589","0.0-1.0-337.0","0","0","68874","","null","","","null","37","","NaN","","","","","","","","","","","","","",""
"","response","","html-keyboard-response","242","294104","0.0-1.0-338.0-0.0","0","0","68874","","512","","","68","37","","","1","37","training","adjacent","AB","1","2","Q.jpg","L.jpg","1","1","1","",""
"","feedback","","html-keyboard-response","243","295113","0.0-1.0-339.0-0.0","0","0","68874","","null","","","null","37","","","","","","","","","","","","","","","",""
"","ITI","","html-keyboard-response","244","296116","0.0-1.0-342.0","0","0","68874","","null","","","null","37","","","","","","","","","","","","","","","NaN",""
"","S1","","html-keyboard-response","245","296375","0.0-1.0-344.0","0","0","68874","","null","","","null","38","","","","","","","","","","","","","","","",""
"","ISI","","html-keyboard-response","246","297384","0.0-1.0-345.0","0","0","68874","","null","","","null","38","NaN","","","","","","","","","","","","","","",""
"","S2","","html-keyboard-response","247","297642","0.0-1.0-346.0","0","0","68874","","null","","","null","38","","NaN","","","","","","","","","","","","","",""
"","response","","html-keyboard-response","248","298132","0.0-1.0-347.0-0.0","0","0","68874","","488","","","75","38","","","1","38","training","adjacent","DE","4","5","R.jpg","P.jpg","0","1","0","",""
"","feedback","","html-keyboard-response","249","299143","0.0-1.0-348.0-0.0","0","0","68874","","null","","","null","38","","","","","","","","","","","","","","","",""
"","time_out","","html-keyboard-response","250","301150","0.0-1.0-350.0-0.0","0","0","68874","","null","","","null","38","","","","","","","","","","","","","","","",""
"","ITI","","html-keyboard-response","251","302157","0.0-1.0-351.0","0","0","68874","","null","","","null","38","","","","","","","","","","","","","","","NaN",""
"","S1","","html-keyboard-response","252","302417","0.0-1.0-353.0","0","0","68874","","null","","","null","39","","","","","","","","","","","","","","","",""
"","ISI","","html-keyboard-response","253","303425","0.0-1.0-354.0","0","0","68874","","null","","","null","39","NaN","","","","","","","","","","","","","","",""
"","S2","","html-keyboard-response","254","303682","0.0-1.0-355.0","0","0","68874","","null","","","null","39","","NaN","","","","","","","","","","","","","",""
"","response","","html-keyboard-response","255","304788","0.0-1.0-356.0-0.0","0","0","68874","","1104","","","68","39","","","1","39","training","adjacent","ED","5","4","P.jpg","R.jpg","1","0","0","",""
"","feedback","","html-keyboard-response","256","305794","0.0-1.0-357.0-0.0","0","0","68874","","null","","","null","39","","","","","","","","","","","","","","","",""
"","time_out","","html-keyboard-response","257","307800","0.0-1.0-359.0-0.0","0","0","68874","","null","","","null","39","","","","","","","","","","","","","","","",""
"","ITI","","html-keyboard-response","258","308803","0.0-1.0-360.0","0","0","68874","","null","","","null","39","","","","","","","","","","","","","","","NaN",""
"","S1","","html-keyboard-response","259","309058","0.0-1.0-362.0","0","0","68874","","null","","","null","40","","","","","","","","","","","","","","","",""
"","ISI","","html-keyboard-response","260","310062","0.0-1.0-363.0","0","0","68874","","null","","","null","40","NaN","","","","","","","","","","","","","","",""
"","S2","","html-keyboard-response","261","310319","0.0-1.0-364.0","0","0","68874","","null","","","null","40","","NaN","","","","","","","","","","","","","",""
"","response","","html-keyboard-response","262","311178","0.0-1.0-365.0-0.0","0","0","68874","","858","","","68","40","","","1","40","training","adjacent","FG","6","7","M.jpg","N.jpg","1","1","1","",""
"","feedback","","html-keyboard-response","263","312189","0.0-1.0-366.0-0.0","0","0","68874","","null","","","null","40","","","","","","","","","","","","","","","",""
"","ITI","","html-keyboard-response","264","313196","0.0-1.0-369.0","0","0","68874","","null","","","null","40","","","","","","","","","","","","","","","NaN",""
"","S1","","html-keyboard-response","265","313452","0.0-1.0-371.0","0","0","68874","","null","","","null","41","","","","","","","","","","","","","","","",""
"","ISI","","html-keyboard-response","266","314460","0.0-1.0-372.0","0","0","68874","","null","","","null","41","NaN","","","","","","","","","","","","","","",""
"","S2","","html-keyboard-response","267","314716","0.0-1.0-373.0","0","0","68874","","null","","","null","41","","NaN","","","","","","","","","","","","","",""
"","response","","html-keyboard-response","268","315313","0.0-1.0-374.0-0.0","0","0","68874","","595","","","75","41","","","1","41","training","adjacent","CD","3","4","O.jpg","R.jpg","0","1","0","",""
"","feedback","","html-keyboard-response","269","316324","0.0-1.0-375.0-0.0","0","0","68874","","null","","","null","41","","","","","","","","","","","","","","","",""
"","time_out","","html-keyboard-response","270","318333","0.0-1.0-377.0-0.0","0","0","68874","","null","","","null","41","","","","","","","","","","","","","","","",""
"","ITI","","html-keyboard-response","271","319341","0.0-1.0-378.0","0","0","68874","","null","","","null","41","","","","","","","","","","","","","","","NaN",""
"","S1","","html-keyboard-response","272","319597","0.0-1.0-380.0","0","0","68874","","null","","","null","42","","","","","","","","","","","","","","","",""
"","ISI","","html-keyboard-response","273","320603","0.0-1.0-381.0","0","0","68874","","null","","","null","42","NaN","","","","","","","","","","","","","","",""
"","S2","","html-keyboard-response","274","320862","0.0-1.0-382.0","0","0","68874","","null","","","null","42","","NaN","","","","","","","","","","","","","",""
"","response","","html-keyboard-response","275","321273","0.0-1.0-383.0-0.0","0","0","68874","","409","","","75","42","","","1","42","training","adjacent","BA","2","1","L.jpg","Q.jpg","0","0","1","",""
"","feedback","","html-keyboard-response","276","322276","0.0-1.0-384.0-0.0","0","0","68874","","null","","","null","42","","","","","","","","","","","","","","","",""
"","ITI","","html-keyboard-response","277","323284","0.0-1.0-387.0","0","0","68874","","null","","","null","42","","","","","","","","","","","","","","","NaN",""
"","S1","","html-keyboard-response","278","323540","0.0-1.0-389.0","0","0","68874","","null","","","null","43","","","","","","","","","","","","","","","",""
"","ISI","","html-keyboard-response","279","324550","0.0-1.0-390.0","0","0","68874","","null","","","null","43","NaN","","","","","","","","","","","","","","",""
"","S2","","html-keyboard-response","280","324807","0.0-1.0-391.0","0","0","68874","","null","","","null","43","","NaN","","","","","","","","","","","","","",""
"","response","","html-keyboard-response","281","325469","0.0-1.0-392.0-0.0","0","0","68874","","660","","","75","43","","","1","43","training","adjacent","FE","6","5","M.jpg","P.jpg","0","0","1","",""
"","feedback","","html-keyboard-response","282","326480","0.0-1.0-393.0-0.0","0","0","68874","","null","","","null","43","","","","","","","","","","","","","","","",""
"","ITI","","html-keyboard-response","283","327488","0.0-1.0-396.0","0","0","68874","","null","","","null","43","","","","","","","","","","","","","","","NaN",""
"","S1","","html-keyboard-response","284","327747","0.0-1.0-398.0","0","0","68874","","null","","","null","44","","","","","","","","","","","","","","","",""
"","ISI","","html-keyboard-response","285","328754","0.0-1.0-399.0","0","0","68874","","null","","","null","44","NaN","","","","","","","","","","","","","","",""
"","S2","","html-keyboard-response","286","329015","0.0-1.0-400.0","0","0","68874","","null","","","null","44","","NaN","","","","","","","","","","","","","",""
"","response","","html-keyboard-response","287","329682","0.0-1.0-401.0-0.0","0","0","68874","","666","","","75","44","","","1","44","training","adjacent","GF","7","6","N.jpg","M.jpg","0","0","1","",""
"","feedback","","html-keyboard-response","288","330690","0.0-1.0-402.0-0.0","0","0","68874","","null","","","null","44","","","","","","","","","","","","","","","",""
"","ITI","","html-keyboard-response","289","331695","0.0-1.0-405.0","0","0","68874","","null","","","null","44","","","","","","","","","","","","","","","NaN",""
"","S1","","html-keyboard-response","290","331951","0.0-1.0-407.0","0","0","68874","","null","","","null","45","","","","","","","","","","","","","","","",""
"","ISI","","html-keyboard-response","291","332968","0.0-1.0-408.0","0","0","68874","","null","","","null","45","NaN","","","","","","","","","","","","","","",""
"","S2","","html-keyboard-response","292","333230","0.0-1.0-409.0","0","0","68874","","null","","","null","45","","NaN","","","","","","","","","","","","","",""
"","response","","html-keyboard-response","293","333813","0.0-1.0-410.0-0.0","0","0","68874","","581","","","68","45","","","1","45","training","adjacent","DE","4","5","R.jpg","P.jpg","1","1","1","",""
"","feedback","","html-keyboard-response","294","334818","0.0-1.0-411.0-0.0","0","0","68874","","null","","","null","45","","","","","","","","","","","","","","","",""
"","ITI","","html-keyboard-response","295","335828","0.0-1.0-414.0","0","0","68874","","null","","","null","45","","","","","","","","","","","","","","","NaN",""
"","S1","","html-keyboard-response","296","336081","0.0-1.0-416.0","0","0","68874","","null","","","null","46","","","","","","","","","","","","","","","",""
"","ISI","","html-keyboard-response","297","337091","0.0-1.0-417.0","0","0","68874","","null","","","null","46","NaN","","","","","","","","","","","","","","",""
"","S2","","html-keyboard-response","298","337347","0.0-1.0-418.0","0","0","68874","","null","","","null","46","","NaN","","","","","","","","","","","","","",""
"","response","","html-keyboard-response","299","338074","0.0-1.0-419.0-0.0","0","0","68874","","725","","","68","46","","","1","46","training","adjacent","FG","6","7","M.jpg","N.jpg","1","1","1","",""
"","feedback","","html-keyboard-response","300","339080","0.0-1.0-420.0-0.0","0","0","68874","","null","","","null","46","","","","","","","","","","","","","","","",""
"","ITI","","html-keyboard-response","301","340085","0.0-1.0-423.0","0","0","68874","","null","","","null","46","","","","","","","","","","","","","","","NaN",""
"","S1","","html-keyboard-response","302","340340","0.0-1.0-425.0","0","0","68874","","null","","","null","47","","","","","","","","","","","","","","","",""
"","ISI","","html-keyboard-response","303","341351","0.0-1.0-426.0","0","0","68874","","null","","","null","47","NaN","","","","","","","","","","","","","","",""
"","S2","","html-keyboard-response","304","341609","0.0-1.0-427.0","0","0","68874","","null","","","null","47","","NaN","","","","","","","","","","","","","",""
"","response","","html-keyboard-response","305","341987","0.0-1.0-428.0-0.0","0","0","68874","","375","","","68","47","","","1","47","training","adjacent","FG","6","7","M.jpg","N.jpg","1","1","1","",""
"","feedback","","html-keyboard-response","306","342995","0.0-1.0-429.0-0.0","0","0","68874","","null","","","null","47","","","","","","","","","","","","","","","",""
"","ITI","","html-keyboard-response","307","344000","0.0-1.0-432.0","0","0","68874","","null","","","null","47","","","","","","","","","","","","","","","NaN",""
"","block_over","","html-keyboard-response","308","349147","0.0-1.0-433.0-0.0","0","0","68874","","5145","","","32","47","","","","","","","","","","","","","","","",""
"","S1","","html-keyboard-response","309","349408","0.0-1.0-434.0","0","0","68874","","null","","","null","48","","","","","","","","","","","","","","","",""
"","ISI","","html-keyboard-response","310","350413","0.0-1.0-435.0","0","0","68874","","null","","","null","48","NaN","","","","","","","","","","","","","","",""
"","S2","","html-keyboard-response","311","350674","0.0-1.0-436.0","0","0","68874","","null","","","null","48","","NaN","","","","","","","","","","","","","",""
"","response","","html-keyboard-response","312","351210","0.0-1.0-437.0-0.0","0","0","68874","","533","","","68","48","","","2","48","training","adjacent","FG","6","7","M.jpg","N.jpg","1","1","1","",""
"","feedback","","html-keyboard-response","313","352220","0.0-1.0-438.0-0.0","0","0","68874","","null","","","null","48","","","","","","","","","","","","","","","",""
"","ITI","","html-keyboard-response","314","353227","0.0-1.0-441.0","0","0","68874","","null","","","null","48","","","","","","","","","","","","","","","NaN",""
"","S1","","html-keyboard-response","315","353486","0.0-1.0-443.0","0","0","68874","","null","","","null","49","","","","","","","","","","","","","","","",""
"","ISI","","html-keyboard-response","316","354496","0.0-1.0-444.0","0","0","68874","","null","","","null","49","NaN","","","","","","","","","","","","","","",""
"","S2","","html-keyboard-response","317","354753","0.0-1.0-445.0","0","0","68874","","null","","","null","49","","NaN","","","","","","","","","","","","","",""
"","response","","html-keyboard-response","318","355145","0.0-1.0-446.0-0.0","0","0","68874","","389","","","68","49","","","2","49","training","adjacent","AB","1","2","Q.jpg","L.jpg","1","1","1","",""
"","feedback","","html-keyboard-response","319","356151","0.0-1.0-447.0-0.0","0","0","68874","","null","","","null","49","","","","","","","","","","","","","","","",""
"","ITI","","html-keyboard-response","320","357157","0.0-1.0-450.0","0","0","68874","","null","","","null","49","","","","","","","","","","","","","","","NaN",""
"","S1","","html-keyboard-response","321","357412","0.0-1.0-452.0","0","0","68874","","null","","","null","50","","","","","","","","","","","","","","","",""
"","ISI","","html-keyboard-response","322","358416","0.0-1.0-453.0","0","0","68874","","null","","","null","50","NaN","","","","","","","","","","","","","","",""
"","S2","","html-keyboard-response","323","358674","0.0-1.0-454.0","0","0","68874","","null","","","null","50","","NaN","","","","","","","","","","","","","",""
"","response","","html-keyboard-response","324","359037","0.0-1.0-455.0-0.0","0","0","68874","","360","","","75","50","","","2","50","training","adjacent","GF","7","6","N.jpg","M.jpg","0","0","1","",""
"","feedback","","html-keyboard-response","325","360045","0.0-1.0-456.0-0.0","0","0","68874","","null","","","null","50","","","","","","","","","","","","","","","",""
"","ITI","","html-keyboard-response","326","361053","0.0-1.0-459.0","0","0","68874","","null","","","null","50","","","","","","","","","","","","","","","NaN",""
"","S1","","html-keyboard-response","327","361307","0.0-1.0-461.0","0","0","68874","","null","","","null","51","","","","","","","","","","","","","","","",""
"","ISI","","html-keyboard-response","328","362316","0.0-1.0-462.0","0","0","68874","","null","","","null","51","NaN","","","","","","","","","","","","","","",""
"","S2","","html-keyboard-response","329","362577","0.0-1.0-463.0","0","0","68874","","null","","","null","51","","NaN","","","","","","","","","","","","","",""
"","response","","html-keyboard-response","330","363056","0.0-1.0-464.0-0.0","0","0","68874","","476","","","68","51","","","2","51","training","adjacent","AB","1","2","Q.jpg","L.jpg","1","1","1","",""
"","feedback","","html-keyboard-response","331","364065","0.0-1.0-465.0-0.0","0","0","68874","","null","","","null","51","","","","","","","","","","","","","","","",""
"","ITI","","html-keyboard-response","332","365073","0.0-1.0-468.0","0","0","68874","","null","","","null","51","","","","","","","","","","","","","","","NaN",""
"","S1","","html-keyboard-response","333","365331","0.0-1.0-470.0","0","0","68874","","null","","","null","52","","","","","","","","","","","","","","","",""
"","ISI","","html-keyboard-response","334","366338","0.0-1.0-471.0","0","0","68874","","null","","","null","52","NaN","","","","","","","","","","","","","","",""
"","S2","","html-keyboard-response","335","366598","0.0-1.0-472.0","0","0","68874","","null","","","null","52","","NaN","","","","","","","","","","","","","",""
"","response","","html-keyboard-response","336","367690","0.0-1.0-473.0-0.0","0","0","68874","","1089","","","75","52","","","2","52","training","adjacent","CB","3","2","O.jpg","L.jpg","0","0","1","",""
"","feedback","","html-keyboard-response","337","368699","0.0-1.0-474.0-0.0","0","0","68874","","null","","","null","52","","","","","","","","","","","","","","","",""
"","ITI","","html-keyboard-response","338","369705","0.0-1.0-477.0","0","0","68874","","null","","","null","52","","","","","","","","","","","","","","","NaN",""
"","S1","","html-keyboard-response","339","369962","0.0-1.0-479.0","0","0","68874","","null","","","null","53","","","","","","","","","","","","","","","",""
"","ISI","","html-keyboard-response","340","370965","0.0-1.0-480.0","0","0","68874","","null","","","null","53","NaN","","","","","","","","","","","","","","",""
"","S2","","html-keyboard-response","341","371220","0.0-1.0-481.0","0","0","68874","","null","","","null","53","","NaN","","","","","","","","","","","","","",""
"","response","","html-keyboard-response","342","371653","0.0-1.0-482.0-0.0","0","0","68874","","431","","","68","53","","","2","53","training","adjacent","FG","6","7","M.jpg","N.jpg","1","1","1","",""
"","feedback","","html-keyboard-response","343","372657","0.0-1.0-483.0-0.0","0","0","68874","","null","","","null","53","","","","","","","","","","","","","","","",""
"","ITI","","html-keyboard-response","344","373667","0.0-1.0-486.0","0","0","68874","","null","","","null","53","","","","","","","","","","","","","","","NaN",""
"","S1","","html-keyboard-response","345","373923","0.0-1.0-488.0","0","0","68874","","null","","","null","54","","","","","","","","","","","","","","","",""
"","ISI","","html-keyboard-response","346","374928","0.0-1.0-489.0","0","0","68874","","null","","","null","54","NaN","","","","","","","","","","","","","","",""
"","S2","","html-keyboard-response","347","375183","0.0-1.0-490.0","0","0","68874","","null","","","null","54","","NaN","","","","","","","","","","","","","",""
"","response","","html-keyboard-response","348","375545","0.0-1.0-491.0-0.0","0","0","68874","","359","","","68","54","","","2","54","training","adjacent","BC","2","3","L.jpg","O.jpg","1","1","1","",""
"","feedback","","html-keyboard-response","349","376550","0.0-1.0-492.0-0.0","0","0","68874","","null","","","null","54","","","","","","","","","","","","","","","",""
"","ITI","","html-keyboard-response","350","377561","0.0-1.0-495.0","0","0","68874","","null","","","null","54","","","","","","","","","","","","","","","NaN",""
"","S1","","html-keyboard-response","351","377822","0.0-1.0-497.0","0","0","68874","","null","","","null","55","","","","","","","","","","","","","","","",""
"","ISI","","html-keyboard-response","352","378825","0.0-1.0-498.0","0","0","68874","","null","","","null","55","NaN","","","","","","","","","","","","","","",""
"","S2","","html-keyboard-response","353","379080","0.0-1.0-499.0","0","0","68874","","null","","","null","55","","NaN","","","","","","","","","","","","","",""
"","response","","html-keyboard-response","354","379637","0.0-1.0-500.0-0.0","0","0","68874","","555","","","75","55","","","2","55","training","adjacent","ED","5","4","P.jpg","R.jpg","0","0","1","",""
"","feedback","","html-keyboard-response","355","380640","0.0-1.0-501.0-0.0","0","0","68874","","null","","","null","55","","","","","","","","","","","","","","","",""
"","ITI","","html-keyboard-response","356","381649","0.0-1.0-504.0","0","0","68874","","null","","","null","55","","","","","","","","","","","","","","","NaN",""
"","S1","","html-keyboard-response","357","381904","0.0-1.0-506.0","0","0","68874","","null","","","null","56","","","","","","","","","","","","","","","",""
"","ISI","","html-keyboard-response","358","382913","0.0-1.0-507.0","0","0","68874","","null","","","null","56","NaN","","","","","","","","","","","","","","",""
"","S2","","html-keyboard-response","359","383171","0.0-1.0-508.0","0","0","68874","","null","","","null","56","","NaN","","","","","","","","","","","","","",""
"","response","","html-keyboard-response","360","383719","0.0-1.0-509.0-0.0","0","0","68874","","545","","","68","56","","","2","56","training","adjacent","FE","6","5","M.jpg","P.jpg","1","0","0","",""
"","feedback","","html-keyboard-response","361","384731","0.0-1.0-510.0-0.0","0","0","68874","","null","","","null","56","","","","","","","","","","","","","","","",""
"","time_out","","html-keyboard-response","362","386737","0.0-1.0-512.0-0.0","0","0","68874","","null","","","null","56","","","","","","","","","","","","","","","",""
"","ITI","","html-keyboard-response","363","387743","0.0-1.0-513.0","0","0","68874","","null","","","null","56","","","","","","","","","","","","","","","NaN",""
"","S1","","html-keyboard-response","364","387998","0.0-1.0-515.0","0","0","68874","","null","","","null","57","","","","","","","","","","","","","","","",""
"","ISI","","html-keyboard-response","365","389009","0.0-1.0-516.0","0","0","68874","","null","","","null","57","NaN","","","","","","","","","","","","","","",""
"","S2","","html-keyboard-response","366","389264","0.0-1.0-517.0","0","0","68874","","null","","","null","57","","NaN","","","","","","","","","","","","","",""
"","response","","html-keyboard-response","367","389694","0.0-1.0-518.0-0.0","0","0","68874","","429","","","68","57","","","2","57","training","adjacent","FG","6","7","M.jpg","N.jpg","1","1","1","",""
"","feedback","","html-keyboard-response","368","390698","0.0-1.0-519.0-0.0","0","0","68874","","null","","","null","57","","","","","","","","","","","","","","","",""
"","ITI","","html-keyboard-response","369","391704","0.0-1.0-522.0","0","0","68874","","null","","","null","57","","","","","","","","","","","","","","","NaN",""
"","S1","","html-keyboard-response","370","391961","0.0-1.0-524.0","0","0","68874","","null","","","null","58","","","","","","","","","","","","","","","",""
"","ISI","","html-keyboard-response","371","392970","0.0-1.0-525.0","0","0","68874","","null","","","null","58","NaN","","","","","","","","","","","","","","",""
"","S2","","html-keyboard-response","372","393227","0.0-1.0-526.0","0","0","68874","","null","","","null","58","","NaN","","","","","","","","","","","","","",""
"","response","","html-keyboard-response","373","394213","0.0-1.0-527.0-0.0","0","0","68874","","983","","","75","58","","","2","58","training","adjacent","DC","4","3","R.jpg","O.jpg","0","0","1","",""
"","feedback","","html-keyboard-response","374","395220","0.0-1.0-528.0-0.0","0","0","68874","","null","","","null","58","","","","","","","","","","","","","","","",""
"","ITI","","html-keyboard-response","375","396227","0.0-1.0-531.0","0","0","68874","","null","","","null","58","","","","","","","","","","","","","","","NaN",""
"","S1","","html-keyboard-response","376","396487","0.0-1.0-533.0","0","0","68874","","null","","","null","59","","","","","","","","","","","","","","","",""
"","ISI","","html-keyboard-response","377","397492","0.0-1.0-534.0","0","0","68874","","null","","","null","59","NaN","","","","","","","","","","","","","","",""
"","S2","","html-keyboard-response","378","397751","0.0-1.0-535.0","0","0","68874","","null","","","null","59","","NaN","","","","","","","","","","","","","",""
"","response","","html-keyboard-response","379","398507","0.0-1.0-536.0-0.0","0","0","68874","","753","","","75","59","","","2","59","training","adjacent","ED","5","4","P.jpg","R.jpg","0","0","1","",""
"","feedback","","html-keyboard-response","380","399511","0.0-1.0-537.0-0.0","0","0","68874","","null","","","null","59","","","","","","","","","","","","","","","",""
"","ITI","","html-keyboard-response","381","400528","0.0-1.0-540.0","0","0","68874","","null","","","null","59","","","","","","","","","","","","","","","NaN",""
"","S1","","html-keyboard-response","382","400786","0.0-1.0-542.0","0","0","68874","","null","","","null","60","","","","","","","","","","","","","","","",""
"","ISI","","html-keyboard-response","383","401795","0.0-1.0-543.0","0","0","68874","","null","","","null","60","NaN","","","","","","","","","","","","","","",""
"","S2","","html-keyboard-response","384","402051","0.0-1.0-544.0","0","0","68874","","null","","","null","60","","NaN","","","","","","","","","","","","","",""
"","response","","html-keyboard-response","385","402538","0.0-1.0-545.0-0.0","0","0","68874","","484","","","75","60","","","2","60","training","adjacent","DC","4","3","R.jpg","O.jpg","0","0","1","",""
"","feedback","","html-keyboard-response","386","403543","0.0-1.0-546.0-0.0","0","0","68874","","null","","","null","60","","","","","","","","","","","","","","","",""
"","ITI","","html-keyboard-response","387","404549","0.0-1.0-549.0","0","0","68874","","null","","","null","60","","","","","","","","","","","","","","","NaN",""
"","S1","","html-keyboard-response","388","404810","0.0-1.0-551.0","0","0","68874","","null","","","null","61","","","","","","","","","","","","","","","",""
"","ISI","","html-keyboard-response","389","405823","0.0-1.0-552.0","0","0","68874","","null","","","null","61","NaN","","","","","","","","","","","","","","",""
"","S2","","html-keyboard-response","390","406080","0.0-1.0-553.0","0","0","68874","","null","","","null","61","","NaN","","","","","","","","","","","","","",""
"","response","","html-keyboard-response","391","406458","0.0-1.0-554.0-0.0","0","0","68874","","377","","","75","61","","","2","61","training","adjacent","GF","7","6","N.jpg","M.jpg","0","0","1","",""
"","feedback","","html-keyboard-response","392","407469","0.0-1.0-555.0-0.0","0","0","68874","","null","","","null","61","","","","","","","","","","","","","","","",""
"","ITI","","html-keyboard-response","393","408478","0.0-1.0-558.0","0","0","68874","","null","","","null","61","","","","","","","","","","","","","","","NaN",""
"","S1","","html-keyboard-response","394","408734","0.0-1.0-560.0","0","0","68874","","null","","","null","62","","","","","","","","","","","","","","","",""
"","ISI","","html-keyboard-response","395","409745","0.0-1.0-561.0","0","0","68874","","null","","","null","62","NaN","","","","","","","","","","","","","","",""
"","S2","","html-keyboard-response","396","410000","0.0-1.0-562.0","0","0","68874","","null","","","null","62","","NaN","","","","","","","","","","","","","",""
"","response","","html-keyboard-response","397","410462","0.0-1.0-563.0-0.0","0","0","68874","","459","","","68","62","","","2","62","training","adjacent","CD","3","4","O.jpg","R.jpg","1","1","1","",""
"","feedback","","html-keyboard-response","398","411468","0.0-1.0-564.0-0.0","0","0","68874","","null","","","null","62","","","","","","","","","","","","","","","",""
"","ITI","","html-keyboard-response","399","412477","0.0-1.0-567.0","0","0","68874","","null","","","null","62","","","","","","","","","","","","","","","NaN",""
"","S1","","html-keyboard-response","400","412733","0.0-1.0-569.0","0","0","68874","","null","","","null","63","","","","","","","","","","","","","","","",""
"","ISI","","html-keyboard-response","401","413736","0.0-1.0-570.0","0","0","68874","","null","","","null","63","NaN","","","","","","","","","","","","","","",""
"","S2","","html-keyboard-response","402","413995","0.0-1.0-571.0","0","0","68874","","null","","","null","63","","NaN","","","","","","","","","","","","","",""
"","response","","html-keyboard-response","403","414680","0.0-1.0-572.0-0.0","0","0","68874","","682","","","68","63","","","2","63","training","adjacent","FE","6","5","M.jpg","P.jpg","1","0","0","",""
"","feedback","","html-keyboard-response","404","415690","0.0-1.0-573.0-0.0","0","0","68874","","null","","","null","63","","","","","","","","","","","","","","","",""
"","time_out","","html-keyboard-response","405","417699","0.0-1.0-575.0-0.0","0","0","68874","","null","","","null","63","","","","","","","","","","","","","","","",""
"","ITI","","html-keyboard-response","406","418707","0.0-1.0-576.0","0","0","68874","","null","","","null","63","","","","","","","","","","","","","","","NaN",""
"","S1","","html-keyboard-response","407","418963","0.0-1.0-578.0","0","0","68874","","null","","","null","64","","","","","","","","","","","","","","","",""
"","ISI","","html-keyboard-response","408","419973","0.0-1.0-579.0","0","0","68874","","null","","","null","64","NaN","","","","","","","","","","","","","","",""
"","S2","","html-keyboard-response","409","420228","0.0-1.0-580.0","0","0","68874","","null","","","null","64","","NaN","","","","","","","","","","","","","",""
"","response","","html-keyboard-response","410","420702","0.0-1.0-581.0-0.0","0","0","68874","","472","","","75","64","","","2","64","training","adjacent","BA","2","1","L.jpg","Q.jpg","0","0","1","",""
"","feedback","","html-keyboard-response","411","421709","0.0-1.0-582.0-0.0","0","0","68874","","null","","","null","64","","","","","","","","","","","","","","","",""
"","ITI","","html-keyboard-response","412","422720","0.0-1.0-585.0","0","0","68874","","null","","","null","64","","","","","","","","","","","","","","","NaN",""
"","S1","","html-keyboard-response","413","422977","0.0-1.0-587.0","0","0","68874","","null","","","null","65","","","","","","","","","","","","","","","",""
"","ISI","","html-keyboard-response","414","423988","0.0-1.0-588.0","0","0","68874","","null","","","null","65","NaN","","","","","","","","","","","","","","",""
"","S2","","html-keyboard-response","415","424246","0.0-1.0-589.0","0","0","68874","","null","","","null","65","","NaN","","","","","","","","","","","","","",""
"","response","","html-keyboard-response","416","424689","0.0-1.0-590.0-0.0","0","0","68874","","440","","","75","65","","","2","65","training","adjacent","CB","3","2","O.jpg","L.jpg","0","0","1","",""
"","feedback","","html-keyboard-response","417","425693","0.0-1.0-591.0-0.0","0","0","68874","","null","","","null","65","","","","","","","","","","","","","","","",""
"","ITI","","html-keyboard-response","418","426699","0.0-1.0-594.0","0","0","68874","","null","","","null","65","","","","","","","","","","","","","","","NaN",""
"","S1","","html-keyboard-response","419","426955","0.0-1.0-596.0","0","0","68874","","null","","","null","66","","","","","","","","","","","","","","","",""
"","ISI","","html-keyboard-response","420","427960","0.0-1.0-597.0","0","0","68874","","null","","","null","66","NaN","","","","","","","","","","","","","","",""
"","S2","","html-keyboard-response","421","428219","0.0-1.0-598.0","0","0","68874","","null","","","null","66","","NaN","","","","","","","","","","","","","",""
"","response","","html-keyboard-response","422","428706","0.0-1.0-599.0-0.0","0","0","68874","","484","","","75","66","","","2","66","training","adjacent","CD","3","4","O.jpg","R.jpg","0","1","0","",""
"","feedback","","html-keyboard-response","423","429716","0.0-1.0-600.0-0.0","0","0","68874","","null","","","null","66","","","","","","","","","","","","","","","",""
"","time_out","","html-keyboard-response","424","431722","0.0-1.0-602.0-0.0","0","0","68874","","null","","","null","66","","","","","","","","","","","","","","","",""
"","ITI","","html-keyboard-response","425","432731","0.0-1.0-603.0","0","0","68874","","null","","","null","66","","","","","","","","","","","","","","","NaN",""
"","S1","","html-keyboard-response","426","432993","0.0-1.0-605.0","0","0","68874","","null","","","null","67","","","","","","","","","","","","","","","",""
"","ISI","","html-keyboard-response","427","433998","0.0-1.0-606.0","0","0","68874","","null","","","null","67","NaN","","","","","","","","","","","","","","",""
"","S2","","html-keyboard-response","428","434253","0.0-1.0-607.0","0","0","68874","","null","","","null","67","","NaN","","","","","","","","","","","","","",""
"","response","","html-keyboard-response","429","434741","0.0-1.0-608.0-0.0","0","0","68874","","485","","","68","67","","","2","67","training","adjacent","DE","4","5","R.jpg","P.jpg","1","1","1","",""
"","feedback","","html-keyboard-response","430","435747","0.0-1.0-609.0-0.0","0","0","68874","","null","","","null","67","","","","","","","","","","","","","","","",""
"","ITI","","html-keyboard-response","431","436756","0.0-1.0-612.0","0","0","68874","","null","","","null","67","","","","","","","","","","","","","","","NaN",""
"","S1","","html-keyboard-response","432","437013","0.0-1.0-614.0","0","0","68874","","null","","","null","68","","","","","","","","","","","","","","","",""
"","ISI","","html-keyboard-response","433","438021","0.0-1.0-615.0","0","0","68874","","null","","","null","68","NaN","","","","","","","","","","","","","","",""
"","S2","","html-keyboard-response","434","438274","0.0-1.0-616.0","0","0","68874","","null","","","null","68","","NaN","","","","","","","","","","","","","",""
"","response","","html-keyboard-response","435","438734","0.0-1.0-617.0-0.0","0","0","68874","","457","","","68","68","","","2","68","training","adjacent","DE","4","5","R.jpg","P.jpg","1","1","1","",""
"","feedback","","html-keyboard-response","436","439744","0.0-1.0-618.0-0.0","0","0","68874","","null","","","null","68","","","","","","","","","","","","","","","",""
"","ITI","","html-keyboard-response","437","440754","0.0-1.0-621.0","0","0","68874","","null","","","null","68","","","","","","","","","","","","","","","NaN",""
"","S1","","html-keyboard-response","438","441014","0.0-1.0-623.0","0","0","68874","","null","","","null","69","","","","","","","","","","","","","","","",""
"","ISI","","html-keyboard-response","439","442023","0.0-1.0-624.0","0","0","68874","","null","","","null","69","NaN","","","","","","","","","","","","","","",""
"","S2","","html-keyboard-response","440","442281","0.0-1.0-625.0","0","0","68874","","null","","","null","69","","NaN","","","","","","","","","","","","","",""
"","response","","html-keyboard-response","441","442724","0.0-1.0-626.0-0.0","0","0","68874","","441","","","75","69","","","2","69","training","adjacent","EF","5","6","P.jpg","M.jpg","0","1","0","",""
"","feedback","","html-keyboard-response","442","443733","0.0-1.0-627.0-0.0","0","0","68874","","null","","","null","69","","","","","","","","","","","","","","","",""
"","time_out","","html-keyboard-response","443","445743","0.0-1.0-629.0-0.0","0","0","68874","","null","","","null","69","","","","","","","","","","","","","","","",""
"","ITI","","html-keyboard-response","444","446751","0.0-1.0-630.0","0","0","68874","","null","","","null","69","","","","","","","","","","","","","","","NaN",""
"","S1","","html-keyboard-response","445","447009","0.0-1.0-632.0","0","0","68874","","null","","","null","70","","","","","","","","","","","","","","","",""
"","ISI","","html-keyboard-response","446","448017","0.0-1.0-633.0","0","0","68874","","null","","","null","70","NaN","","","","","","","","","","","","","","",""
"","S2","","html-keyboard-response","447","448275","0.0-1.0-634.0","0","0","68874","","null","","","null","70","","NaN","","","","","","","","","","","","","",""
"","response","","html-keyboard-response","448","448796","0.0-1.0-635.0-0.0","0","0","68874","","519","","","75","70","","","2","70","training","adjacent","ED","5","4","P.jpg","R.jpg","0","0","1","",""
"","feedback","","html-keyboard-response","449","449803","0.0-1.0-636.0-0.0","0","0","68874","","null","","","null","70","","","","","","","","","","","","","","","",""
"","ITI","","html-keyboard-response","450","450811","0.0-1.0-639.0","0","0","68874","","null","","","null","70","","","","","","","","","","","","","","","NaN",""
"","S1","","html-keyboard-response","451","451073","0.0-1.0-641.0","0","0","68874","","null","","","null","71","","","","","","","","","","","","","","","",""
"","ISI","","html-keyboard-response","452","452080","0.0-1.0-642.0","0","0","68874","","null","","","null","71","NaN","","","","","","","","","","","","","","",""
"","S2","","html-keyboard-response","453","452341","0.0-1.0-643.0","0","0","68874","","null","","","null","71","","NaN","","","","","","","","","","","","","",""
"","response","","html-keyboard-response","454","453409","0.0-1.0-644.0-0.0","0","0","68874","","1067","","","75","71","","","2","71","training","adjacent","BC","2","3","L.jpg","O.jpg","0","1","0","",""
"","feedback","","html-keyboard-response","455","454419","0.0-1.0-645.0-0.0","0","0","68874","","null","","","null","71","","","","","","","","","","","","","","","",""
"","time_out","","html-keyboard-response","456","456428","0.0-1.0-647.0-0.0","0","0","68874","","null","","","null","71","","","","","","","","","","","","","","","",""
"","ITI","","html-keyboard-response","457","457434","0.0-1.0-648.0","0","0","68874","","null","","","null","71","","","","","","","","","","","","","","","NaN",""
"","S1","","html-keyboard-response","458","457692","0.0-1.0-650.0","0","0","68874","","null","","","null","72","","","","","","","","","","","","","","","",""
"","ISI","","html-keyboard-response","459","458696","0.0-1.0-651.0","0","0","68874","","null","","","null","72","NaN","","","","","","","","","","","","","","",""
"","S2","","html-keyboard-response","460","458953","0.0-1.0-652.0","0","0","68874","","null","","","null","72","","NaN","","","","","","","","","","","","","",""
"","response","","html-keyboard-response","461","459705","0.0-1.0-653.0-0.0","0","0","68874","","749","","","75","72","","","2","72","training","adjacent","EF","5","6","P.jpg","M.jpg","0","1","0","",""
"","feedback","","html-keyboard-response","462","460710","0.0-1.0-654.0-0.0","0","0","68874","","null","","","null","72","","","","","","","","","","","","","","","",""
"","time_out","","html-keyboard-response","463","462718","0.0-1.0-656.0-0.0","0","0","68874","","null","","","null","72","","","","","","","","","","","","","","","",""
"","ITI","","html-keyboard-response","464","463723","0.0-1.0-657.0","0","0","68874","","null","","","null","72","","","","","","","","","","","","","","","NaN",""
"","S1","","html-keyboard-response","465","463985","0.0-1.0-659.0","0","0","68874","","null","","","null","73","","","","","","","","","","","","","","","",""
"","ISI","","html-keyboard-response","466","464990","0.0-1.0-660.0","0","0","68874","","null","","","null","73","NaN","","","","","","","","","","","","","","",""
"","S2","","html-keyboard-response","467","465251","0.0-1.0-661.0","0","0","68874","","null","","","null","73","","NaN","","","","","","","","","","","","","",""
"","response","","html-keyboard-response","468","465608","0.0-1.0-662.0-0.0","0","0","68874","","354","","","68","73","","","2","73","training","adjacent","CB","3","2","O.jpg","L.jpg","1","0","0","",""
"","feedback","","html-keyboard-response","469","466616","0.0-1.0-663.0-0.0","0","0","68874","","null","","","null","73","","","","","","","","","","","","","","","",""
"","time_out","","html-keyboard-response","470","468623","0.0-1.0-665.0-0.0","0","0","68874","","null","","","null","73","","","","","","","","","","","","","","","",""
"","ITI","","html-keyboard-response","471","469632","0.0-1.0-666.0","0","0","68874","","null","","","null","73","","","","","","","","","","","","","","","NaN",""
"","S1","","html-keyboard-response","472","469888","0.0-1.0-668.0","0","0","68874","","null","","","null","74","","","","","","","","","","","","","","","",""
"","ISI","","html-keyboard-response","473","470898","0.0-1.0-669.0","0","0","68874","","null","","","null","74","NaN","","","","","","","","","","","","","","",""
"","S2","","html-keyboard-response","474","471157","0.0-1.0-670.0","0","0","68874","","null","","","null","74","","NaN","","","","","","","","","","","","","",""
"","response","","html-keyboard-response","475","471498","0.0-1.0-671.0-0.0","0","0","68874","","339","","","75","74","","","2","74","training","adjacent","EF","5","6","P.jpg","M.jpg","0","1","0","",""
"","feedback","","html-keyboard-response","476","472511","0.0-1.0-672.0-0.0","0","0","68874","","null","","","null","74","","","","","","","","","","","","","","","",""
"","time_out","","html-keyboard-response","477","474517","0.0-1.0-674.0-0.0","0","0","68874","","null","","","null","74","","","","","","","","","","","","","","","",""
"","ITI","","html-keyboard-response","478","475528","0.0-1.0-675.0","0","0","68874","","null","","","null","74","","","","","","","","","","","","","","","NaN",""
"","S1","","html-keyboard-response","479","475790","0.0-1.0-677.0","0","0","68874","","null","","","null","75","","","","","","","","","","","","","","","",""
"","ISI","","html-keyboard-response","480","476798","0.0-1.0-678.0","0","0","68874","","null","","","null","75","NaN","","","","","","","","","","","","","","",""
"","S2","","html-keyboard-response","481","477055","0.0-1.0-679.0","0","0","68874","","null","","","null","75","","NaN","","","","","","","","","","","","","",""
"","response","","html-keyboard-response","482","477744","0.0-1.0-680.0-0.0","0","0","68874","","687","","","75","75","","","2","75","training","adjacent","BC","2","3","L.jpg","O.jpg","0","1","0","",""
"","feedback","","html-keyboard-response","483","478749","0.0-1.0-681.0-0.0","0","0","68874","","null","","","null","75","","","","","","","","","","","","","","","",""
"","time_out","","html-keyboard-response","484","480753","0.0-1.0-683.0-0.0","0","0","68874","","null","","","null","75","","","","","","","","","","","","","","","",""
"","ITI","","html-keyboard-response","485","481761","0.0-1.0-684.0","0","0","68874","","null","","","null","75","","","","","","","","","","","","","","","NaN",""
"","S1","","html-keyboard-response","486","482018","0.0-1.0-686.0","0","0","68874","","null","","","null","76","","","","","","","","","","","","","","","",""
"","ISI","","html-keyboard-response","487","483029","0.0-1.0-687.0","0","0","68874","","null","","","null","76","NaN","","","","","","","","","","","","","","",""
"","S2","","html-keyboard-response","488","483284","0.0-1.0-688.0","0","0","68874","","null","","","null","76","","NaN","","","","","","","","","","","","","",""
"","response","","html-keyboard-response","489","483613","0.0-1.0-689.0-0.0","0","0","68874","","326","","","68","76","","","2","76","training","adjacent","FG","6","7","M.jpg","N.jpg","1","1","1","",""
"","feedback","","html-keyboard-response","490","484622","0.0-1.0-690.0-0.0","0","0","68874","","null","","","null","76","","","","","","","","","","","","","","","",""
"","ITI","","html-keyboard-response","491","485632","0.0-1.0-693.0","0","0","68874","","null","","","null","76","","","","","","","","","","","","","","","NaN",""
"","S1","","html-keyboard-response","492","485893","0.0-1.0-695.0","0","0","68874","","null","","","null","77","","","","","","","","","","","","","","","",""
"","ISI","","html-keyboard-response","493","486909","0.0-1.0-696.0","0","0","68874","","null","","","null","77","NaN","","","","","","","","","","","","","","",""
"","S2","","html-keyboard-response","494","487164","0.0-1.0-697.0","0","0","68874","","null","","","null","77","","NaN","","","","","","","","","","","","","",""
"","response","","html-keyboard-response","495","487526","0.0-1.0-698.0-0.0","0","0","68874","","359","","","68","77","","","2","77","training","adjacent","FE","6","5","M.jpg","P.jpg","1","0","0","",""
"","feedback","","html-keyboard-response","496","488531","0.0-1.0-699.0-0.0","0","0","68874","","null","","","null","77","","","","","","","","","","","","","","","",""
"","time_out","","html-keyboard-response","497","490537","0.0-1.0-701.0-0.0","0","0","68874","","null","","","null","77","","","","","","","","","","","","","","","",""
"","ITI","","html-keyboard-response","498","491542","0.0-1.0-702.0","0","0","68874","","null","","","null","77","","","","","","","","","","","","","","","NaN",""
"","S1","","html-keyboard-response","499","491795","0.0-1.0-704.0","0","0","68874","","null","","","null","78","","","","","","","","","","","","","","","",""
"","ISI","","html-keyboard-response","500","492807","0.0-1.0-705.0","0","0","68874","","null","","","null","78","NaN","","","","","","","","","","","","","","",""
"","S2","","html-keyboard-response","501","493066","0.0-1.0-706.0","0","0","68874","","null","","","null","78","","NaN","","","","","","","","","","","","","",""
"","response","","html-keyboard-response","502","493571","0.0-1.0-707.0-0.0","0","0","68874","","503","","","75","78","","","2","78","training","adjacent","ED","5","4","P.jpg","R.jpg","0","0","1","",""
"","feedback","","html-keyboard-response","503","494582","0.0-1.0-708.0-0.0","0","0","68874","","null","","","null","78","","","","","","","","","","","","","","","",""
"","ITI","","html-keyboard-response","504","495589","0.0-1.0-711.0","0","0","68874","","null","","","null","78","","","","","","","","","","","","","","","NaN",""
"","S1","","html-keyboard-response","505","495846","0.0-1.0-713.0","0","0","68874","","null","","","null","79","","","","","","","","","","","","","","","",""
"","ISI","","html-keyboard-response","506","496850","0.0-1.0-714.0","0","0","68874","","null","","","null","79","NaN","","","","","","","","","","","","","","",""
"","S2","","html-keyboard-response","507","497111","0.0-1.0-715.0","0","0","68874","","null","","","null","79","","NaN","","","","","","","","","","","","","",""
"","response","","html-keyboard-response","508","497604","0.0-1.0-716.0-0.0","0","0","68874","","490","","","75","79","","","2","79","training","adjacent","CD","3","4","O.jpg","R.jpg","0","1","0","",""
"","feedback","","html-keyboard-response","509","498608","0.0-1.0-717.0-0.0","0","0","68874","","null","","","null","79","","","","","","","","","","","","","","","",""
"","time_out","","html-keyboard-response","510","500613","0.0-1.0-719.0-0.0","0","0","68874","","null","","","null","79","","","","","","","","","","","","","","","",""
"","ITI","","html-keyboard-response","511","501620","0.0-1.0-720.0","0","0","68874","","null","","","null","79","","","","","","","","","","","","","","","NaN",""
"","S1","","html-keyboard-response","512","501882","0.0-1.0-722.0","0","0","68874","","null","","","null","80","","","","","","","","","","","","","","","",""
"","ISI","","html-keyboard-response","513","502889","0.0-1.0-723.0","0","0","68874","","null","","","null","80","NaN","","","","","","","","","","","","","","",""
"","S2","","html-keyboard-response","514","503149","0.0-1.0-724.0","0","0","68874","","null","","","null","80","","NaN","","","","","","","","","","","","","",""
"","response","","html-keyboard-response","515","503527","0.0-1.0-725.0-0.0","0","0","68874","","364","","","68","80","","","2","80","training","adjacent","AB","1","2","Q.jpg","L.jpg","1","1","1","",""
"","feedback","","html-keyboard-response","516","504532","0.0-1.0-726.0-0.0","0","0","68874","","null","","","null","80","","","","","","","","","","","","","","","",""
"","ITI","","html-keyboard-response","517","505539","0.0-1.0-729.0","0","0","68874","","null","","","null","80","","","","","","","","","","","","","","","NaN",""
"","S1","","html-keyboard-response","518","505795","0.0-1.0-731.0","0","0","68874","","null","","","null","81","","","","","","","","","","","","","","","",""
"","ISI","","html-keyboard-response","519","506802","0.0-1.0-732.0","0","0","68874","","null","","","null","81","NaN","","","","","","","","","","","","","","",""
"","S2","","html-keyboard-response","520","507056","0.0-1.0-733.0","0","0","68874","","null","","","null","81","","NaN","","","","","","","","","","","","","",""
"","response","","html-keyboard-response","521","507486","0.0-1.0-734.0-0.0","0","0","68874","","427","","","75","81","","","2","81","training","adjacent","BA","2","1","L.jpg","Q.jpg","0","0","1","",""
"","feedback","","html-keyboard-response","522","508498","0.0-1.0-735.0-0.0","0","0","68874","","null","","","null","81","","","","","","","","","","","","","","","",""
"","ITI","","html-keyboard-response","523","509507","0.0-1.0-738.0","0","0","68874","","null","","","null","81","","","","","","","","","","","","","","","NaN",""
"","S1","","html-keyboard-response","524","509763","0.0-1.0-740.0","0","0","68874","","null","","","null","82","","","","","","","","","","","","","","","",""
"","ISI","","html-keyboard-response","525","510775","0.0-1.0-741.0","0","0","68874","","null","","","null","82","NaN","","","","","","","","","","","","","","",""
"","S2","","html-keyboard-response","526","511036","0.0-1.0-742.0","0","0","68874","","null","","","null","82","","NaN","","","","","","","","","","","","","",""
"","response","","html-keyboard-response","527","511515","0.0-1.0-743.0-0.0","0","0","68874","","476","","","68","82","","","2","82","training","adjacent","FE","6","5","M.jpg","P.jpg","1","0","0","",""
"","feedback","","html-keyboard-response","528","512523","0.0-1.0-744.0-0.0","0","0","68874","","null","","","null","82","","","","","","","","","","","","","","","",""
"","time_out","","html-keyboard-response","529","514539","0.0-1.0-746.0-0.0","0","0","68874","","null","","","null","82","","","","","","","","","","","","","","","",""
"","ITI","","html-keyboard-response","530","515547","0.0-1.0-747.0","0","0","68874","","null","","","null","82","","","","","","","","","","","","","","","NaN",""
"","S1","","html-keyboard-response","531","515808","0.0-1.0-749.0","0","0","68874","","null","","","null","83","","","","","","","","","","","","","","","",""
"","ISI","","html-keyboard-response","532","516819","0.0-1.0-750.0","0","0","68874","","null","","","null","83","NaN","","","","","","","","","","","","","","",""
"","S2","","html-keyboard-response","533","517075","0.0-1.0-751.0","0","0","68874","","null","","","null","83","","NaN","","","","","","","","","","","","","",""
"","response","","html-keyboard-response","534","517430","0.0-1.0-752.0-0.0","0","0","68874","","353","","","68","83","","","2","83","training","adjacent","DE","4","5","R.jpg","P.jpg","1","1","1","",""
"","feedback","","html-keyboard-response","535","518439","0.0-1.0-753.0-0.0","0","0","68874","","null","","","null","83","","","","","","","","","","","","","","","",""
"","ITI","","html-keyboard-response","536","519443","0.0-1.0-756.0","0","0","68874","","null","","","null","83","","","","","","","","","","","","","","","NaN",""
"","S1","","html-keyboard-response","537","519699","0.0-1.0-758.0","0","0","68874","","null","","","null","84","","","","","","","","","","","","","","","",""
"","ISI","","html-keyboard-response","538","520707","0.0-1.0-759.0","0","0","68874","","null","","","null","84","NaN","","","","","","","","","","","","","","",""
"","S2","","html-keyboard-response","539","520965","0.0-1.0-760.0","0","0","68874","","null","","","null","84","","NaN","","","","","","","","","","","","","",""
"","response","","html-keyboard-response","540","521342","0.0-1.0-761.0-0.0","0","0","68874","","374","","","75","84","","","2","84","training","adjacent","BA","2","1","L.jpg","Q.jpg","0","0","1","",""
"","feedback","","html-keyboard-response","541","522353","0.0-1.0-762.0-0.0","0","0","68874","","null","","","null","84","","","","","","","","","","","","","","","",""
"","ITI","","html-keyboard-response","542","523364","0.0-1.0-765.0","0","0","68874","","null","","","null","84","","","","","","","","","","","","","","","NaN",""
"","S1","","html-keyboard-response","543","523619","0.0-1.0-767.0","0","0","68874","","null","","","null","85","","","","","","","","","","","","","","","",""
"","ISI","","html-keyboard-response","544","524626","0.0-1.0-768.0","0","0","68874","","null","","","null","85","NaN","","","","","","","","","","","","","","",""
"","S2","","html-keyboard-response","545","524879","0.0-1.0-769.0","0","0","68874","","null","","","null","85","","NaN","","","","","","","","","","","","","",""
"","response","","html-keyboard-response","546","525506","0.0-1.0-770.0-0.0","0","0","68874","","624","","","68","85","","","2","85","training","adjacent","DC","4","3","R.jpg","O.jpg","1","0","0","",""
"","feedback","","html-keyboard-response","547","526511","0.0-1.0-771.0-0.0","0","0","68874","","null","","","null","85","","","","","","","","","","","","","","","",""
"","time_out","","html-keyboard-response","548","528520","0.0-1.0-773.0-0.0","0","0","68874","","null","","","null","85","","","","","","","","","","","","","","","",""
"","ITI","","html-keyboard-response","549","529530","0.0-1.0-774.0","0","0","68874","","null","","","null","85","","","","","","","","","","","","","","","NaN",""
"","S1","","html-keyboard-response","550","529787","0.0-1.0-776.0","0","0","68874","","null","","","null","86","","","","","","","","","","","","","","","",""
"","ISI","","html-keyboard-response","551","530794","0.0-1.0-777.0","0","0","68874","","null","","","null","86","NaN","","","","","","","","","","","","","","",""
"","S2","","html-keyboard-response","552","531050","0.0-1.0-778.0","0","0","68874","","null","","","null","86","","NaN","","","","","","","","","","","","","",""
"","response","","html-keyboard-response","553","531388","0.0-1.0-779.0-0.0","0","0","68874","","335","","","75","86","","","2","86","training","adjacent","DE","4","5","R.jpg","P.jpg","0","1","0","",""
"","feedback","","html-keyboard-response","554","532398","0.0-1.0-780.0-0.0","0","0","68874","","null","","","null","86","","","","","","","","","","","","","","","",""
"","time_out","","html-keyboard-response","555","534407","0.0-1.0-782.0-0.0","0","0","68874","","null","","","null","86","","","","","","","","","","","","","","","",""
"","ITI","","html-keyboard-response","556","535411","0.0-1.0-783.0","0","0","68874","","null","","","null","86","","","","","","","","","","","","","","","NaN",""
"","S1","","html-keyboard-response","557","535666","0.0-1.0-785.0","0","0","68874","","null","","","null","87","","","","","","","","","","","","","","","",""
"","ISI","","html-keyboard-response","558","536675","0.0-1.0-786.0","0","0","68874","","null","","","null","87","NaN","","","","","","","","","","","","","","",""
"","S2","","html-keyboard-response","559","536930","0.0-1.0-787.0","0","0","68874","","null","","","null","87","","NaN","","","","","","","","","","","","","",""
"","response","","html-keyboard-response","560","537300","0.0-1.0-788.0-0.0","0","0","68874","","368","","","75","87","","","2","87","training","adjacent","GF","7","6","N.jpg","M.jpg","0","0","1","",""
"","feedback","","html-keyboard-response","561","538307","0.0-1.0-789.0-0.0","0","0","68874","","null","","","null","87","","","","","","","","","","","","","","","",""
"","ITI","","html-keyboard-response","562","539317","0.0-1.0-792.0","0","0","68874","","null","","","null","87","","","","","","","","","","","","","","","NaN",""
"","S1","","html-keyboard-response","563","539572","0.0-1.0-794.0","0","0","68874","","null","","","null","88","","","","","","","","","","","","","","","",""
"","ISI","","html-keyboard-response","564","540582","0.0-1.0-795.0","0","0","68874","","null","","","null","88","NaN","","","","","","","","","","","","","","",""
"","S2","","html-keyboard-response","565","540836","0.0-1.0-796.0","0","0","68874","","null","","","null","88","","NaN","","","","","","","","","","","","","",""
"","response","","html-keyboard-response","566","541502","0.0-1.0-797.0-0.0","0","0","68874","","663","","","75","88","","","2","88","training","adjacent","DC","4","3","R.jpg","O.jpg","0","0","1","",""
"","feedback","","html-keyboard-response","567","542514","0.0-1.0-798.0-0.0","0","0","68874","","null","","","null","88","","","","","","","","","","","","","","","",""
"","ITI","","html-keyboard-response","568","543518","0.0-1.0-801.0","0","0","68874","","null","","","null","88","","","","","","","","","","","","","","","NaN",""
"","S1","","html-keyboard-response","569","543778","0.0-1.0-803.0","0","0","68874","","null","","","null","89","","","","","","","","","","","","","","","",""
"","ISI","","html-keyboard-response","570","544788","0.0-1.0-804.0","0","0","68874","","null","","","null","89","NaN","","","","","","","","","","","","","","",""
"","S2","","html-keyboard-response","571","545045","0.0-1.0-805.0","0","0","68874","","null","","","null","89","","NaN","","","","","","","","","","","","","",""
"","response","","html-keyboard-response","572","545798","0.0-1.0-806.0-0.0","0","0","68874","","750","","","75","89","","","2","89","training","adjacent","EF","5","6","P.jpg","M.jpg","0","1","0","",""
"","feedback","","html-keyboard-response","573","546808","0.0-1.0-807.0-0.0","0","0","68874","","null","","","null","89","","","","","","","","","","","","","","","",""
"","time_out","","html-keyboard-response","574","548818","0.0-1.0-809.0-0.0","0","0","68874","","null","","","null","89","","","","","","","","","","","","","","","",""
"","ITI","","html-keyboard-response","575","549823","0.0-1.0-810.0","0","0","68874","","null","","","null","89","","","","","","","","","","","","","","","NaN",""
"","S1","","html-keyboard-response","576","550083","0.0-1.0-812.0","0","0","68874","","null","","","null","90","","","","","","","","","","","","","","","",""
"","ISI","","html-keyboard-response","577","551090","0.0-1.0-813.0","0","0","68874","","null","","","null","90","NaN","","","","","","","","","","","","","","",""
"","S2","","html-keyboard-response","578","551349","0.0-1.0-814.0","0","0","68874","","null","","","null","90","","NaN","","","","","","","","","","","","","",""
"","response","","html-keyboard-response","579","551861","0.0-1.0-815.0-0.0","0","0","68874","","510","","","75","90","","","2","90","training","adjacent","GF","7","6","N.jpg","M.jpg","0","0","1","",""
"","feedback","","html-keyboard-response","580","552873","0.0-1.0-816.0-0.0","0","0","68874","","null","","","null","90","","","","","","","","","","","","","","","",""
"","ITI","","html-keyboard-response","581","553878","0.0-1.0-819.0","0","0","68874","","null","","","null","90","","","","","","","","","","","","","","","NaN",""
"","S1","","html-keyboard-response","582","554134","0.0-1.0-821.0","0","0","68874","","null","","","null","91","","","","","","","","","","","","","","","",""
