"success","ttype","start_time","trial_type","trial_index","time_elapsed","internal_node_id","warning","missed_checkup","PID","view_history","rt","responses","repeat_instructions","key_press","index","keypress_isi","keypress_S2","block","trial_num","phase","group_type","pair_type","S1_stim","S2_stim","S1_img","S2_img","S1_chosen","S1_higher","accuracy","keypress_iti","total_bonus_tally"
"true","full_screen","d08052022hr1247","fullscreen","0","15158","0.0-0.0","0","0","43324","","","","","","","","","","","","","","","","","","","","","",""
"","instructions","","instructions","1","105385","0.0-1.0-0.0-0.0","0","0","43324","[{""page_index"":0,""viewing_time"":8957},{""page_index"":1,""viewing_time"":54481},{""page_index"":2,""viewing_time"":9756},{""page_index"":1,""viewing_time"":9780},{""page_index"":2,""viewing_time"":3844},{""page_index"":3,""viewing_time"":3405}]","90224","","","","","","","","","","","","","","","","","","","",""
"","comprehension_check","","survey-multi-choice","2","146202","0.0-1.0-0.0-1.0","0","0","43324","","40812","{""Q0"":""True"",""Q1"":""D"",""Q2"":""Once the second image appears and while the screen 'MAKE A CHOICE' is shown"",""Q3"":""Green mark"",""Q4"":""either D or K""}","0","","","","","","","","","","","","","","","","","",""
"","start_exp","","html-keyboard-response","3","149400","0.0-1.0-1.0","0","0","43324","","3191","","","32","","","","","","","","","","","","","","","","",""
"","S1","","html-keyboard-response","4","149659","0.0-1.0-2.0","0","0","43324","","null","","","null","0","","","","","","","","","","","","","","","",""
"","ISI","","html-keyboard-response","5","151662","0.0-1.0-3.0","0","0","43324","","null","","","null","0","NaN","","","","","","","","","","","","","","",""
"","S2","","html-keyboard-response","6","151918","0.0-1.0-4.0","0","0","43324","","null","","","null","0","","NaN","","","","","","","","","","","","","",""
"","response","","html-keyboard-response","7","152503","0.0-1.0-5.0-0.0","0","0","43324","","581","","","75","0","","","1","0","training","adjacent","AB","1","2","M.jpg","P.jpg","0","1","0","",""
"","feedback","","html-keyboard-response","8","153509","0.0-1.0-6.0-0.0","0","0","43324","","null","","","null","0","","","","","","","","","","","","","","","",""
"","time_out","","html-keyboard-response","9","155514","0.0-1.0-8.0-0.0","0","0","43324","","null","","","null","0","","","","","","","","","","","","","","","",""
"","ITI","","html-keyboard-response","10","156518","0.0-1.0-9.0","0","0","43324","","null","","","null","0","","","","","","","","","","","","","","","NaN",""
"","S1","","html-keyboard-response","11","156772","0.0-1.0-11.0","0","0","43324","","null","","","null","1","","","","","","","","","","","","","","","",""
"","ISI","","html-keyboard-response","12","158785","0.0-1.0-12.0","0","0","43324","","null","","","null","1","NaN","","","","","","","","","","","","","","",""
"","S2","","html-keyboard-response","13","159040","0.0-1.0-13.0","0","0","43324","","null","","","null","1","","NaN","","","","","","","","","","","","","",""
"","response","","html-keyboard-response","14","159461","0.0-1.0-14.0-0.0","0","0","43324","","417","","","68","1","","","1","1","training","adjacent","FE","6","5","O.jpg","R.jpg","1","0","0","",""
"","feedback","","html-keyboard-response","15","160466","0.0-1.0-15.0-0.0","0","0","43324","","null","","","null","1","","","","","","","","","","","","","","","",""
"","time_out","","html-keyboard-response","16","162471","0.0-1.0-17.0-0.0","0","0","43324","","null","","","null","1","","","","","","","","","","","","","","","",""
"","ITI","","html-keyboard-response","17","163475","0.0-1.0-18.0","0","0","43324","","null","","","null","1","","","","","","","","","","","","","","","NaN",""
"","S1","","html-keyboard-response","18","163730","0.0-1.0-20.0","0","0","43324","","null","","","null","2","","","","","","","","","","","","","","","",""
"","ISI","","html-keyboard-response","19","165734","0.0-1.0-21.0","0","0","43324","","null","","","null","2","NaN","","","","","","","","","","","","","","",""
"","S2","","html-keyboard-response","20","165987","0.0-1.0-22.0","0","0","43324","","null","","","null","2","","NaN","","","","","","","","","","","","","",""
"","response","","html-keyboard-response","21","166205","0.0-1.0-23.0-0.0","0","0","43324","","216","","","68","2","","","1","2","training","adjacent","BC","2","3","P.jpg","N.jpg","1","1","1","",""
"","feedback","","html-keyboard-response","22","167209","0.0-1.0-24.0-0.0","0","0","43324","","null","","","null","2","","","","","","","","","","","","","","","",""
"","ITI","","html-keyboard-response","23","168215","0.0-1.0-27.0","0","0","43324","","null","","","null","2","","","","","","","","","","","","","","","NaN",""
"","S1","","html-keyboard-response","24","168470","0.0-1.0-29.0","0","0","43324","","null","","","null","3","","","","","","","","","","","","","","","",""
"","ISI","","html-keyboard-response","25","170474","0.0-1.0-30.0","0","0","43324","","null","","","null","3","NaN","","","","","","","","","","","","","","",""
"","S2","","html-keyboard-response","26","170728","0.0-1.0-31.0","0","0","43324","","null","","","null","3","","NaN","","","","","","","","","","","","","",""
"","response","","html-keyboard-response","27","170774","0.0-1.0-32.0-0.0","0","0","43324","","43","","","75","3","","","1","3","training","adjacent","GF","7","6","L.jpg","O.jpg","0","0","1","",""
"","feedback","","html-keyboard-response","28","171777","0.0-1.0-33.0-0.0","0","0","43324","","null","","","null","3","","","","","","","","","","","","","","","",""
"","ITI","","html-keyboard-response","29","172782","0.0-1.0-36.0","0","0","43324","","null","","","null","3","","","","","","","","","","","","","","","NaN",""
"","S1","","html-keyboard-response","30","173038","0.0-1.0-38.0","0","0","43324","","null","","","null","4","","","","","","","","","","","","","","","",""
"","ISI","","html-keyboard-response","31","175042","0.0-1.0-39.0","0","0","43324","","628","","","68","4","d","","","","","","","","","","","","","","",""
"","S2","","html-keyboard-response","32","175300","0.0-1.0-40.0","0","0","43324","","null","","","null","4","","NaN","","","","","","","","","","","","","",""
"","response","","html-keyboard-response","33","175566","0.0-1.0-41.0-0.0","0","0","43324","","262","","","68","4","","","1","4","training","adjacent","BC","2","3","P.jpg","N.jpg","1","1","1","",""
"","feedback","","html-keyboard-response","34","176571","0.0-1.0-42.0-0.0","0","0","43324","","null","","","null","4","","","","","","","","","","","","","","","",""
"","ITI","","html-keyboard-response","35","177582","0.0-1.0-45.0","0","0","43324","","null","","","null","4","","","","","","","","","","","","","","","NaN",""
"","S1","","html-keyboard-response","36","177836","0.0-1.0-47.0","0","0","43324","","null","","","null","5","","","","","","","","","","","","","","","",""
"","ISI","","html-keyboard-response","37","179840","0.0-1.0-48.0","0","0","43324","","null","","","null","5","NaN","","","","","","","","","","","","","","",""
"","S2","","html-keyboard-response","38","180094","0.0-1.0-49.0","0","0","43324","","null","","","null","5","","NaN","","","","","","","","","","","","","",""
"","response","","html-keyboard-response","39","180398","0.0-1.0-50.0-0.0","0","0","43324","","300","","","75","5","","","1","5","training","adjacent","CD","3","4","N.jpg","Q.jpg","0","1","0","",""
"","feedback","","html-keyboard-response","40","181403","0.0-1.0-51.0-0.0","0","0","43324","","null","","","null","5","","","","","","","","","","","","","","","",""
"","time_out","","html-keyboard-response","41","183406","0.0-1.0-53.0-0.0","0","0","43324","","null","","","null","5","","","","","","","","","","","","","","","",""
"","ITI","","html-keyboard-response","42","184419","0.0-1.0-54.0","0","0","43324","","null","","","null","5","","","","","","","","","","","","","","","NaN",""
"","S1","","html-keyboard-response","43","184672","0.0-1.0-56.0","0","0","43324","","null","","","null","6","","","","","","","","","","","","","","","",""
"","ISI","","html-keyboard-response","44","186675","0.0-1.0-57.0","0","0","43324","","null","","","null","6","NaN","","","","","","","","","","","","","","",""
"","S2","","html-keyboard-response","45","186929","0.0-1.0-58.0","0","0","43324","","null","","","null","6","","NaN","","","","","","","","","","","","","",""
"","response","","html-keyboard-response","46","187175","0.0-1.0-59.0-0.0","0","0","43324","","242","","","75","6","","","1","6","training","adjacent","EF","5","6","R.jpg","O.jpg","0","1","0","",""
"","feedback","","html-keyboard-response","47","188179","0.0-1.0-60.0-0.0","0","0","43324","","null","","","null","6","","","","","","","","","","","","","","","",""
"","time_out","","html-keyboard-response","48","190185","0.0-1.0-62.0-0.0","0","0","43324","","null","","","null","6","","","","","","","","","","","","","","","",""
"","ITI","","html-keyboard-response","49","191189","0.0-1.0-63.0","0","0","43324","","null","","","null","6","","","","","","","","","","","","","","","NaN",""
"","S1","","html-keyboard-response","50","191449","0.0-1.0-65.0","0","0","43324","","null","","","null","7","","","","","","","","","","","","","","","",""
"","ISI","","html-keyboard-response","51","193454","0.0-1.0-66.0","0","0","43324","","null","","","null","7","NaN","","","","","","","","","","","","","","",""
"","S2","","html-keyboard-response","52","193709","0.0-1.0-67.0","0","0","43324","","null","","","null","7","","NaN","","","","","","","","","","","","","",""
"","response","","html-keyboard-response","53","194006","0.0-1.0-68.0-0.0","0","0","43324","","293","","","68","7","","","1","7","training","adjacent","FG","6","7","O.jpg","L.jpg","1","1","1","",""
"","feedback","","html-keyboard-response","54","195011","0.0-1.0-69.0-0.0","0","0","43324","","null","","","null","7","","","","","","","","","","","","","","","",""
"","ITI","","html-keyboard-response","55","196015","0.0-1.0-72.0","0","0","43324","","null","","","null","7","","","","","","","","","","","","","","","NaN",""
"","S1","","html-keyboard-response","56","196270","0.0-1.0-74.0","0","0","43324","","null","","","null","8","","","","","","","","","","","","","","","",""
"","ISI","","html-keyboard-response","57","198273","0.0-1.0-75.0","0","0","43324","","null","","","null","8","NaN","","","","","","","","","","","","","","",""
"","S2","","html-keyboard-response","58","198528","0.0-1.0-76.0","0","0","43324","","null","","","null","8","","NaN","","","","","","","","","","","","","",""
"","response","","html-keyboard-response","59","198836","0.0-1.0-77.0-0.0","0","0","43324","","305","","","68","8","","","1","8","training","adjacent","FE","6","5","O.jpg","R.jpg","1","0","0","",""
"","feedback","","html-keyboard-response","60","199841","0.0-1.0-78.0-0.0","0","0","43324","","null","","","null","8","","","","","","","","","","","","","","","",""
"","time_out","","html-keyboard-response","61","201845","0.0-1.0-80.0-0.0","0","0","43324","","null","","","null","8","","","","","","","","","","","","","","","",""
"","ITI","","html-keyboard-response","62","202850","0.0-1.0-81.0","0","0","43324","","null","","","null","8","","","","","","","","","","","","","","","NaN",""
"","S1","","html-keyboard-response","63","203105","0.0-1.0-83.0","0","0","43324","","null","","","null","9","","","","","","","","","","","","","","","",""
"","ISI","","html-keyboard-response","64","205109","0.0-1.0-84.0","0","0","43324","","null","","","null","9","NaN","","","","","","","","","","","","","","",""
"","S2","","html-keyboard-response","65","205364","0.0-1.0-85.0","0","0","43324","","null","","","null","9","","NaN","","","","","","","","","","","","","",""
"","response","","html-keyboard-response","66","205428","0.0-1.0-86.0-0.0","0","0","43324","","61","","","75","9","","","1","9","training","adjacent","GF","7","6","L.jpg","O.jpg","0","0","1","",""
"","feedback","","html-keyboard-response","67","206432","0.0-1.0-87.0-0.0","0","0","43324","","null","","","null","9","","","","","","","","","","","","","","","",""
"","ITI","","html-keyboard-response","68","207437","0.0-1.0-90.0","0","0","43324","","null","","","null","9","","","","","","","","","","","","","","","NaN",""
"","S1","","html-keyboard-response","69","207702","0.0-1.0-92.0","0","0","43324","","null","","","null","10","","","","","","","","","","","","","","","",""
"","ISI","","html-keyboard-response","70","209706","0.0-1.0-93.0","0","0","43324","","null","","","null","10","NaN","","","","","","","","","","","","","","",""
"","S2","","html-keyboard-response","71","209960","0.0-1.0-94.0","0","0","43324","","null","","","null","10","","NaN","","","","","","","","","","","","","",""
"","response","","html-keyboard-response","72","210189","0.0-1.0-95.0-0.0","0","0","43324","","227","","","75","10","","","1","10","training","adjacent","DE","4","5","Q.jpg","R.jpg","0","1","0","",""
"","feedback","","html-keyboard-response","73","211193","0.0-1.0-96.0-0.0","0","0","43324","","null","","","null","10","","","","","","","","","","","","","","","",""
"","time_out","","html-keyboard-response","74","213197","0.0-1.0-98.0-0.0","0","0","43324","","null","","","null","10","","","","","","","","","","","","","","","",""
"","ITI","","html-keyboard-response","75","214201","0.0-1.0-99.0","0","0","43324","","null","","","null","10","","","","","","","","","","","","","","","NaN",""
"","S1","","html-keyboard-response","76","214456","0.0-1.0-101.0","0","0","43324","","null","","","null","11","","","","","","","","","","","","","","","",""
"","ISI","","html-keyboard-response","77","216460","0.0-1.0-102.0","0","0","43324","","null","","","null","11","NaN","","","","","","","","","","","","","","",""
"","S2","","html-keyboard-response","78","216715","0.0-1.0-103.0","0","0","43324","","null","","","null","11","","NaN","","","","","","","","","","","","","",""
"","response","","html-keyboard-response","79","216902","0.0-1.0-104.0-0.0","0","0","43324","","183","","","68","11","","","1","11","training","adjacent","CB","3","2","N.jpg","P.jpg","1","0","0","",""
"","feedback","","html-keyboard-response","80","217908","0.0-1.0-105.0-0.0","0","0","43324","","null","","","null","11","","","","","","","","","","","","","","","",""
"","time_out","","html-keyboard-response","81","219912","0.0-1.0-107.0-0.0","0","0","43324","","null","","","null","11","","","","","","","","","","","","","","","",""
"","ITI","","html-keyboard-response","82","220917","0.0-1.0-108.0","0","0","43324","","null","","","null","11","","","","","","","","","","","","","","","NaN",""
"","S1","","html-keyboard-response","83","221172","0.0-1.0-110.0","0","0","43324","","null","","","null","12","","","","","","","","","","","","","","","",""
"","ISI","","html-keyboard-response","84","223175","0.0-1.0-111.0","0","0","43324","","null","","","null","12","NaN","","","","","","","","","","","","","","",""
"","S2","","html-keyboard-response","85","223430","0.0-1.0-112.0","0","0","43324","","null","","","null","12","","NaN","","","","","","","","","","","","","",""
"","response","","html-keyboard-response","86","223662","0.0-1.0-113.0-0.0","0","0","43324","","228","","","68","12","","","1","12","training","adjacent","ED","5","4","R.jpg","Q.jpg","1","0","0","",""
"","feedback","","html-keyboard-response","87","224665","0.0-1.0-114.0-0.0","0","0","43324","","null","","","null","12","","","","","","","","","","","","","","","",""
"","time_out","","html-keyboard-response","88","226668","0.0-1.0-116.0-0.0","0","0","43324","","null","","","null","12","","","","","","","","","","","","","","","",""
"","ITI","","html-keyboard-response","89","227671","0.0-1.0-117.0","0","0","43324","","null","","","null","12","","","","","","","","","","","","","","","NaN",""
"","S1","","html-keyboard-response","90","227928","0.0-1.0-119.0","0","0","43324","","null","","","null","13","","","","","","","","","","","","","","","",""
"","ISI","","html-keyboard-response","91","229932","0.0-1.0-120.0","0","0","43324","","null","","","null","13","NaN","","","","","","","","","","","","","","",""
"","S2","","html-keyboard-response","92","230186","0.0-1.0-121.0","0","0","43324","","null","","","null","13","","NaN","","","","","","","","","","","","","",""
"","response","","html-keyboard-response","93","230269","0.0-1.0-122.0-0.0","0","0","43324","","79","","","68","13","","","1","13","training","adjacent","FE","6","5","O.jpg","R.jpg","1","0","0","",""
"","feedback","","html-keyboard-response","94","231273","0.0-1.0-123.0-0.0","0","0","43324","","null","","","null","13","","","","","","","","","","","","","","","",""
"","time_out","","html-keyboard-response","95","233279","0.0-1.0-125.0-0.0","0","0","43324","","null","","","null","13","","","","","","","","","","","","","","","",""
"","ITI","","html-keyboard-response","96","234285","0.0-1.0-126.0","0","0","43324","","null","","","null","13","","","","","","","","","","","","","","","NaN",""
"","S1","","html-keyboard-response","97","234540","0.0-1.0-128.0","0","0","43324","","null","","","null","14","","","","","","","","","","","","","","","",""
"","ISI","","html-keyboard-response","98","236545","0.0-1.0-129.0","0","0","43324","","null","","","null","14","NaN","","","","","","","","","","","","","","",""
"","S2","","html-keyboard-response","99","236798","0.0-1.0-130.0","0","0","43324","","null","","","null","14","","NaN","","","","","","","","","","","","","",""
"","response","","html-keyboard-response","100","236926","0.0-1.0-131.0-0.0","0","0","43324","","125","","","68","14","","","1","14","training","adjacent","DE","4","5","Q.jpg","R.jpg","1","1","1","",""
"","feedback","","html-keyboard-response","101","237931","0.0-1.0-132.0-0.0","0","0","43324","","null","","","null","14","","","","","","","","","","","","","","","",""
"","ITI","","html-keyboard-response","102","238936","0.0-1.0-135.0","0","0","43324","","null","","","null","14","","","","","","","","","","","","","","","NaN",""
"","S1","","html-keyboard-response","103","239192","0.0-1.0-137.0","0","0","43324","","null","","","null","15","","","","","","","","","","","","","","","",""
"","ISI","","html-keyboard-response","104","241195","0.0-1.0-138.0","0","0","43324","","null","","","null","15","NaN","","","","","","","","","","","","","","",""
"","S2","","html-keyboard-response","105","241449","0.0-1.0-139.0","0","0","43324","","null","","","null","15","","NaN","","","","","","","","","","","","","",""
"","response","","html-keyboard-response","106","241934","0.0-1.0-140.0-0.0","0","0","43324","","480","","","68","15","","","1","15","training","adjacent","EF","5","6","R.jpg","O.jpg","1","1","1","",""
"","feedback","","html-keyboard-response","107","242940","0.0-1.0-141.0-0.0","0","0","43324","","null","","","null","15","","","","","","","","","","","","","","","",""
"","ITI","","html-keyboard-response","108","243944","0.0-1.0-144.0","0","0","43324","","null","","","null","15","","","","","","","","","","","","","","","NaN",""
"","S1","","html-keyboard-response","109","244197","0.0-1.0-146.0","0","0","43324","","null","","","null","16","","","","","","","","","","","","","","","",""
"","ISI","","html-keyboard-response","110","246203","0.0-1.0-147.0","0","0","43324","","null","","","null","16","NaN","","","","","","","","","","","","","","",""
"","S2","","html-keyboard-response","111","246457","0.0-1.0-148.0","0","0","43324","","null","","","null","16","","NaN","","","","","","","","","","","","","",""
"","response","","html-keyboard-response","112","246693","0.0-1.0-149.0-0.0","0","0","43324","","232","","","68","16","","","1","16","training","adjacent","CD","3","4","N.jpg","Q.jpg","1","1","1","",""
"","feedback","","html-keyboard-response","113","247701","0.0-1.0-150.0-0.0","0","0","43324","","null","","","null","16","","","","","","","","","","","","","","","",""
"","ITI","","html-keyboard-response","114","248704","0.0-1.0-153.0","0","0","43324","","null","","","null","16","","","","","","","","","","","","","","","NaN",""
"","S1","","html-keyboard-response","115","248959","0.0-1.0-155.0","0","0","43324","","null","","","null","17","","","","","","","","","","","","","","","",""
"","ISI","","html-keyboard-response","116","250963","0.0-1.0-156.0","0","0","43324","","null","","","null","17","NaN","","","","","","","","","","","","","","",""
"","S2","","html-keyboard-response","117","251216","0.0-1.0-157.0","0","0","43324","","null","","","null","17","","NaN","","","","","","","","","","","","","",""
"","response","","html-keyboard-response","118","251445","0.0-1.0-158.0-0.0","0","0","43324","","225","","","75","17","","","1","17","training","adjacent","FE","6","5","O.jpg","R.jpg","0","0","1","",""
"","feedback","","html-keyboard-response","119","252449","0.0-1.0-159.0-0.0","0","0","43324","","null","","","null","17","","","","","","","","","","","","","","","",""
"","ITI","","html-keyboard-response","120","253468","0.0-1.0-162.0","0","0","43324","","null","","","null","17","","","","","","","","","","","","","","","NaN",""
"","S1","","html-keyboard-response","121","253723","0.0-1.0-164.0","0","0","43324","","null","","","null","18","","","","","","","","","","","","","","","",""
"","ISI","","html-keyboard-response","122","255728","0.0-1.0-165.0","0","0","43324","","null","","","null","18","NaN","","","","","","","","","","","","","","",""
"","S2","","html-keyboard-response","123","255984","0.0-1.0-166.0","0","0","43324","","null","","","null","18","","NaN","","","","","","","","","","","","","",""
"","response","","html-keyboard-response","124","256428","0.0-1.0-167.0-0.0","0","0","43324","","440","","","68","18","","","1","18","training","adjacent","FG","6","7","O.jpg","L.jpg","1","1","1","",""
"","feedback","","html-keyboard-response","125","257432","0.0-1.0-168.0-0.0","0","0","43324","","null","","","null","18","","","","","","","","","","","","","","","",""
"","ITI","","html-keyboard-response","126","258436","0.0-1.0-171.0","0","0","43324","","null","","","null","18","","","","","","","","","","","","","","","NaN",""
"","S1","","html-keyboard-response","127","258690","0.0-1.0-173.0","0","0","43324","","null","","","null","19","","","","","","","","","","","","","","","",""
"","ISI","","html-keyboard-response","128","260695","0.0-1.0-174.0","0","0","43324","","null","","","null","19","NaN","","","","","","","","","","","","","","",""
"","S2","","html-keyboard-response","129","260950","0.0-1.0-175.0","0","0","43324","","null","","","null","19","","NaN","","","","","","","","","","","","","",""
"","response","","html-keyboard-response","130","261029","0.0-1.0-176.0-0.0","0","0","43324","","75","","","68","19","","","1","19","training","adjacent","DC","4","3","Q.jpg","N.jpg","1","0","0","",""
"","feedback","","html-keyboard-response","131","262032","0.0-1.0-177.0-0.0","0","0","43324","","null","","","null","19","","","","","","","","","","","","","","","",""
"","time_out","","html-keyboard-response","132","264036","0.0-1.0-179.0-0.0","0","0","43324","","null","","","null","19","","","","","","","","","","","","","","","",""
"","ITI","","html-keyboard-response","133","265041","0.0-1.0-180.0","0","0","43324","","null","","","null","19","","","","","","","","","","","","","","","NaN",""
"","S1","","html-keyboard-response","134","265296","0.0-1.0-182.0","0","0","43324","","null","","","null","20","","","","","","","","","","","","","","","",""
"","ISI","","html-keyboard-response","135","267300","0.0-1.0-183.0","0","0","43324","","null","","","null","20","NaN","","","","","","","","","","","","","","",""
"","S2","","html-keyboard-response","136","267555","0.0-1.0-184.0","0","0","43324","","null","","","null","20","","NaN","","","","","","","","","","","","","",""
"","response","","html-keyboard-response","137","267919","0.0-1.0-185.0-0.0","0","0","43324","","359","","","68","20","","","1","20","training","adjacent","DC","4","3","Q.jpg","N.jpg","1","0","0","",""
"","feedback","","html-keyboard-response","138","268923","0.0-1.0-186.0-0.0","0","0","43324","","null","","","null","20","","","","","","","","","","","","","","","",""
"","time_out","","html-keyboard-response","139","270929","0.0-1.0-188.0-0.0","0","0","43324","","null","","","null","20","","","","","","","","","","","","","","","",""
"","ITI","","html-keyboard-response","140","271934","0.0-1.0-189.0","0","0","43324","","null","","","null","20","","","","","","","","","","","","","","","NaN",""
"","S1","","html-keyboard-response","141","272189","0.0-1.0-191.0","0","0","43324","","null","","","null","21","","","","","","","","","","","","","","","",""
"","ISI","","html-keyboard-response","142","274193","0.0-1.0-192.0","0","0","43324","","null","","","null","21","NaN","","","","","","","","","","","","","","",""
"","S2","","html-keyboard-response","143","274449","0.0-1.0-193.0","0","0","43324","","null","","","null","21","","NaN","","","","","","","","","","","","","",""
"","response","","html-keyboard-response","144","274892","0.0-1.0-194.0-0.0","0","0","43324","","440","","","75","21","","","1","21","training","adjacent","FG","6","7","O.jpg","L.jpg","0","1","0","",""
"","feedback","","html-keyboard-response","145","275900","0.0-1.0-195.0-0.0","0","0","43324","","null","","","null","21","","","","","","","","","","","","","","","",""
"","time_out","","html-keyboard-response","146","277905","0.0-1.0-197.0-0.0","0","0","43324","","null","","","null","21","","","","","","","","","","","","","","","",""
"","ITI","","html-keyboard-response","147","278910","0.0-1.0-198.0","0","0","43324","","null","","","null","21","","","","","","","","","","","","","","","NaN",""
"","S1","","html-keyboard-response","148","279163","0.0-1.0-200.0","0","0","43324","","null","","","null","22","","","","","","","","","","","","","","","",""
"","ISI","","html-keyboard-response","149","281166","0.0-1.0-201.0","0","0","43324","","null","","","null","22","NaN","","","","","","","","","","","","","","",""
"","S2","","html-keyboard-response","150","281422","0.0-1.0-202.0","0","0","43324","","null","","","null","22","","NaN","","","","","","","","","","","","","",""
"","response","","html-keyboard-response","151","281533","0.0-1.0-203.0-0.0","0","0","43324","","107","","","68","22","","","1","22","training","adjacent","DC","4","3","Q.jpg","N.jpg","1","0","0","",""
"","feedback","","html-keyboard-response","152","282543","0.0-1.0-204.0-0.0","0","0","43324","","null","","","null","22","","","","","","","","","","","","","","","",""
"","time_out","","html-keyboard-response","153","284547","0.0-1.0-206.0-0.0","0","0","43324","","null","","","null","22","","","","","","","","","","","","","","","",""
"","ITI","","html-keyboard-response","154","285550","0.0-1.0-207.0","0","0","43324","","null","","","null","22","","","","","","","","","","","","","","","NaN",""
"","S1","","html-keyboard-response","155","285805","0.0-1.0-209.0","0","0","43324","","null","","","null","23","","","","","","","","","","","","","","","",""
"","ISI","","html-keyboard-response","156","287810","0.0-1.0-210.0","0","0","43324","","null","","","null","23","NaN","","","","","","","","","","","","","","",""
"","S2","","html-keyboard-response","157","288064","0.0-1.0-211.0","0","0","43324","","null","","","null","23","","NaN","","","","","","","","","","","","","",""
"","response","","html-keyboard-response","158","288300","0.0-1.0-212.0-0.0","0","0","43324","","233","","","75","23","","","1","23","training","adjacent","AB","1","2","M.jpg","P.jpg","0","1","0","",""
"","feedback","","html-keyboard-response","159","289306","0.0-1.0-213.0-0.0","0","0","43324","","null","","","null","23","","","","","","","","","","","","","","","",""
"","time_out","","html-keyboard-response","160","291309","0.0-1.0-215.0-0.0","0","0","43324","","null","","","null","23","","","","","","","","","","","","","","","",""
"","ITI","","html-keyboard-response","161","292313","0.0-1.0-216.0","0","0","43324","","null","","","null","23","","","","","","","","","","","","","","","NaN",""
"","S1","","html-keyboard-response","162","292568","0.0-1.0-218.0","0","0","43324","","null","","","null","24","","","","","","","","","","","","","","","",""
"","ISI","","html-keyboard-response","163","294571","0.0-1.0-219.0","0","0","43324","","null","","","null","24","NaN","","","","","","","","","","","","","","",""
"","S2","","html-keyboard-response","164","294825","0.0-1.0-220.0","0","0","43324","","null","","","null","24","","NaN","","","","","","","","","","","","","",""
"","response","","html-keyboard-response","165","295139","0.0-1.0-221.0-0.0","0","0","43324","","311","","","68","24","","","1","24","training","adjacent","BA","2","1","P.jpg","M.jpg","1","0","0","",""
"","feedback","","html-keyboard-response","166","296144","0.0-1.0-222.0-0.0","0","0","43324","","null","","","null","24","","","","","","","","","","","","","","","",""
"","time_out","","html-keyboard-response","167","298146","0.0-1.0-224.0-0.0","0","0","43324","","null","","","null","24","","","","","","","","","","","","","","","",""
"","ITI","","html-keyboard-response","168","299150","0.0-1.0-225.0","0","0","43324","","null","","","null","24","","","","","","","","","","","","","","","NaN",""
"","S1","","html-keyboard-response","169","299403","0.0-1.0-227.0","0","0","43324","","null","","","null","25","","","","","","","","","","","","","","","",""
"","ISI","","html-keyboard-response","170","301407","0.0-1.0-228.0","0","0","43324","","null","","","null","25","NaN","","","","","","","","","","","","","","",""
"","S2","","html-keyboard-response","171","301661","0.0-1.0-229.0","0","0","43324","","null","","","null","25","","NaN","","","","","","","","","","","","","",""
"","response","","html-keyboard-response","172","301868","0.0-1.0-230.0-0.0","0","0","43324","","204","","","75","25","","","1","25","training","adjacent","BC","2","3","P.jpg","N.jpg","0","1","0","",""
"","feedback","","html-keyboard-response","173","302883","0.0-1.0-231.0-0.0","0","0","43324","","null","","","null","25","","","","","","","","","","","","","","","",""
"","time_out","","html-keyboard-response","174","304887","0.0-1.0-233.0-0.0","0","0","43324","","null","","","null","25","","","","","","","","","","","","","","","",""
"","ITI","","html-keyboard-response","175","305891","0.0-1.0-234.0","0","0","43324","","null","","","null","25","","","","","","","","","","","","","","","NaN",""
"","S1","","html-keyboard-response","176","306145","0.0-1.0-236.0","0","0","43324","","null","","","null","26","","","","","","","","","","","","","","","",""
"","ISI","","html-keyboard-response","177","308149","0.0-1.0-237.0","0","0","43324","","null","","","null","26","NaN","","","","","","","","","","","","","","",""
"","S2","","html-keyboard-response","178","308403","0.0-1.0-238.0","0","0","43324","","null","","","null","26","","NaN","","","","","","","","","","","","","",""
"","response","","html-keyboard-response","179","308893","0.0-1.0-239.0-0.0","0","0","43324","","486","","","68","26","","","1","26","training","adjacent","CB","3","2","N.jpg","P.jpg","1","0","0","",""
"","feedback","","html-keyboard-response","180","309897","0.0-1.0-240.0-0.0","0","0","43324","","null","","","null","26","","","","","","","","","","","","","","","",""
"","time_out","","html-keyboard-response","181","311902","0.0-1.0-242.0-0.0","0","0","43324","","null","","","null","26","","","","","","","","","","","","","","","",""
"","ITI","","html-keyboard-response","182","312906","0.0-1.0-243.0","0","0","43324","","null","","","null","26","","","","","","","","","","","","","","","NaN",""
"","S1","","html-keyboard-response","183","313161","0.0-1.0-245.0","0","0","43324","","null","","","null","27","","","","","","","","","","","","","","","",""
"","ISI","","html-keyboard-response","184","315165","0.0-1.0-246.0","0","0","43324","","null","","","null","27","NaN","","","","","","","","","","","","","","",""
"","S2","","html-keyboard-response","185","315421","0.0-1.0-247.0","0","0","43324","","null","","","null","27","","NaN","","","","","","","","","","","","","",""
"","response","","html-keyboard-response","186","315890","0.0-1.0-248.0-0.0","0","0","43324","","467","","","75","27","","","1","27","training","adjacent","ED","5","4","R.jpg","Q.jpg","0","0","1","",""
"","feedback","","html-keyboard-response","187","316894","0.0-1.0-249.0-0.0","0","0","43324","","null","","","null","27","","","","","","","","","","","","","","","",""
"","ITI","","html-keyboard-response","188","317899","0.0-1.0-252.0","0","0","43324","","null","","","null","27","","","","","","","","","","","","","","","NaN",""
"","S1","","html-keyboard-response","189","318153","0.0-1.0-254.0","0","0","43324","","null","","","null","28","","","","","","","","","","","","","","","",""
"","ISI","","html-keyboard-response","190","320156","0.0-1.0-255.0","0","0","43324","","null","","","null","28","NaN","","","","","","","","","","","","","","",""
"","S2","","html-keyboard-response","191","320411","0.0-1.0-256.0","0","0","43324","","null","","","null","28","","NaN","","","","","","","","","","","","","",""
"","response","","html-keyboard-response","192","321108","0.0-1.0-257.0-0.0","0","0","43324","","694","","","75","28","","","1","28","training","adjacent","CB","3","2","N.jpg","P.jpg","0","0","1","",""
"","feedback","","html-keyboard-response","193","322114","0.0-1.0-258.0-0.0","0","0","43324","","null","","","null","28","","","","","","","","","","","","","","","",""
"","ITI","","html-keyboard-response","194","323119","0.0-1.0-261.0","0","0","43324","","null","","","null","28","","","","","","","","","","","","","","","NaN",""
"","S1","","html-keyboard-response","195","323373","0.0-1.0-263.0","0","0","43324","","null","","","null","29","","","","","","","","","","","","","","","",""
"","ISI","","html-keyboard-response","196","325377","0.0-1.0-264.0","0","0","43324","","null","","","null","29","NaN","","","","","","","","","","","","","","",""
"","S2","","html-keyboard-response","197","325630","0.0-1.0-265.0","0","0","43324","","null","","","null","29","","NaN","","","","","","","","","","","","","",""
"","response","","html-keyboard-response","198","326237","0.0-1.0-266.0-0.0","0","0","43324","","603","","","68","29","","","1","29","training","adjacent","EF","5","6","R.jpg","O.jpg","1","1","1","",""
"","feedback","","html-keyboard-response","199","327242","0.0-1.0-267.0-0.0","0","0","43324","","null","","","null","29","","","","","","","","","","","","","","","",""
"","ITI","","html-keyboard-response","200","328246","0.0-1.0-270.0","0","0","43324","","null","","","null","29","","","","","","","","","","","","","","","NaN",""
"","S1","","html-keyboard-response","201","328504","0.0-1.0-272.0","0","0","43324","","null","","","null","30","","","","","","","","","","","","","","","",""
"","ISI","","html-keyboard-response","202","330509","0.0-1.0-273.0","0","0","43324","","null","","","null","30","NaN","","","","","","","","","","","","","","",""
"","S2","","html-keyboard-response","203","330765","0.0-1.0-274.0","0","0","43324","","null","","","null","30","","NaN","","","","","","","","","","","","","",""
"","response","","html-keyboard-response","204","331157","0.0-1.0-275.0-0.0","0","0","43324","","388","","","75","30","","","1","30","training","adjacent","AB","1","2","M.jpg","P.jpg","0","1","0","",""
"","feedback","","html-keyboard-response","205","332161","0.0-1.0-276.0-0.0","0","0","43324","","null","","","null","30","","","","","","","","","","","","","","","",""
"","time_out","","html-keyboard-response","206","334166","0.0-1.0-278.0-0.0","0","0","43324","","null","","","null","30","","","","","","","","","","","","","","","",""
"","ITI","","html-keyboard-response","207","335170","0.0-1.0-279.0","0","0","43324","","null","","","null","30","","","","","","","","","","","","","","","NaN",""
"","S1","","html-keyboard-response","208","335424","0.0-1.0-281.0","0","0","43324","","null","","","null","31","","","","","","","","","","","","","","","",""
"","ISI","","html-keyboard-response","209","337427","0.0-1.0-282.0","0","0","43324","","null","","","null","31","NaN","","","","","","","","","","","","","","",""
"","S2","","html-keyboard-response","210","337687","0.0-1.0-283.0","0","0","43324","","null","","","null","31","","NaN","","","","","","","","","","","","","",""
"","response","","html-keyboard-response","211","338156","0.0-1.0-284.0-0.0","0","0","43324","","467","","","75","31","","","1","31","training","adjacent","ED","5","4","R.jpg","Q.jpg","0","0","1","",""
"","feedback","","html-keyboard-response","212","339161","0.0-1.0-285.0-0.0","0","0","43324","","null","","","null","31","","","","","","","","","","","","","","","",""
"","ITI","","html-keyboard-response","213","340164","0.0-1.0-288.0","0","0","43324","","null","","","null","31","","","","","","","","","","","","","","","NaN",""
"","S1","","html-keyboard-response","214","340417","0.0-1.0-290.0","0","0","43324","","null","","","null","32","","","","","","","","","","","","","","","",""
"","ISI","","html-keyboard-response","215","342420","0.0-1.0-291.0","0","0","43324","","null","","","null","32","NaN","","","","","","","","","","","","","","",""
"","S2","","html-keyboard-response","216","342675","0.0-1.0-292.0","0","0","43324","","null","","","null","32","","NaN","","","","","","","","","","","","","",""
"","response","","html-keyboard-response","217","343228","0.0-1.0-293.0-0.0","0","0","43324","","550","","","75","32","","","1","32","training","adjacent","FG","6","7","O.jpg","L.jpg","0","1","0","",""
"","feedback","","html-keyboard-response","218","344233","0.0-1.0-294.0-0.0","0","0","43324","","null","","","null","32","","","","","","","","","","","","","","","",""
"","time_out","","html-keyboard-response","219","346237","0.0-1.0-296.0-0.0","0","0","43324","","null","","","null","32","","","","","","","","","","","","","","","",""
"","ITI","","html-keyboard-response","220","347241","0.0-1.0-297.0","0","0","43324","","null","","","null","32","","","","","","","","","","","","","","","NaN",""
"","S1","","html-keyboard-response","221","347495","0.0-1.0-299.0","0","0","43324","","null","","","null","33","","","","","","","","","","","","","","","",""
"","ISI","","html-keyboard-response","222","349498","0.0-1.0-300.0","0","0","43324","","null","","","null","33","NaN","","","","","","","","","","","","","","",""
"","S2","","html-keyboard-response","223","349765","0.0-1.0-301.0","0","0","43324","","null","","","null","33","","NaN","","","","","","","","","","","","","",""
"","response","","html-keyboard-response","224","350244","0.0-1.0-302.0-0.0","0","0","43324","","475","","","68","33","","","1","33","training","adjacent","DE","4","5","Q.jpg","R.jpg","1","1","1","",""
"","feedback","","html-keyboard-response","225","351249","0.0-1.0-303.0-0.0","0","0","43324","","null","","","null","33","","","","","","","","","","","","","","","",""
"","ITI","","html-keyboard-response","226","352253","0.0-1.0-306.0","0","0","43324","","null","","","null","33","","","","","","","","","","","","","","","NaN",""
"","S1","","html-keyboard-response","227","352508","0.0-1.0-308.0","0","0","43324","","null","","","null","34","","","","","","","","","","","","","","","",""
"","ISI","","html-keyboard-response","228","354511","0.0-1.0-309.0","0","0","43324","","null","","","null","34","NaN","","","","","","","","","","","","","","",""
"","S2","","html-keyboard-response","229","354765","0.0-1.0-310.0","0","0","43324","","null","","","null","34","","NaN","","","","","","","","","","","","","",""
"","response","","html-keyboard-response","230","355242","0.0-1.0-311.0-0.0","0","0","43324","","475","","","68","34","","","1","34","training","adjacent","ED","5","4","R.jpg","Q.jpg","1","0","0","",""
"","feedback","","html-keyboard-response","231","356247","0.0-1.0-312.0-0.0","0","0","43324","","null","","","null","34","","","","","","","","","","","","","","","",""
"","time_out","","html-keyboard-response","232","358250","0.0-1.0-314.0-0.0","0","0","43324","","null","","","null","34","","","","","","","","","","","","","","","",""
"","ITI","","html-keyboard-response","233","359254","0.0-1.0-315.0","0","0","43324","","null","","","null","34","","","","","","","","","","","","","","","NaN",""
"","S1","","html-keyboard-response","234","359509","0.0-1.0-317.0","0","0","43324","","null","","","null","35","","","","","","","","","","","","","","","",""
"","ISI","","html-keyboard-response","235","361513","0.0-1.0-318.0","0","0","43324","","null","","","null","35","NaN","","","","","","","","","","","","","","",""
"","S2","","html-keyboard-response","236","361766","0.0-1.0-319.0","0","0","43324","","null","","","null","35","","NaN","","","","","","","","","","","","","",""
"","response","","html-keyboard-response","237","362132","0.0-1.0-320.0-0.0","0","0","43324","","363","","","68","35","","","1","35","training","adjacent","BA","2","1","P.jpg","M.jpg","1","0","0","",""
"","feedback","","html-keyboard-response","238","363138","0.0-1.0-321.0-0.0","0","0","43324","","null","","","null","35","","","","","","","","","","","","","","","",""
"","time_out","","html-keyboard-response","239","365143","0.0-1.0-323.0-0.0","0","0","43324","","null","","","null","35","","","","","","","","","","","","","","","",""
"","ITI","","html-keyboard-response","240","366147","0.0-1.0-324.0","0","0","43324","","null","","","null","35","","","","","","","","","","","","","","","NaN",""
"","S1","","html-keyboard-response","241","366401","0.0-1.0-326.0","0","0","43324","","null","","","null","36","","","","","","","","","","","","","","","",""
"","ISI","","html-keyboard-response","242","368407","0.0-1.0-327.0","0","0","43324","","null","","","null","36","NaN","","","","","","","","","","","","","","",""
"","S2","","html-keyboard-response","243","368661","0.0-1.0-328.0","0","0","43324","","null","","","null","36","","NaN","","","","","","","","","","","","","",""
"","response","","html-keyboard-response","244","369228","0.0-1.0-329.0-0.0","0","0","43324","","563","","","75","36","","","1","36","training","adjacent","EF","5","6","R.jpg","O.jpg","0","1","0","",""
"","feedback","","html-keyboard-response","245","370234","0.0-1.0-330.0-0.0","0","0","43324","","null","","","null","36","","","","","","","","","","","","","","","",""
"","time_out","","html-keyboard-response","246","372238","0.0-1.0-332.0-0.0","0","0","43324","","null","","","null","36","","","","","","","","","","","","","","","",""
"","ITI","","html-keyboard-response","247","373241","0.0-1.0-333.0","0","0","43324","","null","","","null","36","","","","","","","","","","","","","","","NaN",""
"","S1","","html-keyboard-response","248","373495","0.0-1.0-335.0","0","0","43324","","null","","","null","37","","","","","","","","","","","","","","","",""
"","ISI","","html-keyboard-response","249","375499","0.0-1.0-336.0","0","0","43324","","null","","","null","37","NaN","","","","","","","","","","","","","","",""
"","S2","","html-keyboard-response","250","375752","0.0-1.0-337.0","0","0","43324","","null","","","null","37","","NaN","","","","","","","","","","","","","",""
"","response","","html-keyboard-response","251","376236","0.0-1.0-338.0-0.0","0","0","43324","","480","","","75","37","","","1","37","training","adjacent","CD","3","4","N.jpg","Q.jpg","0","1","0","",""
"","feedback","","html-keyboard-response","252","377242","0.0-1.0-339.0-0.0","0","0","43324","","null","","","null","37","","","","","","","","","","","","","","","",""
"","time_out","","html-keyboard-response","253","379247","0.0-1.0-341.0-0.0","0","0","43324","","null","","","null","37","","","","","","","","","","","","","","","",""
"","ITI","","html-keyboard-response","254","380250","0.0-1.0-342.0","0","0","43324","","null","","","null","37","","","","","","","","","","","","","","","NaN",""
"","S1","","html-keyboard-response","255","380505","0.0-1.0-344.0","0","0","43324","","null","","","null","38","","","","","","","","","","","","","","","",""
"","ISI","","html-keyboard-response","256","382509","0.0-1.0-345.0","0","0","43324","","null","","","null","38","NaN","","","","","","","","","","","","","","",""
"","S2","","html-keyboard-response","257","382767","0.0-1.0-346.0","0","0","43324","","null","","","null","38","","NaN","","","","","","","","","","","","","",""
"","response","","html-keyboard-response","258","383395","0.0-1.0-347.0-0.0","0","0","43324","","623","","","75","38","","","1","38","training","adjacent","DE","4","5","Q.jpg","R.jpg","0","1","0","",""
"","feedback","","html-keyboard-response","259","384423","0.0-1.0-348.0-0.0","0","0","43324","","null","","","null","38","","","","","","","","","","","","","","","",""
"","time_out","","html-keyboard-response","260","386470","0.0-1.0-350.0-0.0","0","0","43324","","null","","","null","38","","","","","","","","","","","","","","","",""
"","ITI","","html-keyboard-response","261","387473","0.0-1.0-351.0","0","0","43324","","null","","","null","38","","","","","","","","","","","","","","","NaN",""
"","S1","","html-keyboard-response","262","387728","0.0-1.0-353.0","0","0","43324","","null","","","null","39","","","","","","","","","","","","","","","",""
"","ISI","","html-keyboard-response","263","389732","0.0-1.0-354.0","0","0","43324","","null","","","null","39","NaN","","","","","","","","","","","","","","",""
"","S2","","html-keyboard-response","264","389987","0.0-1.0-355.0","0","0","43324","","null","","","null","39","","NaN","","","","","","","","","","","","","",""
"","response","","html-keyboard-response","265","390386","0.0-1.0-356.0-0.0","0","0","43324","","396","","","68","39","","","1","39","training","adjacent","CD","3","4","N.jpg","Q.jpg","1","1","1","",""
"","feedback","","html-keyboard-response","266","391395","0.0-1.0-357.0-0.0","0","0","43324","","null","","","null","39","","","","","","","","","","","","","","","",""
"","ITI","","html-keyboard-response","267","392398","0.0-1.0-360.0","0","0","43324","","null","","","null","39","","","","","","","","","","","","","","","NaN",""
"","S1","","html-keyboard-response","268","392651","0.0-1.0-362.0","0","0","43324","","null","","","null","40","","","","","","","","","","","","","","","",""
"","ISI","","html-keyboard-response","269","394653","0.0-1.0-363.0","0","0","43324","","null","","","null","40","NaN","","","","","","","","","","","","","","",""
"","S2","","html-keyboard-response","270","394907","0.0-1.0-364.0","0","0","43324","","null","","","null","40","","NaN","","","","","","","","","","","","","",""
"","response","","html-keyboard-response","271","395402","0.0-1.0-365.0-0.0","0","0","43324","","492","","","68","40","","","1","40","training","adjacent","GF","7","6","L.jpg","O.jpg","1","0","0","",""
"","feedback","","html-keyboard-response","272","396406","0.0-1.0-366.0-0.0","0","0","43324","","null","","","null","40","","","","","","","","","","","","","","","",""
"","time_out","","html-keyboard-response","273","398411","0.0-1.0-368.0-0.0","0","0","43324","","null","","","null","40","","","","","","","","","","","","","","","",""
"","ITI","","html-keyboard-response","274","399416","0.0-1.0-369.0","0","0","43324","","null","","","null","40","","","","","","","","","","","","","","","NaN",""
"","S1","","html-keyboard-response","275","399683","0.0-1.0-371.0","0","0","43324","","null","","","null","41","","","","","","","","","","","","","","","",""
"","ISI","","html-keyboard-response","276","401689","0.0-1.0-372.0","0","0","43324","","null","","","null","41","NaN","","","","","","","","","","","","","","",""
"","S2","","html-keyboard-response","277","401944","0.0-1.0-373.0","0","0","43324","","null","","","null","41","","NaN","","","","","","","","","","","","","",""
"","response","","html-keyboard-response","278","402339","0.0-1.0-374.0-0.0","0","0","43324","","391","","","75","41","","","1","41","training","adjacent","AB","1","2","M.jpg","P.jpg","0","1","0","",""
"","feedback","","html-keyboard-response","279","403344","0.0-1.0-375.0-0.0","0","0","43324","","null","","","null","41","","","","","","","","","","","","","","","",""
"","time_out","","html-keyboard-response","280","405347","0.0-1.0-377.0-0.0","0","0","43324","","null","","","null","41","","","","","","","","","","","","","","","",""
"","ITI","","html-keyboard-response","281","406357","0.0-1.0-378.0","0","0","43324","","null","","","null","41","","","","","","","","","","","","","","","NaN",""
"","S1","","html-keyboard-response","282","406610","0.0-1.0-380.0","0","0","43324","","null","","","null","42","","","","","","","","","","","","","","","",""
"","ISI","","html-keyboard-response","283","408613","0.0-1.0-381.0","0","0","43324","","null","","","null","42","NaN","","","","","","","","","","","","","","",""
"","S2","","html-keyboard-response","284","408867","0.0-1.0-382.0","0","0","43324","","null","","","null","42","","NaN","","","","","","","","","","","","","",""
"","response","","html-keyboard-response","285","408924","0.0-1.0-383.0-0.0","0","0","43324","","53","","","68","42","","","1","42","training","adjacent","BA","2","1","P.jpg","M.jpg","1","0","0","",""
"","feedback","","html-keyboard-response","286","409931","0.0-1.0-384.0-0.0","0","0","43324","","null","","","null","42","","","","","","","","","","","","","","","",""
"","time_out","","html-keyboard-response","287","411934","0.0-1.0-386.0-0.0","0","0","43324","","null","","","null","42","","","","","","","","","","","","","","","",""
"","ITI","","html-keyboard-response","288","412937","0.0-1.0-387.0","0","0","43324","","null","","","null","42","","","","","","","","","","","","","","","NaN",""
"","S1","","html-keyboard-response","289","413194","0.0-1.0-389.0","0","0","43324","","null","","","null","43","","","","","","","","","","","","","","","",""
"","ISI","","html-keyboard-response","290","415196","0.0-1.0-390.0","0","0","43324","","null","","","null","43","NaN","","","","","","","","","","","","","","",""
"","S2","","html-keyboard-response","291","415450","0.0-1.0-391.0","0","0","43324","","null","","","null","43","","NaN","","","","","","","","","","","","","",""
"","response","","html-keyboard-response","292","415585","0.0-1.0-392.0-0.0","0","0","43324","","132","","","75","43","","","1","43","training","adjacent","GF","7","6","L.jpg","O.jpg","0","0","1","",""
"","feedback","","html-keyboard-response","293","416592","0.0-1.0-393.0-0.0","0","0","43324","","null","","","null","43","","","","","","","","","","","","","","","",""
"","ITI","","html-keyboard-response","294","417596","0.0-1.0-396.0","0","0","43324","","null","","","null","43","","","","","","","","","","","","","","","NaN",""
"","S1","","html-keyboard-response","295","417851","0.0-1.0-398.0","0","0","43324","","null","","","null","44","","","","","","","","","","","","","","","",""
"","ISI","","html-keyboard-response","296","419855","0.0-1.0-399.0","0","0","43324","","null","","","null","44","NaN","","","","","","","","","","","","","","",""
"","S2","","html-keyboard-response","297","420112","0.0-1.0-400.0","0","0","43324","","null","","","null","44","","NaN","","","","","","","","","","","","","",""
"","response","","html-keyboard-response","298","420427","0.0-1.0-401.0-0.0","0","0","43324","","312","","","75","44","","","1","44","training","adjacent","BC","2","3","P.jpg","N.jpg","0","1","0","",""
"","feedback","","html-keyboard-response","299","421433","0.0-1.0-402.0-0.0","0","0","43324","","null","","","null","44","","","","","","","","","","","","","","","",""
"","time_out","","html-keyboard-response","300","423436","0.0-1.0-404.0-0.0","0","0","43324","","null","","","null","44","","","","","","","","","","","","","","","",""
"","ITI","","html-keyboard-response","301","424441","0.0-1.0-405.0","0","0","43324","","null","","","null","44","","","","","","","","","","","","","","","NaN",""
"","S1","","html-keyboard-response","302","424705","0.0-1.0-407.0","0","0","43324","","null","","","null","45","","","","","","","","","","","","","","","",""
"","ISI","","html-keyboard-response","303","426708","0.0-1.0-408.0","0","0","43324","","null","","","null","45","NaN","","","","","","","","","","","","","","",""
"","S2","","html-keyboard-response","304","426963","0.0-1.0-409.0","0","0","43324","","null","","","null","45","","NaN","","","","","","","","","","","","","",""
"","response","","html-keyboard-response","305","427251","0.0-1.0-410.0-0.0","0","0","43324","","284","","","68","45","","","1","45","training","adjacent","DC","4","3","Q.jpg","N.jpg","1","0","0","",""
"","feedback","","html-keyboard-response","306","428256","0.0-1.0-411.0-0.0","0","0","43324","","null","","","null","45","","","","","","","","","","","","","","","",""
"","time_out","","html-keyboard-response","307","430261","0.0-1.0-413.0-0.0","0","0","43324","","null","","","null","45","","","","","","","","","","","","","","","",""
"","ITI","","html-keyboard-response","308","431265","0.0-1.0-414.0","0","0","43324","","null","","","null","45","","","","","","","","","","","","","","","NaN",""
"","S1","","html-keyboard-response","309","431519","0.0-1.0-416.0","0","0","43324","","null","","","null","46","","","","","","","","","","","","","","","",""
"","ISI","","html-keyboard-response","310","433523","0.0-1.0-417.0","0","0","43324","","null","","","null","46","NaN","","","","","","","","","","","","","","",""
"","S2","","html-keyboard-response","311","433777","0.0-1.0-418.0","0","0","43324","","null","","","null","46","","NaN","","","","","","","","","","","","","",""
"","response","","html-keyboard-response","312","433931","0.0-1.0-419.0-0.0","0","0","43324","","151","","","68","46","","","1","46","training","adjacent","CB","3","2","N.jpg","P.jpg","1","0","0","",""
"","feedback","","html-keyboard-response","313","434935","0.0-1.0-420.0-0.0","0","0","43324","","null","","","null","46","","","","","","","","","","","","","","","",""
"","time_out","","html-keyboard-response","314","436939","0.0-1.0-422.0-0.0","0","0","43324","","null","","","null","46","","","","","","","","","","","","","","","",""
"","ITI","","html-keyboard-response","315","437944","0.0-1.0-423.0","0","0","43324","","null","","","null","46","","","","","","","","","","","","","","","NaN",""
"","S1","","html-keyboard-response","316","438199","0.0-1.0-425.0","0","0","43324","","null","","","null","47","","","","","","","","","","","","","","","",""
"","ISI","","html-keyboard-response","317","440202","0.0-1.0-426.0","0","0","43324","","null","","","null","47","NaN","","","","","","","","","","","","","","",""
"","S2","","html-keyboard-response","318","440457","0.0-1.0-427.0","0","0","43324","","null","","","null","47","","NaN","","","","","","","","","","","","","",""
"","response","","html-keyboard-response","319","441059","0.0-1.0-428.0-0.0","0","0","43324","","598","","","75","47","","","1","47","training","adjacent","BA","2","1","P.jpg","M.jpg","0","0","1","",""
"","feedback","","html-keyboard-response","320","442064","0.0-1.0-429.0-0.0","0","0","43324","","null","","","null","47","","","","","","","","","","","","","","","",""
"","ITI","","html-keyboard-response","321","443068","0.0-1.0-432.0","0","0","43324","","null","","","null","47","","","","","","","","","","","","","","","NaN",""
"","block_over","","html-keyboard-response","322","448585","0.0-1.0-433.0-0.0","0","0","43324","","5513","","","32","47","","","","","","","","","","","","","","","",""
"","S1","","html-keyboard-response","323","448839","0.0-1.0-434.0","0","0","43324","","null","","","null","48","","","","","","","","","","","","","","","",""
"","ISI","","html-keyboard-response","324","450843","0.0-1.0-435.0","0","0","43324","","null","","","null","48","NaN","","","","","","","","","","","","","","",""
"","S2","","html-keyboard-response","325","451097","0.0-1.0-436.0","0","0","43324","","null","","","null","48","","NaN","","","","","","","","","","","","","",""
"","response","","html-keyboard-response","326","451795","0.0-1.0-437.0-0.0","0","0","43324","","694","","","75","48","","","2","48","training","adjacent","FE","6","5","O.jpg","R.jpg","0","0","1","",""
"","feedback","","html-keyboard-response","327","452799","0.0-1.0-438.0-0.0","0","0","43324","","null","","","null","48","","","","","","","","","","","","","","","",""
"","ITI","","html-keyboard-response","328","453801","0.0-1.0-441.0","0","0","43324","","null","","","null","48","","","","","","","","","","","","","","","NaN",""
"","S1","","html-keyboard-response","329","454055","0.0-1.0-443.0","0","0","43324","","null","","","null","49","","","","","","","","","","","","","","","",""
"","ISI","","html-keyboard-response","330","456059","0.0-1.0-444.0","0","0","43324","","null","","","null","49","NaN","","","","","","","","","","","","","","",""
"","S2","","html-keyboard-response","331","456314","0.0-1.0-445.0","0","0","43324","","null","","","null","49","","NaN","","","","","","","","","","","","","",""
"","response","","html-keyboard-response","332","456940","0.0-1.0-446.0-0.0","0","0","43324","","621","","","68","49","","","2","49","training","adjacent","BA","2","1","P.jpg","M.jpg","1","0","0","",""
"","feedback","","html-keyboard-response","333","457947","0.0-1.0-447.0-0.0","0","0","43324","","null","","","null","49","","","","","","","","","","","","","","","",""
"","time_out","","html-keyboard-response","334","459959","0.0-1.0-449.0-0.0","0","0","43324","","null","","","null","49","","","","","","","","","","","","","","","",""
"","ITI","","html-keyboard-response","335","460968","0.0-1.0-450.0","0","0","43324","","null","","","null","49","","","","","","","","","","","","","","","NaN",""
"","S1","","html-keyboard-response","336","461222","0.0-1.0-452.0","0","0","43324","","null","","","null","50","","","","","","","","","","","","","","","",""
"","ISI","","html-keyboard-response","337","463226","0.0-1.0-453.0","0","0","43324","","null","","","null","50","NaN","","","","","","","","","","","","","","",""
"","S2","","html-keyboard-response","338","463480","0.0-1.0-454.0","0","0","43324","","null","","","null","50","","NaN","","","","","","","","","","","","","",""
"","response","","html-keyboard-response","339","464155","0.0-1.0-455.0-0.0","0","0","43324","","672","","","68","50","","","2","50","training","adjacent","GF","7","6","L.jpg","O.jpg","1","0","0","",""
"","feedback","","html-keyboard-response","340","465160","0.0-1.0-456.0-0.0","0","0","43324","","null","","","null","50","","","","","","","","","","","","","","","",""
"","time_out","","html-keyboard-response","341","467164","0.0-1.0-458.0-0.0","0","0","43324","","null","","","null","50","","","","","","","","","","","","","","","",""
"","ITI","","html-keyboard-response","342","468168","0.0-1.0-459.0","0","0","43324","","null","","","null","50","","","","","","","","","","","","","","","NaN",""
"","S1","","html-keyboard-response","343","468423","0.0-1.0-461.0","0","0","43324","","null","","","null","51","","","","","","","","","","","","","","","",""
"","ISI","","html-keyboard-response","344","470427","0.0-1.0-462.0","0","0","43324","","null","","","null","51","NaN","","","","","","","","","","","","","","",""
"","S2","","html-keyboard-response","345","470686","0.0-1.0-463.0","0","0","43324","","null","","","null","51","","NaN","","","","","","","","","","","","","",""
"","response","","html-keyboard-response","346","471033","0.0-1.0-464.0-0.0","0","0","43324","","344","","","75","51","","","2","51","training","adjacent","DE","4","5","Q.jpg","R.jpg","0","1","0","",""
"","feedback","","html-keyboard-response","347","472036","0.0-1.0-465.0-0.0","0","0","43324","","null","","","null","51","","","","","","","","","","","","","","","",""
"","time_out","","html-keyboard-response","348","474041","0.0-1.0-467.0-0.0","0","0","43324","","null","","","null","51","","","","","","","","","","","","","","","",""
"","ITI","","html-keyboard-response","349","475045","0.0-1.0-468.0","0","0","43324","","null","","","null","51","","","","","","","","","","","","","","","NaN",""
"","S1","","html-keyboard-response","350","475298","0.0-1.0-470.0","0","0","43324","","null","","","null","52","","","","","","","","","","","","","","","",""
"","ISI","","html-keyboard-response","351","477303","0.0-1.0-471.0","0","0","43324","","null","","","null","52","NaN","","","","","","","","","","","","","","",""
"","S2","","html-keyboard-response","352","477558","0.0-1.0-472.0","0","0","43324","","null","","","null","52","","NaN","","","","","","","","","","","","","",""
"","response","","html-keyboard-response","353","477891","0.0-1.0-473.0-0.0","0","0","43324","","329","","","68","52","","","2","52","training","adjacent","BC","2","3","P.jpg","N.jpg","1","1","1","",""
"","feedback","","html-keyboard-response","354","478896","0.0-1.0-474.0-0.0","0","0","43324","","null","","","null","52","","","","","","","","","","","","","","","",""
"","ITI","","html-keyboard-response","355","479900","0.0-1.0-477.0","0","0","43324","","null","","","null","52","","","","","","","","","","","","","","","NaN",""
"","S1","","html-keyboard-response","356","480154","0.0-1.0-479.0","0","0","43324","","null","","","null","53","","","","","","","","","","","","","","","",""
"","ISI","","html-keyboard-response","357","482160","0.0-1.0-480.0","0","0","43324","","null","","","null","53","NaN","","","","","","","","","","","","","","",""
"","S2","","html-keyboard-response","358","482415","0.0-1.0-481.0","0","0","43324","","null","","","null","53","","NaN","","","","","","","","","","","","","",""
"","response","","html-keyboard-response","359","482986","0.0-1.0-482.0-0.0","0","0","43324","","568","","","75","53","","","2","53","training","adjacent","ED","5","4","R.jpg","Q.jpg","0","0","1","",""
"","feedback","","html-keyboard-response","360","483991","0.0-1.0-483.0-0.0","0","0","43324","","null","","","null","53","","","","","","","","","","","","","","","",""
"","ITI","","html-keyboard-response","361","485001","0.0-1.0-486.0","0","0","43324","","null","","","null","53","","","","","","","","","","","","","","","NaN",""
"","S1","","html-keyboard-response","362","485255","0.0-1.0-488.0","0","0","43324","","null","","","null","54","","","","","","","","","","","","","","","",""
"","ISI","","html-keyboard-response","363","487259","0.0-1.0-489.0","0","0","43324","","null","","","null","54","NaN","","","","","","","","","","","","","","",""
"","S2","","html-keyboard-response","364","487515","0.0-1.0-490.0","0","0","43324","","null","","","null","54","","NaN","","","","","","","","","","","","","",""
"","response","","html-keyboard-response","365","487995","0.0-1.0-491.0-0.0","0","0","43324","","475","","","75","54","","","2","54","training","adjacent","CB","3","2","N.jpg","P.jpg","0","0","1","",""
"","feedback","","html-keyboard-response","366","488999","0.0-1.0-492.0-0.0","0","0","43324","","null","","","null","54","","","","","","","","","","","","","","","",""
"","ITI","","html-keyboard-response","367","490004","0.0-1.0-495.0","0","0","43324","","null","","","null","54","","","","","","","","","","","","","","","NaN",""
"","S1","","html-keyboard-response","368","490258","0.0-1.0-497.0","0","0","43324","","null","","","null","55","","","","","","","","","","","","","","","",""
"","ISI","","html-keyboard-response","369","492260","0.0-1.0-498.0","0","0","43324","","null","","","null","55","NaN","","","","","","","","","","","","","","",""
"","S2","","html-keyboard-response","370","492515","0.0-1.0-499.0","0","0","43324","","null","","","null","55","","NaN","","","","","","","","","","","","","",""
"","response","","html-keyboard-response","371","492884","0.0-1.0-500.0-0.0","0","0","43324","","364","","","75","55","","","2","55","training","adjacent","EF","5","6","R.jpg","O.jpg","0","1","0","",""
"","feedback","","html-keyboard-response","372","493890","0.0-1.0-501.0-0.0","0","0","43324","","null","","","null","55","","","","","","","","","","","","","","","",""
"","time_out","","html-keyboard-response","373","495894","0.0-1.0-503.0-0.0","0","0","43324","","null","","","null","55","","","","","","","","","","","","","","","",""
"","ITI","","html-keyboard-response","374","496898","0.0-1.0-504.0","0","0","43324","","null","","","null","55","","","","","","","","","","","","","","","NaN",""
"","S1","","html-keyboard-response","375","497153","0.0-1.0-506.0","0","0","43324","","null","","","null","56","","","","","","","","","","","","","","","",""
"","ISI","","html-keyboard-response","376","499157","0.0-1.0-507.0","0","0","43324","","null","","","null","56","NaN","","","","","","","","","","","","","","",""
"","S2","","html-keyboard-response","377","499412","0.0-1.0-508.0","0","0","43324","","null","","","null","56","","NaN","","","","","","","","","","","","","",""
"","response","","html-keyboard-response","378","499626","0.0-1.0-509.0-0.0","0","0","43324","","211","","","75","56","","","2","56","training","adjacent","ED","5","4","R.jpg","Q.jpg","0","0","1","",""
"","feedback","","html-keyboard-response","379","500630","0.0-1.0-510.0-0.0","0","0","43324","","null","","","null","56","","","","","","","","","","","","","","","",""
"","ITI","","html-keyboard-response","380","501634","0.0-1.0-513.0","0","0","43324","","null","","","null","56","","","","","","","","","","","","","","","NaN",""
"","S1","","html-keyboard-response","381","501888","0.0-1.0-515.0","0","0","43324","","null","","","null","57","","","","","","","","","","","","","","","",""
"","ISI","","html-keyboard-response","382","503894","0.0-1.0-516.0","0","0","43324","","null","","","null","57","NaN","","","","","","","","","","","","","","",""
"","S2","","html-keyboard-response","383","504149","0.0-1.0-517.0","0","0","43324","","null","","","null","57","","NaN","","","","","","","","","","","","","",""
"","response","","html-keyboard-response","384","504825","0.0-1.0-518.0-0.0","0","0","43324","","673","","","68","57","","","2","57","training","adjacent","DC","4","3","Q.jpg","N.jpg","1","0","0","",""
"","feedback","","html-keyboard-response","385","505830","0.0-1.0-519.0-0.0","0","0","43324","","null","","","null","57","","","","","","","","","","","","","","","",""
"","time_out","","html-keyboard-response","386","507833","0.0-1.0-521.0-0.0","0","0","43324","","null","","","null","57","","","","","","","","","","","","","","","",""
"","ITI","","html-keyboard-response","387","508836","0.0-1.0-522.0","0","0","43324","","null","","","null","57","","","","","","","","","","","","","","","NaN",""
"","S1","","html-keyboard-response","388","509097","0.0-1.0-524.0","0","0","43324","","null","","","null","58","","","","","","","","","","","","","","","",""
"","ISI","","html-keyboard-response","389","511099","0.0-1.0-525.0","0","0","43324","","null","","","null","58","NaN","","","","","","","","","","","","","","",""
"","S2","","html-keyboard-response","390","511354","0.0-1.0-526.0","0","0","43324","","null","","","null","58","","NaN","","","","","","","","","","","","","",""
"","response","","html-keyboard-response","391","511761","0.0-1.0-527.0-0.0","0","0","43324","","404","","","75","58","","","2","58","training","adjacent","AB","1","2","M.jpg","P.jpg","0","1","0","",""
"","feedback","","html-keyboard-response","392","512785","0.0-1.0-528.0-0.0","0","0","43324","","null","","","null","58","","","","","","","","","","","","","","","",""
"","time_out","","html-keyboard-response","393","514790","0.0-1.0-530.0-0.0","0","0","43324","","null","","","null","58","","","","","","","","","","","","","","","",""
"","ITI","","html-keyboard-response","394","515794","0.0-1.0-531.0","0","0","43324","","null","","","null","58","","","","","","","","","","","","","","","NaN",""
"","S1","","html-keyboard-response","395","516047","0.0-1.0-533.0","0","0","43324","","null","","","null","59","","","","","","","","","","","","","","","",""
"","ISI","","html-keyboard-response","396","518052","0.0-1.0-534.0","0","0","43324","","null","","","null","59","NaN","","","","","","","","","","","","","","",""
"","S2","","html-keyboard-response","397","518307","0.0-1.0-535.0","0","0","43324","","null","","","null","59","","NaN","","","","","","","","","","","","","",""
"","response","","html-keyboard-response","398","518432","0.0-1.0-536.0-0.0","0","0","43324","","121","","","68","59","","","2","59","training","adjacent","FG","6","7","O.jpg","L.jpg","1","1","1","",""
"","feedback","","html-keyboard-response","399","519446","0.0-1.0-537.0-0.0","0","0","43324","","null","","","null","59","","","","","","","","","","","","","","","",""
"","ITI","","html-keyboard-response","400","520452","0.0-1.0-540.0","0","0","43324","","null","","","null","59","","","","","","","","","","","","","","","NaN",""
"","S1","","html-keyboard-response","401","520707","0.0-1.0-542.0","0","0","43324","","null","","","null","60","","","","","","","","","","","","","","","",""
"","ISI","","html-keyboard-response","402","522716","0.0-1.0-543.0","0","0","43324","","null","","","null","60","NaN","","","","","","","","","","","","","","",""
"","S2","","html-keyboard-response","403","522977","0.0-1.0-544.0","0","0","43324","","null","","","null","60","","NaN","","","","","","","","","","","","","",""
"","response","","html-keyboard-response","404","523179","0.0-1.0-545.0-0.0","0","0","43324","","197","","","68","60","","","2","60","training","adjacent","AB","1","2","M.jpg","P.jpg","1","1","1","",""
"","feedback","","html-keyboard-response","405","524183","0.0-1.0-546.0-0.0","0","0","43324","","null","","","null","60","","","","","","","","","","","","","","","",""
"","ITI","","html-keyboard-response","406","525186","0.0-1.0-549.0","0","0","43324","","null","","","null","60","","","","","","","","","","","","","","","NaN",""
"","S1","","html-keyboard-response","407","525441","0.0-1.0-551.0","0","0","43324","","null","","","null","61","","","","","","","","","","","","","","","",""
"","ISI","","html-keyboard-response","408","527445","0.0-1.0-552.0","0","0","43324","","null","","","null","61","NaN","","","","","","","","","","","","","","",""
"","S2","","html-keyboard-response","409","527701","0.0-1.0-553.0","0","0","43324","","null","","","null","61","","NaN","","","","","","","","","","","","","",""
"","response","","html-keyboard-response","410","528130","0.0-1.0-554.0-0.0","0","0","43324","","425","","","68","61","","","2","61","training","adjacent","FE","6","5","O.jpg","R.jpg","1","0","0","",""
"","feedback","","html-keyboard-response","411","529136","0.0-1.0-555.0-0.0","0","0","43324","","null","","","null","61","","","","","","","","","","","","","","","",""
"","time_out","","html-keyboard-response","412","531141","0.0-1.0-557.0-0.0","0","0","43324","","null","","","null","61","","","","","","","","","","","","","","","",""
"","ITI","","html-keyboard-response","413","532145","0.0-1.0-558.0","0","0","43324","","null","","","null","61","","","","","","","","","","","","","","","NaN",""
"","S1","","html-keyboard-response","414","532399","0.0-1.0-560.0","0","0","43324","","null","","","null","62","","","","","","","","","","","","","","","",""
"","ISI","","html-keyboard-response","415","534403","0.0-1.0-561.0","0","0","43324","","null","","","null","62","NaN","","","","","","","","","","","","","","",""
"","S2","","html-keyboard-response","416","534659","0.0-1.0-562.0","0","0","43324","","null","","","null","62","","NaN","","","","","","","","","","","","","",""
"","response","","html-keyboard-response","417","535283","0.0-1.0-563.0-0.0","0","0","43324","","618","","","75","62","","","2","62","training","adjacent","CD","3","4","N.jpg","Q.jpg","0","1","0","",""
"","feedback","","html-keyboard-response","418","536289","0.0-1.0-564.0-0.0","0","0","43324","","null","","","null","62","","","","","","","","","","","","","","","",""
"","time_out","","html-keyboard-response","419","538294","0.0-1.0-566.0-0.0","0","0","43324","","null","","","null","62","","","","","","","","","","","","","","","",""
"","ITI","","html-keyboard-response","420","539298","0.0-1.0-567.0","0","0","43324","","null","","","null","62","","","","","","","","","","","","","","","NaN",""
"","S1","","html-keyboard-response","421","539555","0.0-1.0-569.0","0","0","43324","","null","","","null","63","","","","","","","","","","","","","","","",""
"","ISI","","html-keyboard-response","422","541561","0.0-1.0-570.0","0","0","43324","","null","","","null","63","NaN","","","","","","","","","","","","","","",""
"","S2","","html-keyboard-response","423","541827","0.0-1.0-571.0","0","0","43324","","null","","","null","63","","NaN","","","","","","","","","","","","","",""
"","response","","html-keyboard-response","424","542090","0.0-1.0-572.0-0.0","0","0","43324","","259","","","75","63","","","2","63","training","adjacent","FG","6","7","O.jpg","L.jpg","0","1","0","",""
"","feedback","","html-keyboard-response","425","543094","0.0-1.0-573.0-0.0","0","0","43324","","null","","","null","63","","","","","","","","","","","","","","","",""
"","time_out","","html-keyboard-response","426","545112","0.0-1.0-575.0-0.0","0","0","43324","","null","","","null","63","","","","","","","","","","","","","","","",""
"","ITI","","html-keyboard-response","427","546116","0.0-1.0-576.0","0","0","43324","","null","","","null","63","","","","","","","","","","","","","","","NaN",""
"","S1","","html-keyboard-response","428","546373","0.0-1.0-578.0","0","0","43324","","null","","","null","64","","","","","","","","","","","","","","","",""
"","ISI","","html-keyboard-response","429","548377","0.0-1.0-579.0","0","0","43324","","null","","","null","64","NaN","","","","","","","","","","","","","","",""
"","S2","","html-keyboard-response","430","548632","0.0-1.0-580.0","0","0","43324","","null","","","null","64","","NaN","","","","","","","","","","","","","",""
"","response","","html-keyboard-response","431","549042","0.0-1.0-581.0-0.0","0","0","43324","","406","","","75","64","","","2","64","training","adjacent","AB","1","2","M.jpg","P.jpg","0","1","0","",""
"","feedback","","html-keyboard-response","432","550046","0.0-1.0-582.0-0.0","0","0","43324","","null","","","null","64","","","","","","","","","","","","","","","",""
"","time_out","","html-keyboard-response","433","552051","0.0-1.0-584.0-0.0","0","0","43324","","null","","","null","64","","","","","","","","","","","","","","","",""
"","ITI","","html-keyboard-response","434","553056","0.0-1.0-585.0","0","0","43324","","null","","","null","64","","","","","","","","","","","","","","","NaN",""
"","S1","","html-keyboard-response","435","553311","0.0-1.0-587.0","0","0","43324","","null","","","null","65","","","","","","","","","","","","","","","",""
"","ISI","","html-keyboard-response","436","555316","0.0-1.0-588.0","0","0","43324","","null","","","null","65","NaN","","","","","","","","","","","","","","",""
"","S2","","html-keyboard-response","437","555582","0.0-1.0-589.0","0","0","43324","","null","","","null","65","","NaN","","","","","","","","","","","","","",""
"","response","","html-keyboard-response","438","555601","0.0-1.0-590.0-0.0","0","0","43324","","15","","","75","65","","","2","65","training","adjacent","FG","6","7","O.jpg","L.jpg","0","1","0","",""
"","feedback","","html-keyboard-response","439","556605","0.0-1.0-591.0-0.0","0","0","43324","","null","","","null","65","","","","","","","","","","","","","","","",""
"","time_out","","html-keyboard-response","440","558608","0.0-1.0-593.0-0.0","0","0","43324","","null","","","null","65","","","","","","","","","","","","","","","",""
"","ITI","","html-keyboard-response","441","559611","0.0-1.0-594.0","0","0","43324","","null","","","null","65","","","","","","","","","","","","","","","NaN",""
"","S1","","html-keyboard-response","442","559866","0.0-1.0-596.0","0","0","43324","","null","","","null","66","","","","","","","","","","","","","","","",""
"","ISI","","html-keyboard-response","443","561870","0.0-1.0-597.0","0","0","43324","","null","","","null","66","NaN","","","","","","","","","","","","","","",""
"","S2","","html-keyboard-response","444","562125","0.0-1.0-598.0","0","0","43324","","null","","","null","66","","NaN","","","","","","","","","","","","","",""
"","response","","html-keyboard-response","445","562483","0.0-1.0-599.0-0.0","0","0","43324","","352","","","68","66","","","2","66","training","adjacent","AB","1","2","M.jpg","P.jpg","1","1","1","",""
"","feedback","","html-keyboard-response","446","563487","0.0-1.0-600.0-0.0","0","0","43324","","null","","","null","66","","","","","","","","","","","","","","","",""
"","ITI","","html-keyboard-response","447","564493","0.0-1.0-603.0","0","0","43324","","null","","","null","66","","","","","","","","","","","","","","","NaN",""
"","S1","","html-keyboard-response","448","564748","0.0-1.0-605.0","0","0","43324","","null","","","null","67","","","","","","","","","","","","","","","",""
"","ISI","","html-keyboard-response","449","566753","0.0-1.0-606.0","0","0","43324","","null","","","null","67","NaN","","","","","","","","","","","","","","",""
"","S2","","html-keyboard-response","450","567008","0.0-1.0-607.0","0","0","43324","","null","","","null","67","","NaN","","","","","","","","","","","","","",""
"","response","","html-keyboard-response","451","567938","0.0-1.0-608.0-0.0","0","0","43324","","926","","","68","67","","","2","67","training","adjacent","DC","4","3","Q.jpg","N.jpg","1","0","0","",""
"","feedback","","html-keyboard-response","452","568944","0.0-1.0-609.0-0.0","0","0","43324","","null","","","null","67","","","","","","","","","","","","","","","",""
"","time_out","","html-keyboard-response","453","570953","0.0-1.0-611.0-0.0","0","0","43324","","null","","","null","67","","","","","","","","","","","","","","","",""
"","ITI","","html-keyboard-response","454","571957","0.0-1.0-612.0","0","0","43324","","null","","","null","67","","","","","","","","","","","","","","","NaN",""
"","S1","","html-keyboard-response","455","572222","0.0-1.0-614.0","0","0","43324","","null","","","null","68","","","","","","","","","","","","","","","",""
"","ISI","","html-keyboard-response","456","574226","0.0-1.0-615.0","0","0","43324","","null","","","null","68","NaN","","","","","","","","","","","","","","",""
"","S2","","html-keyboard-response","457","574479","0.0-1.0-616.0","0","0","43324","","null","","","null","68","","NaN","","","","","","","","","","","","","",""
"","response","","html-keyboard-response","458","575002","0.0-1.0-617.0-0.0","0","0","43324","","519","","","68","68","","","2","68","training","adjacent","CB","3","2","N.jpg","P.jpg","1","0","0","",""
"","feedback","","html-keyboard-response","459","576007","0.0-1.0-618.0-0.0","0","0","43324","","null","","","null","68","","","","","","","","","","","","","","","",""
"","time_out","","html-keyboard-response","460","578009","0.0-1.0-620.0-0.0","0","0","43324","","null","","","null","68","","","","","","","","","","","","","","","",""
"","ITI","","html-keyboard-response","461","579013","0.0-1.0-621.0","0","0","43324","","null","","","null","68","","","","","","","","","","","","","","","NaN",""
"","S1","","html-keyboard-response","462","579267","0.0-1.0-623.0","0","0","43324","","null","","","null","69","","","","","","","","","","","","","","","",""
"","ISI","","html-keyboard-response","463","581271","0.0-1.0-624.0","0","0","43324","","null","","","null","69","NaN","","","","","","","","","","","","","","",""
"","S2","","html-keyboard-response","464","581527","0.0-1.0-625.0","0","0","43324","","null","","","null","69","","NaN","","","","","","","","","","","","","",""
"","response","","html-keyboard-response","465","581807","0.0-1.0-626.0-0.0","0","0","43324","","278","","","75","69","","","2","69","training","adjacent","BA","2","1","P.jpg","M.jpg","0","0","1","",""
"","feedback","","html-keyboard-response","466","582812","0.0-1.0-627.0-0.0","0","0","43324","","null","","","null","69","","","","","","","","","","","","","","","",""
"","ITI","","html-keyboard-response","467","583816","0.0-1.0-630.0","0","0","43324","","null","","","null","69","","","","","","","","","","","","","","","NaN",""
"","S1","","html-keyboard-response","468","584071","0.0-1.0-632.0","0","0","43324","","null","","","null","70","","","","","","","","","","","","","","","",""
"","ISI","","html-keyboard-response","469","586085","0.0-1.0-633.0","0","0","43324","","null","","","null","70","NaN","","","","","","","","","","","","","","",""
"","S2","","html-keyboard-response","470","586340","0.0-1.0-634.0","0","0","43324","","null","","","null","70","","NaN","","","","","","","","","","","","","",""
"","response","","html-keyboard-response","471","587050","0.0-1.0-635.0-0.0","0","0","43324","","705","","","68","70","","","2","70","training","adjacent","CB","3","2","N.jpg","P.jpg","1","0","0","",""
"","feedback","","html-keyboard-response","472","588056","0.0-1.0-636.0-0.0","0","0","43324","","null","","","null","70","","","","","","","","","","","","","","","",""
"","time_out","","html-keyboard-response","473","590060","0.0-1.0-638.0-0.0","0","0","43324","","null","","","null","70","","","","","","","","","","","","","","","",""
"","ITI","","html-keyboard-response","474","591066","0.0-1.0-639.0","0","0","43324","","null","","","null","70","","","","","","","","","","","","","","","NaN",""
"","S1","","html-keyboard-response","475","591322","0.0-1.0-641.0","0","0","43324","","null","","","null","71","","","","","","","","","","","","","","","",""
"","ISI","","html-keyboard-response","476","593326","0.0-1.0-642.0","0","0","43324","","null","","","null","71","NaN","","","","","","","","","","","","","","",""
"","S2","","html-keyboard-response","477","593580","0.0-1.0-643.0","0","0","43324","","null","","","null","71","","NaN","","","","","","","","","","","","","",""
"","response","","html-keyboard-response","478","593849","0.0-1.0-644.0-0.0","0","0","43324","","265","","","75","71","","","2","71","training","adjacent","FE","6","5","O.jpg","R.jpg","0","0","1","",""
"","feedback","","html-keyboard-response","479","594853","0.0-1.0-645.0-0.0","0","0","43324","","null","","","null","71","","","","","","","","","","","","","","","",""
"","ITI","","html-keyboard-response","480","595857","0.0-1.0-648.0","0","0","43324","","null","","","null","71","","","","","","","","","","","","","","","NaN",""
"","S1","","html-keyboard-response","481","596112","0.0-1.0-650.0","0","0","43324","","null","","","null","72","","","","","","","","","","","","","","","",""
"","ISI","","html-keyboard-response","482","598116","0.0-1.0-651.0","0","0","43324","","null","","","null","72","NaN","","","","","","","","","","","","","","",""
"","S2","","html-keyboard-response","483","598372","0.0-1.0-652.0","0","0","43324","","null","","","null","72","","NaN","","","","","","","","","","","","","",""
"","response","","html-keyboard-response","484","598639","0.0-1.0-653.0-0.0","0","0","43324","","264","","","75","72","","","2","72","training","adjacent","ED","5","4","R.jpg","Q.jpg","0","0","1","",""
"","feedback","","html-keyboard-response","485","599643","0.0-1.0-654.0-0.0","0","0","43324","","null","","","null","72","","","","","","","","","","","","","","","",""
"","ITI","","html-keyboard-response","486","600647","0.0-1.0-657.0","0","0","43324","","null","","","null","72","","","","","","","","","","","","","","","NaN",""
"","S1","","html-keyboard-response","487","600900","0.0-1.0-659.0","0","0","43324","","null","","","null","73","","","","","","","","","","","","","","","",""
"","ISI","","html-keyboard-response","488","602904","0.0-1.0-660.0","0","0","43324","","null","","","null","73","NaN","","","","","","","","","","","","","","",""
"","S2","","html-keyboard-response","489","603159","0.0-1.0-661.0","0","0","43324","","null","","","null","73","","NaN","","","","","","","","","","","","","",""
"","response","","html-keyboard-response","490","603426","0.0-1.0-662.0-0.0","0","0","43324","","261","","","68","73","","","2","73","training","adjacent","CB","3","2","N.jpg","P.jpg","1","0","0","",""
"","feedback","","html-keyboard-response","491","604433","0.0-1.0-663.0-0.0","0","0","43324","","null","","","null","73","","","","","","","","","","","","","","","",""
"","time_out","","html-keyboard-response","492","606439","0.0-1.0-665.0-0.0","0","0","43324","","null","","","null","73","","","","","","","","","","","","","","","",""
"","ITI","","html-keyboard-response","493","607443","0.0-1.0-666.0","0","0","43324","","null","","","null","73","","","","","","","","","","","","","","","NaN",""
"","S1","","html-keyboard-response","494","607696","0.0-1.0-668.0","0","0","43324","","null","","","null","74","","","","","","","","","","","","","","","",""
"","ISI","","html-keyboard-response","495","609700","0.0-1.0-669.0","0","0","43324","","null","","","null","74","NaN","","","","","","","","","","","","","","",""
"","S2","","html-keyboard-response","496","609954","0.0-1.0-670.0","0","0","43324","","null","","","null","74","","NaN","","","","","","","","","","","","","",""
"","response","","html-keyboard-response","497","610265","0.0-1.0-671.0-0.0","0","0","43324","","307","","","75","74","","","2","74","training","adjacent","CD","3","4","N.jpg","Q.jpg","0","1","0","",""
"","feedback","","html-keyboard-response","498","611270","0.0-1.0-672.0-0.0","0","0","43324","","null","","","null","74","","","","","","","","","","","","","","","",""
"","time_out","","html-keyboard-response","499","613275","0.0-1.0-674.0-0.0","0","0","43324","","null","","","null","74","","","","","","","","","","","","","","","",""
"","ITI","","html-keyboard-response","500","614279","0.0-1.0-675.0","0","0","43324","","null","","","null","74","","","","","","","","","","","","","","","NaN",""
"","S1","","html-keyboard-response","501","614536","0.0-1.0-677.0","0","0","43324","","null","","","null","75","","","","","","","","","","","","","","","",""
"","ISI","","html-keyboard-response","502","616539","0.0-1.0-678.0","0","0","43324","","246","","","75","75","k","","","","","","","","","","","","","","",""
"","S2","","html-keyboard-response","503","616792","0.0-1.0-679.0","0","0","43324","","null","","","null","75","","NaN","","","","","","","","","","","","","",""
"","response","","html-keyboard-response","504","617200","0.0-1.0-680.0-0.0","0","0","43324","","405","","","68","75","","","2","75","training","adjacent","DE","4","5","Q.jpg","R.jpg","1","1","1","",""
"","feedback","","html-keyboard-response","505","618205","0.0-1.0-681.0-0.0","0","0","43324","","null","","","null","75","","","","","","","","","","","","","","","",""
"","ITI","","html-keyboard-response","506","619209","0.0-1.0-684.0","0","0","43324","","null","","","null","75","","","","","","","","","","","","","","","NaN",""
"","S1","","html-keyboard-response","507","619463","0.0-1.0-686.0","0","0","43324","","null","","","null","76","","","","","","","","","","","","","","","",""
"","ISI","","html-keyboard-response","508","621468","0.0-1.0-687.0","0","0","43324","","null","","","null","76","NaN","","","","","","","","","","","","","","",""
"","S2","","html-keyboard-response","509","621724","0.0-1.0-688.0","0","0","43324","","null","","","null","76","","NaN","","","","","","","","","","","","","",""
"","response","","html-keyboard-response","510","622417","0.0-1.0-689.0-0.0","0","0","43324","","689","","","68","76","","","2","76","training","adjacent","BC","2","3","P.jpg","N.jpg","1","1","1","",""
"","feedback","","html-keyboard-response","511","623422","0.0-1.0-690.0-0.0","0","0","43324","","null","","","null","76","","","","","","","","","","","","","","","",""
"","ITI","","html-keyboard-response","512","624425","0.0-1.0-693.0","0","0","43324","","null","","","null","76","","","","","","","","","","","","","","","NaN",""
"","S1","","html-keyboard-response","513","624678","0.0-1.0-695.0","0","0","43324","","null","","","null","77","","","","","","","","","","","","","","","",""
"","ISI","","html-keyboard-response","514","626681","0.0-1.0-696.0","0","0","43324","","null","","","null","77","NaN","","","","","","","","","","","","","","",""
"","S2","","html-keyboard-response","515","626936","0.0-1.0-697.0","0","0","43324","","null","","","null","77","","NaN","","","","","","","","","","","","","",""
"","response","","html-keyboard-response","516","627504","0.0-1.0-698.0-0.0","0","0","43324","","565","","","75","77","","","2","77","training","adjacent","DC","4","3","Q.jpg","N.jpg","0","0","1","",""
"","feedback","","html-keyboard-response","517","628512","0.0-1.0-699.0-0.0","0","0","43324","","null","","","null","77","","","","","","","","","","","","","","","",""
"","ITI","","html-keyboard-response","518","629516","0.0-1.0-702.0","0","0","43324","","null","","","null","77","","","","","","","","","","","","","","","NaN",""
"","S1","","html-keyboard-response","519","629771","0.0-1.0-704.0","0","0","43324","","null","","","null","78","","","","","","","","","","","","","","","",""
"","ISI","","html-keyboard-response","520","631774","0.0-1.0-705.0","0","0","43324","","null","","","null","78","NaN","","","","","","","","","","","","","","",""
"","S2","","html-keyboard-response","521","632030","0.0-1.0-706.0","0","0","43324","","null","","","null","78","","NaN","","","","","","","","","","","","","",""
"","response","","html-keyboard-response","522","632361","0.0-1.0-707.0-0.0","0","0","43324","","326","","","75","78","","","2","78","training","adjacent","BC","2","3","P.jpg","N.jpg","0","1","0","",""
"","feedback","","html-keyboard-response","523","633366","0.0-1.0-708.0-0.0","0","0","43324","","null","","","null","78","","","","","","","","","","","","","","","",""
"","time_out","","html-keyboard-response","524","635371","0.0-1.0-710.0-0.0","0","0","43324","","null","","","null","78","","","","","","","","","","","","","","","",""
"","ITI","","html-keyboard-response","525","636375","0.0-1.0-711.0","0","0","43324","","null","","","null","78","","","","","","","","","","","","","","","NaN",""
"","S1","","html-keyboard-response","526","636630","0.0-1.0-713.0","0","0","43324","","null","","","null","79","","","","","","","","","","","","","","","",""
"","ISI","","html-keyboard-response","527","638633","0.0-1.0-714.0","0","0","43324","","224","","","75","79","k","","","","","","","","","","","","","","",""
"","S2","","html-keyboard-response","528","638887","0.0-1.0-715.0","0","0","43324","","null","","","null","79","","NaN","","","","","","","","","","","","","",""
"","response","","html-keyboard-response","529","639390","0.0-1.0-716.0-0.0","0","0","43324","","501","","","68","79","","","2","79","training","adjacent","CD","3","4","N.jpg","Q.jpg","1","1","1","",""
"","feedback","","html-keyboard-response","530","640395","0.0-1.0-717.0-0.0","0","0","43324","","null","","","null","79","","","","","","","","","","","","","","","",""
"","ITI","","html-keyboard-response","531","641400","0.0-1.0-720.0","0","0","43324","","null","","","null","79","","","","","","","","","","","","","","","NaN",""
"","S1","","html-keyboard-response","532","641655","0.0-1.0-722.0","0","0","43324","","null","","","null","80","","","","","","","","","","","","","","","",""
"","ISI","","html-keyboard-response","533","643659","0.0-1.0-723.0","0","0","43324","","null","","","null","80","NaN","","","","","","","","","","","","","","",""
"","S2","","html-keyboard-response","534","643913","0.0-1.0-724.0","0","0","43324","","null","","","null","80","","NaN","","","","","","","","","","","","","",""
"","response","","html-keyboard-response","535","644433","0.0-1.0-725.0-0.0","0","0","43324","","516","","","75","80","","","2","80","training","adjacent","DE","4","5","Q.jpg","R.jpg","0","1","0","",""
"","feedback","","html-keyboard-response","536","645451","0.0-1.0-726.0-0.0","0","0","43324","","null","","","null","80","","","","","","","","","","","","","","","",""
"","time_out","","html-keyboard-response","537","647455","0.0-1.0-728.0-0.0","0","0","43324","","null","","","null","80","","","","","","","","","","","","","","","",""
"","ITI","","html-keyboard-response","538","648458","0.0-1.0-729.0","0","0","43324","","null","","","null","80","","","","","","","","","","","","","","","NaN",""
"","S1","","html-keyboard-response","539","648713","0.0-1.0-731.0","0","0","43324","","null","","","null","81","","","","","","","","","","","","","","","",""
"","ISI","","html-keyboard-response","540","650717","0.0-1.0-732.0","0","0","43324","","null","","","null","81","NaN","","","","","","","","","","","","","","",""
"","S2","","html-keyboard-response","541","650972","0.0-1.0-733.0","0","0","43324","","null","","","null","81","","NaN","","","","","","","","","","","","","",""
"","response","","html-keyboard-response","542","651176","0.0-1.0-734.0-0.0","0","0","43324","","202","","","75","81","","","2","81","training","adjacent","ED","5","4","R.jpg","Q.jpg","0","0","1","",""
"","feedback","","html-keyboard-response","543","652182","0.0-1.0-735.0-0.0","0","0","43324","","null","","","null","81","","","","","","","","","","","","","","","",""
"","ITI","","html-keyboard-response","544","653186","0.0-1.0-738.0","0","0","43324","","null","","","null","81","","","","","","","","","","","","","","","NaN",""
"","S1","","html-keyboard-response","545","653440","0.0-1.0-740.0","0","0","43324","","null","","","null","82","","","","","","","","","","","","","","","",""
"","ISI","","html-keyboard-response","546","655444","0.0-1.0-741.0","0","0","43324","","null","","","null","82","NaN","","","","","","","","","","","","","","",""
"","S2","","html-keyboard-response","547","655699","0.0-1.0-742.0","0","0","43324","","null","","","null","82","","NaN","","","","","","","","","","","","","",""
"","response","","html-keyboard-response","548","656463","0.0-1.0-743.0-0.0","0","0","43324","","760","","","68","82","","","2","82","training","adjacent","GF","7","6","L.jpg","O.jpg","1","0","0","",""
"","feedback","","html-keyboard-response","549","657468","0.0-1.0-744.0-0.0","0","0","43324","","null","","","null","82","","","","","","","","","","","","","","","",""
"","time_out","","html-keyboard-response","550","659472","0.0-1.0-746.0-0.0","0","0","43324","","null","","","null","82","","","","","","","","","","","","","","","",""
"","ITI","","html-keyboard-response","551","660476","0.0-1.0-747.0","0","0","43324","","null","","","null","82","","","","","","","","","","","","","","","NaN",""
"","S1","","html-keyboard-response","552","660732","0.0-1.0-749.0","0","0","43324","","null","","","null","83","","","","","","","","","","","","","","","",""
"","ISI","","html-keyboard-response","553","662738","0.0-1.0-750.0","0","0","43324","","1169","","","68","83","d","","","","","","","","","","","","","","",""
"","S2","","html-keyboard-response","554","662993","0.0-1.0-751.0","0","0","43324","","null","","","null","83","","NaN","","","","","","","","","","","","","",""
"","response","","html-keyboard-response","555","663496","0.0-1.0-752.0-0.0","0","0","43324","","498","","","68","83","","","2","83","training","adjacent","DC","4","3","Q.jpg","N.jpg","1","0","0","",""
"","feedback","","html-keyboard-response","556","664502","0.0-1.0-753.0-0.0","0","0","43324","","null","","","null","83","","","","","","","","","","","","","","","",""
"","time_out","","html-keyboard-response","557","666510","0.0-1.0-755.0-0.0","0","0","43324","","null","","","null","83","","","","","","","","","","","","","","","",""
"","ITI","","html-keyboard-response","558","667514","0.0-1.0-756.0","0","0","43324","","null","","","null","83","","","","","","","","","","","","","","","NaN",""
"","S1","","html-keyboard-response","559","667768","0.0-1.0-758.0","0","0","43324","","null","","","null","84","","","","","","","","","","","","","","","",""
"","ISI","","html-keyboard-response","560","669773","0.0-1.0-759.0","0","0","43324","","1188","","","75","84","k","","","","","","","","","","","","","","",""
"","S2","","html-keyboard-response","561","670027","0.0-1.0-760.0","0","0","43324","","null","","","null","84","","NaN","","","","","","","","","","","","","",""
"","response","","html-keyboard-response","562","670248","0.0-1.0-761.0-0.0","0","0","43324","","216","","","75","84","","","2","84","training","adjacent","FG","6","7","O.jpg","L.jpg","0","1","0","",""
"","feedback","","html-keyboard-response","563","671253","0.0-1.0-762.0-0.0","0","0","43324","","null","","","null","84","","","","","","","","","","","","","","","",""
"","time_out","","html-keyboard-response","564","673260","0.0-1.0-764.0-0.0","0","0","43324","","null","","","null","84","","","","","","","","","","","","","","","",""
"","ITI","","html-keyboard-response","565","674265","0.0-1.0-765.0","0","0","43324","","null","","","null","84","","","","","","","","","","","","","","","NaN",""
"","S1","","html-keyboard-response","566","674523","0.0-1.0-767.0","0","0","43324","","null","","","null","85","","","","","","","","","","","","","","","",""
"","ISI","","html-keyboard-response","567","676527","0.0-1.0-768.0","0","0","43324","","null","","","null","85","NaN","","","","","","","","","","","","","","",""
"","S2","","html-keyboard-response","568","676783","0.0-1.0-769.0","0","0","43324","","null","","","null","85","","NaN","","","","","","","","","","","","","",""
"","response","","html-keyboard-response","569","676967","0.0-1.0-770.0-0.0","0","0","43324","","181","","","75","85","","","2","85","training","adjacent","EF","5","6","R.jpg","O.jpg","0","1","0","",""
"","feedback","","html-keyboard-response","570","677973","0.0-1.0-771.0-0.0","0","0","43324","","null","","","null","85","","","","","","","","","","","","","","","",""
"","time_out","","html-keyboard-response","571","679978","0.0-1.0-773.0-0.0","0","0","43324","","null","","","null","85","","","","","","","","","","","","","","","",""
"","ITI","","html-keyboard-response","572","680982","0.0-1.0-774.0","0","0","43324","","null","","","null","85","","","","","","","","","","","","","","","NaN",""
"","S1","","html-keyboard-response","573","681239","0.0-1.0-776.0","0","0","43324","","null","","","null","86","","","","","","","","","","","","","","","",""
"","ISI","","html-keyboard-response","574","683244","0.0-1.0-777.0","0","0","43324","","null","","","null","86","NaN","","","","","","","","","","","","","","",""
"","S2","","html-keyboard-response","575","683500","0.0-1.0-778.0","0","0","43324","","null","","","null","86","","NaN","","","","","","","","","","","","","",""
"","response","","html-keyboard-response","576","683926","0.0-1.0-779.0-0.0","0","0","43324","","422","","","75","86","","","2","86","training","adjacent","EF","5","6","R.jpg","O.jpg","0","1","0","",""
"","feedback","","html-keyboard-response","577","684931","0.0-1.0-780.0-0.0","0","0","43324","","null","","","null","86","","","","","","","","","","","","","","","",""
"","time_out","","html-keyboard-response","578","686936","0.0-1.0-782.0-0.0","0","0","43324","","null","","","null","86","","","","","","","","","","","","","","","",""
"","ITI","","html-keyboard-response","579","687940","0.0-1.0-783.0","0","0","43324","","null","","","null","86","","","","","","","","","","","","","","","NaN",""
"","S1","","html-keyboard-response","580","688194","0.0-1.0-785.0","0","0","43324","","null","","","null","87","","","","","","","","","","","","","","","",""
"","ISI","","html-keyboard-response","581","690198","0.0-1.0-786.0","0","0","43324","","null","","","null","87","NaN","","","","","","","","","","","","","","",""
"","S2","","html-keyboard-response","582","690454","0.0-1.0-787.0","0","0","43324","","null","","","null","87","","NaN","","","","","","","","","","","","","",""
