"success","ttype","start_time","trial_type","trial_index","time_elapsed","internal_node_id","warning","missed_checkup","PID","view_history","rt","responses","repeat_instructions","key_press","index","keypress_isi","keypress_S2","block","trial_num","phase","group_type","pair_type","S1_stim","S2_stim","S1_img","S2_img","S1_chosen","S1_higher","accuracy","keypress_iti","total_bonus_tally"
"true","full_screen","d03072023hr1801","fullscreen","0","6910","0.0-0.0","0","0","66749","","","","","","","","","","","","","","","","","","","","","",""
"","instructions","","instructions","1","51902","0.0-1.0-0.0-0.0","0","0","66749","[{""page_index"":0,""viewing_time"":7419},{""page_index"":1,""viewing_time"":18495},{""page_index"":2,""viewing_time"":16400},{""page_index"":3,""viewing_time"":2666}]","44982","","","","","","","","","","","","","","","","","","","",""
"","comprehension_check","","survey-multi-choice","2","82776","0.0-1.0-0.0-1.0","0","0","66749","","30845","{""Q0"":""True"",""Q1"":""K"",""Q2"":""Once the second image appears and while the screen 'MAKE A CHOICE' is shown"",""Q3"":""Green mark"",""Q4"":""either D or K""}","0","","","","","","","","","","","","","","","","","",""
"","start_exp","","html-keyboard-response","3","85969","0.0-1.0-1.0","0","0","66749","","3182","","","32","","","","","","","","","","","","","","","","",""
"","S1","","html-keyboard-response","4","86233","0.0-1.0-2.0","0","0","66749","","null","","","null","0","","","","","","","","","","","","","","","",""
"","ISI","","html-keyboard-response","5","87250","0.0-1.0-3.0","0","0","66749","","null","","","null","0","NaN","","","","","","","","","","","","","","",""
"","S2","","html-keyboard-response","6","87517","0.0-1.0-4.0","0","0","66749","","null","","","null","0","","NaN","","","","","","","","","","","","","",""
"","response","","html-keyboard-response","7","89280","0.0-1.0-5.0-0.0","0","0","66749","","null","","","null","0","","","1","0","training","adjacent","CB","3","2","P.jpg","N.jpg","NaN","0","0","",""
"","too_slow_prompt","","html-keyboard-response","8","90287","0.0-1.0-7.0-0.0","1","0","66749","","null","","","null","","","","","","","","","","","","","","","","",""
"","time_out","","html-keyboard-response","9","92303","0.0-1.0-8.0-0.0","0","0","66749","","null","","","null","0","","","","","","","","","","","","","","","",""
"","ITI","","html-keyboard-response","10","93315","0.0-1.0-9.0","0","0","66749","","null","","","null","0","","","","","","","","","","","","","","","NaN",""
"","S1","","html-keyboard-response","11","93582","0.0-1.0-11.0","0","0","66749","","null","","","null","1","","","","","","","","","","","","","","","",""
"","ISI","","html-keyboard-response","12","94594","0.0-1.0-12.0","0","0","66749","","null","","","null","1","NaN","","","","","","","","","","","","","","",""
"","S2","","html-keyboard-response","13","94858","0.0-1.0-13.0","0","0","66749","","null","","","null","1","","NaN","","","","","","","","","","","","","",""
"","response","","html-keyboard-response","14","95469","0.0-1.0-14.0-0.0","0","0","66749","","604","","","75","1","","","1","1","training","adjacent","BA","2","1","N.jpg","O.jpg","1","0","0","",""
"","feedback","","html-keyboard-response","15","96479","0.0-1.0-15.0-0.0","0","0","66749","","null","","","null","1","","","","","","","","","","","","","","","",""
"","time_out","","html-keyboard-response","16","98488","0.0-1.0-17.0-0.0","0","0","66749","","null","","","null","1","","","","","","","","","","","","","","","",""
"","ITI","","html-keyboard-response","17","99496","0.0-1.0-18.0","0","0","66749","","null","","","null","1","","","","","","","","","","","","","","","NaN",""
"","S1","","html-keyboard-response","18","99755","0.0-1.0-20.0","0","0","66749","","null","","","null","2","","","","","","","","","","","","","","","",""
"","ISI","","html-keyboard-response","19","100771","0.0-1.0-21.0","0","0","66749","","null","","","null","2","NaN","","","","","","","","","","","","","","",""
"","S2","","html-keyboard-response","20","101031","0.0-1.0-22.0","0","0","66749","","null","","","null","2","","NaN","","","","","","","","","","","","","",""
"","response","","html-keyboard-response","21","102088","0.0-1.0-23.0-0.0","0","0","66749","","1050","","","75","2","","","1","2","training","adjacent","FE","6","5","L.jpg","R.jpg","1","0","0","",""
"","feedback","","html-keyboard-response","22","103105","0.0-1.0-24.0-0.0","0","0","66749","","null","","","null","2","","","","","","","","","","","","","","","",""
"","time_out","","html-keyboard-response","23","105112","0.0-1.0-26.0-0.0","0","0","66749","","null","","","null","2","","","","","","","","","","","","","","","",""
"","ITI","","html-keyboard-response","24","106123","0.0-1.0-27.0","0","0","66749","","null","","","null","2","","","","","","","","","","","","","","","NaN",""
"","S1","","html-keyboard-response","25","106387","0.0-1.0-29.0","0","0","66749","","null","","","null","3","","","","","","","","","","","","","","","",""
"","ISI","","html-keyboard-response","26","107402","0.0-1.0-30.0","0","0","66749","","null","","","null","3","NaN","","","","","","","","","","","","","","",""
"","S2","","html-keyboard-response","27","107667","0.0-1.0-31.0","0","0","66749","","null","","","null","3","","NaN","","","","","","","","","","","","","",""
"","response","","html-keyboard-response","28","108134","0.0-1.0-32.0-0.0","0","0","66749","","459","","","68","3","","","1","3","training","adjacent","FE","6","5","L.jpg","R.jpg","0","0","1","",""
"","feedback","","html-keyboard-response","29","109146","0.0-1.0-33.0-0.0","0","0","66749","","null","","","null","3","","","","","","","","","","","","","","","",""
"","ITI","","html-keyboard-response","30","110162","0.0-1.0-36.0","0","0","66749","","null","","","null","3","","","","","","","","","","","","","","","NaN",""
"","S1","","html-keyboard-response","31","110426","0.0-1.0-38.0","0","0","66749","","null","","","null","4","","","","","","","","","","","","","","","",""
"","ISI","","html-keyboard-response","32","111435","0.0-1.0-39.0","0","0","66749","","null","","","null","4","NaN","","","","","","","","","","","","","","",""
"","S2","","html-keyboard-response","33","111696","0.0-1.0-40.0","0","0","66749","","null","","","null","4","","NaN","","","","","","","","","","","","","",""
"","response","","html-keyboard-response","34","112496","0.0-1.0-41.0-0.0","0","0","66749","","789","","","68","4","","","1","4","training","adjacent","DE","4","5","M.jpg","R.jpg","0","1","0","",""
"","feedback","","html-keyboard-response","35","113507","0.0-1.0-42.0-0.0","0","0","66749","","null","","","null","4","","","","","","","","","","","","","","","",""
"","time_out","","html-keyboard-response","36","115526","0.0-1.0-44.0-0.0","0","0","66749","","null","","","null","4","","","","","","","","","","","","","","","",""
"","ITI","","html-keyboard-response","37","116543","0.0-1.0-45.0","0","0","66749","","null","","","null","4","","","","","","","","","","","","","","","NaN",""
"","S1","","html-keyboard-response","38","116809","0.0-1.0-47.0","0","0","66749","","null","","","null","5","","","","","","","","","","","","","","","",""
"","ISI","","html-keyboard-response","39","117818","0.0-1.0-48.0","0","0","66749","","null","","","null","5","NaN","","","","","","","","","","","","","","",""
"","S2","","html-keyboard-response","40","118082","0.0-1.0-49.0","0","0","66749","","null","","","null","5","","NaN","","","","","","","","","","","","","",""
"","response","","html-keyboard-response","41","118718","0.0-1.0-50.0-0.0","0","0","66749","","629","","","68","5","","","1","5","training","adjacent","FG","6","7","L.jpg","Q.jpg","0","1","0","",""
"","feedback","","html-keyboard-response","42","119729","0.0-1.0-51.0-0.0","0","0","66749","","null","","","null","5","","","","","","","","","","","","","","","",""
"","time_out","","html-keyboard-response","43","121745","0.0-1.0-53.0-0.0","0","0","66749","","null","","","null","5","","","","","","","","","","","","","","","",""
"","ITI","","html-keyboard-response","44","122760","0.0-1.0-54.0","0","0","66749","","null","","","null","5","","","","","","","","","","","","","","","NaN",""
"","S1","","html-keyboard-response","45","123026","0.0-1.0-56.0","0","0","66749","","null","","","null","6","","","","","","","","","","","","","","","",""
"","ISI","","html-keyboard-response","46","124041","0.0-1.0-57.0","0","0","66749","","null","","","null","6","NaN","","","","","","","","","","","","","","",""
"","S2","","html-keyboard-response","47","124307","0.0-1.0-58.0","0","0","66749","","null","","","null","6","","NaN","","","","","","","","","","","","","",""
"","response","","html-keyboard-response","48","125270","0.0-1.0-59.0-0.0","0","0","66749","","956","","","68","6","","","1","6","training","adjacent","CB","3","2","P.jpg","N.jpg","0","0","1","",""
"","feedback","","html-keyboard-response","49","126282","0.0-1.0-60.0-0.0","0","0","66749","","null","","","null","6","","","","","","","","","","","","","","","",""
"","ITI","","html-keyboard-response","50","127298","0.0-1.0-63.0","0","0","66749","","null","","","null","6","","","","","","","","","","","","","","","NaN",""
"","S1","","html-keyboard-response","51","127562","0.0-1.0-65.0","0","0","66749","","null","","","null","7","","","","","","","","","","","","","","","",""
"","ISI","","html-keyboard-response","52","128576","0.0-1.0-66.0","0","0","66749","","null","","","null","7","NaN","","","","","","","","","","","","","","",""
"","S2","","html-keyboard-response","53","128843","0.0-1.0-67.0","0","0","66749","","null","","","null","7","","NaN","","","","","","","","","","","","","",""
"","response","","html-keyboard-response","54","130410","0.0-1.0-68.0-0.0","0","0","66749","","1558","","","68","7","","","1","7","training","adjacent","AB","1","2","O.jpg","N.jpg","0","1","0","",""
"","feedback","","html-keyboard-response","55","131425","0.0-1.0-69.0-0.0","0","0","66749","","null","","","null","7","","","","","","","","","","","","","","","",""
"","time_out","","html-keyboard-response","56","133439","0.0-1.0-71.0-0.0","0","0","66749","","null","","","null","7","","","","","","","","","","","","","","","",""
"","ITI","","html-keyboard-response","57","134448","0.0-1.0-72.0","0","0","66749","","null","","","null","7","","","","","","","","","","","","","","","NaN",""
"","S1","","html-keyboard-response","58","134717","0.0-1.0-74.0","0","0","66749","","null","","","null","8","","","","","","","","","","","","","","","",""
"","ISI","","html-keyboard-response","59","135728","0.0-1.0-75.0","0","0","66749","","null","","","null","8","NaN","","","","","","","","","","","","","","",""
"","S2","","html-keyboard-response","60","135996","0.0-1.0-76.0","0","0","66749","","null","","","null","8","","NaN","","","","","","","","","","","","","",""
"","response","","html-keyboard-response","61","136587","0.0-1.0-77.0-0.0","0","0","66749","","579","","","75","8","","","1","8","training","adjacent","GF","7","6","Q.jpg","L.jpg","1","0","0","",""
"","feedback","","html-keyboard-response","62","137601","0.0-1.0-78.0-0.0","0","0","66749","","null","","","null","8","","","","","","","","","","","","","","","",""
"","time_out","","html-keyboard-response","63","139618","0.0-1.0-80.0-0.0","0","0","66749","","null","","","null","8","","","","","","","","","","","","","","","",""
"","ITI","","html-keyboard-response","64","140632","0.0-1.0-81.0","0","0","66749","","null","","","null","8","","","","","","","","","","","","","","","NaN",""
"","S1","","html-keyboard-response","65","140899","0.0-1.0-83.0","0","0","66749","","null","","","null","9","","","","","","","","","","","","","","","",""
"","ISI","","html-keyboard-response","66","141915","0.0-1.0-84.0","0","0","66749","","null","","","null","9","NaN","","","","","","","","","","","","","","",""
"","S2","","html-keyboard-response","67","142178","0.0-1.0-85.0","0","0","66749","","null","","","null","9","","NaN","","","","","","","","","","","","","",""
"","response","","html-keyboard-response","68","143038","0.0-1.0-86.0-0.0","0","0","66749","","851","","","68","9","","","1","9","training","adjacent","ED","5","4","R.jpg","M.jpg","0","0","1","",""
"","feedback","","html-keyboard-response","69","144051","0.0-1.0-87.0-0.0","0","0","66749","","null","","","null","9","","","","","","","","","","","","","","","",""
"","ITI","","html-keyboard-response","70","145065","0.0-1.0-90.0","0","0","66749","","null","","","null","9","","","","","","","","","","","","","","","NaN",""
"","S1","","html-keyboard-response","71","145330","0.0-1.0-92.0","0","0","66749","","null","","","null","10","","","","","","","","","","","","","","","",""
"","ISI","","html-keyboard-response","72","146345","0.0-1.0-93.0","0","0","66749","","null","","","null","10","NaN","","","","","","","","","","","","","","",""
"","S2","","html-keyboard-response","73","146609","0.0-1.0-94.0","0","0","66749","","null","","","null","10","","NaN","","","","","","","","","","","","","",""
"","response","","html-keyboard-response","74","147389","0.0-1.0-95.0-0.0","0","0","66749","","772","","","68","10","","","1","10","training","adjacent","DC","4","3","M.jpg","P.jpg","0","0","1","",""
"","feedback","","html-keyboard-response","75","148404","0.0-1.0-96.0-0.0","0","0","66749","","null","","","null","10","","","","","","","","","","","","","","","",""
"","ITI","","html-keyboard-response","76","149417","0.0-1.0-99.0","0","0","66749","","null","","","null","10","","","","","","","","","","","","","","","NaN",""
"","S1","","html-keyboard-response","77","149681","0.0-1.0-101.0","0","0","66749","","null","","","null","11","","","","","","","","","","","","","","","",""
"","ISI","","html-keyboard-response","78","150695","0.0-1.0-102.0","0","0","66749","","null","","","null","11","NaN","","","","","","","","","","","","","","",""
"","S2","","html-keyboard-response","79","150962","0.0-1.0-103.0","0","0","66749","","null","","","null","11","","NaN","","","","","","","","","","","","","",""
"","response","","html-keyboard-response","80","151925","0.0-1.0-104.0-0.0","0","0","66749","","958","","","68","11","","","1","11","training","adjacent","DE","4","5","M.jpg","R.jpg","0","1","0","",""
"","feedback","","html-keyboard-response","81","152935","0.0-1.0-105.0-0.0","0","0","66749","","null","","","null","11","","","","","","","","","","","","","","","",""
"","time_out","","html-keyboard-response","82","154944","0.0-1.0-107.0-0.0","0","0","66749","","null","","","null","11","","","","","","","","","","","","","","","",""
"","ITI","","html-keyboard-response","83","155962","0.0-1.0-108.0","0","0","66749","","null","","","null","11","","","","","","","","","","","","","","","NaN",""
"","S1","","html-keyboard-response","84","156224","0.0-1.0-110.0","0","0","66749","","null","","","null","12","","","","","","","","","","","","","","","",""
"","ISI","","html-keyboard-response","85","157232","0.0-1.0-111.0","0","0","66749","","null","","","null","12","NaN","","","","","","","","","","","","","","",""
"","S2","","html-keyboard-response","86","157497","0.0-1.0-112.0","0","0","66749","","null","","","null","12","","NaN","","","","","","","","","","","","","",""
"","response","","html-keyboard-response","87","158192","0.0-1.0-113.0-0.0","0","0","66749","","685","","","75","12","","","1","12","training","adjacent","BC","2","3","N.jpg","P.jpg","1","1","1","",""
"","feedback","","html-keyboard-response","88","159213","0.0-1.0-114.0-0.0","0","0","66749","","null","","","null","12","","","","","","","","","","","","","","","",""
"","ITI","","html-keyboard-response","89","160224","0.0-1.0-117.0","0","0","66749","","null","","","null","12","","","","","","","","","","","","","","","NaN",""
"","S1","","html-keyboard-response","90","160489","0.0-1.0-119.0","0","0","66749","","null","","","null","13","","","","","","","","","","","","","","","",""
"","ISI","","html-keyboard-response","91","161506","0.0-1.0-120.0","0","0","66749","","null","","","null","13","NaN","","","","","","","","","","","","","","",""
"","S2","","html-keyboard-response","92","161768","0.0-1.0-121.0","0","0","66749","","null","","","null","13","","NaN","","","","","","","","","","","","","",""
"","response","","html-keyboard-response","93","162413","0.0-1.0-122.0-0.0","0","0","66749","","636","","","68","13","","","1","13","training","adjacent","BC","2","3","N.jpg","P.jpg","0","1","0","",""
"","feedback","","html-keyboard-response","94","163425","0.0-1.0-123.0-0.0","0","0","66749","","null","","","null","13","","","","","","","","","","","","","","","",""
"","time_out","","html-keyboard-response","95","165441","0.0-1.0-125.0-0.0","0","0","66749","","null","","","null","13","","","","","","","","","","","","","","","",""
"","ITI","","html-keyboard-response","96","166456","0.0-1.0-126.0","0","0","66749","","null","","","null","13","","","","","","","","","","","","","","","NaN",""
"","S1","","html-keyboard-response","97","166720","0.0-1.0-128.0","0","0","66749","","null","","","null","14","","","","","","","","","","","","","","","",""
"","ISI","","html-keyboard-response","98","167728","0.0-1.0-129.0","0","0","66749","","null","","","null","14","NaN","","","","","","","","","","","","","","",""
"","S2","","html-keyboard-response","99","167994","0.0-1.0-130.0","0","0","66749","","null","","","null","14","","NaN","","","","","","","","","","","","","",""
"","response","","html-keyboard-response","100","168654","0.0-1.0-131.0-0.0","0","0","66749","","650","","","68","14","","","1","14","training","adjacent","CD","3","4","P.jpg","M.jpg","0","1","0","",""
"","feedback","","html-keyboard-response","101","169666","0.0-1.0-132.0-0.0","0","0","66749","","null","","","null","14","","","","","","","","","","","","","","","",""
"","time_out","","html-keyboard-response","102","171680","0.0-1.0-134.0-0.0","0","0","66749","","null","","","null","14","","","","","","","","","","","","","","","",""
"","ITI","","html-keyboard-response","103","172689","0.0-1.0-135.0","0","0","66749","","null","","","null","14","","","","","","","","","","","","","","","NaN",""
"","S1","","html-keyboard-response","104","172952","0.0-1.0-137.0","0","0","66749","","null","","","null","15","","","","","","","","","","","","","","","",""
"","ISI","","html-keyboard-response","105","173960","0.0-1.0-138.0","0","0","66749","","null","","","null","15","NaN","","","","","","","","","","","","","","",""
"","S2","","html-keyboard-response","106","174225","0.0-1.0-139.0","0","0","66749","","null","","","null","15","","NaN","","","","","","","","","","","","","",""
"","response","","html-keyboard-response","107","175180","0.0-1.0-140.0-0.0","0","0","66749","","948","","","75","15","","","1","15","training","adjacent","ED","5","4","R.jpg","M.jpg","1","0","0","",""
"","feedback","","html-keyboard-response","108","176193","0.0-1.0-141.0-0.0","0","0","66749","","null","","","null","15","","","","","","","","","","","","","","","",""
"","time_out","","html-keyboard-response","109","178211","0.0-1.0-143.0-0.0","0","0","66749","","null","","","null","15","","","","","","","","","","","","","","","",""
"","ITI","","html-keyboard-response","110","179220","0.0-1.0-144.0","0","0","66749","","null","","","null","15","","","","","","","","","","","","","","","NaN",""
"","S1","","html-keyboard-response","111","179480","0.0-1.0-146.0","0","0","66749","","null","","","null","16","","","","","","","","","","","","","","","",""
"","ISI","","html-keyboard-response","112","180496","0.0-1.0-147.0","0","0","66749","","null","","","null","16","NaN","","","","","","","","","","","","","","",""
"","S2","","html-keyboard-response","113","180760","0.0-1.0-148.0","0","0","66749","","null","","","null","16","","NaN","","","","","","","","","","","","","",""
"","response","","html-keyboard-response","114","181407","0.0-1.0-149.0-0.0","0","0","66749","","637","","","68","16","","","1","16","training","adjacent","DE","4","5","M.jpg","R.jpg","0","1","0","",""
"","feedback","","html-keyboard-response","115","182418","0.0-1.0-150.0-0.0","0","0","66749","","null","","","null","16","","","","","","","","","","","","","","","",""
"","time_out","","html-keyboard-response","116","184432","0.0-1.0-152.0-0.0","0","0","66749","","null","","","null","16","","","","","","","","","","","","","","","",""
"","ITI","","html-keyboard-response","117","185440","0.0-1.0-153.0","0","0","66749","","null","","","null","16","","","","","","","","","","","","","","","NaN",""
"","S1","","html-keyboard-response","118","185706","0.0-1.0-155.0","0","0","66749","","null","","","null","17","","","","","","","","","","","","","","","",""
"","ISI","","html-keyboard-response","119","186720","0.0-1.0-156.0","0","0","66749","","null","","","null","17","NaN","","","","","","","","","","","","","","",""
"","S2","","html-keyboard-response","120","186981","0.0-1.0-157.0","0","0","66749","","null","","","null","17","","NaN","","","","","","","","","","","","","",""
"","response","","html-keyboard-response","121","187663","0.0-1.0-158.0-0.0","0","0","66749","","672","","","75","17","","","1","17","training","adjacent","ED","5","4","R.jpg","M.jpg","1","0","0","",""
"","feedback","","html-keyboard-response","122","188672","0.0-1.0-159.0-0.0","0","0","66749","","null","","","null","17","","","","","","","","","","","","","","","",""
"","time_out","","html-keyboard-response","123","190688","0.0-1.0-161.0-0.0","0","0","66749","","null","","","null","17","","","","","","","","","","","","","","","",""
"","ITI","","html-keyboard-response","124","191697","0.0-1.0-162.0","0","0","66749","","null","","","null","17","","","","","","","","","","","","","","","NaN",""
"","S1","","html-keyboard-response","125","191960","0.0-1.0-164.0","0","0","66749","","null","","","null","18","","","","","","","","","","","","","","","",""
"","ISI","","html-keyboard-response","126","192967","0.0-1.0-165.0","0","0","66749","","null","","","null","18","NaN","","","","","","","","","","","","","","",""
"","S2","","html-keyboard-response","127","193233","0.0-1.0-166.0","0","0","66749","","null","","","null","18","","NaN","","","","","","","","","","","","","",""
"","response","","html-keyboard-response","128","194164","0.0-1.0-167.0-0.0","0","0","66749","","924","","","68","18","","","1","18","training","adjacent","GF","7","6","Q.jpg","L.jpg","0","0","1","",""
"","feedback","","html-keyboard-response","129","195179","0.0-1.0-168.0-0.0","0","0","66749","","null","","","null","18","","","","","","","","","","","","","","","",""
"","ITI","","html-keyboard-response","130","196196","0.0-1.0-171.0","0","0","66749","","null","","","null","18","","","","","","","","","","","","","","","NaN",""
"","S1","","html-keyboard-response","131","196457","0.0-1.0-173.0","0","0","66749","","null","","","null","19","","","","","","","","","","","","","","","",""
"","ISI","","html-keyboard-response","132","197464","0.0-1.0-174.0","0","0","66749","","null","","","null","19","NaN","","","","","","","","","","","","","","",""
"","S2","","html-keyboard-response","133","197729","0.0-1.0-175.0","0","0","66749","","null","","","null","19","","NaN","","","","","","","","","","","","","",""
"","response","","html-keyboard-response","134","198343","0.0-1.0-176.0-0.0","0","0","66749","","604","","","68","19","","","1","19","training","adjacent","CD","3","4","P.jpg","M.jpg","0","1","0","",""
"","feedback","","html-keyboard-response","135","199354","0.0-1.0-177.0-0.0","0","0","66749","","null","","","null","19","","","","","","","","","","","","","","","",""
"","time_out","","html-keyboard-response","136","201368","0.0-1.0-179.0-0.0","0","0","66749","","null","","","null","19","","","","","","","","","","","","","","","",""
"","ITI","","html-keyboard-response","137","202378","0.0-1.0-180.0","0","0","66749","","null","","","null","19","","","","","","","","","","","","","","","NaN",""
"","S1","","html-keyboard-response","138","202642","0.0-1.0-182.0","0","0","66749","","null","","","null","20","","","","","","","","","","","","","","","",""
"","ISI","","html-keyboard-response","139","203650","0.0-1.0-183.0","0","0","66749","","null","","","null","20","NaN","","","","","","","","","","","","","","",""
"","S2","","html-keyboard-response","140","203915","0.0-1.0-184.0","0","0","66749","","null","","","null","20","","NaN","","","","","","","","","","","","","",""
"","response","","html-keyboard-response","141","205176","0.0-1.0-185.0-0.0","0","0","66749","","1253","","","75","20","","","1","20","training","adjacent","FE","6","5","L.jpg","R.jpg","1","0","0","",""
"","feedback","","html-keyboard-response","142","206185","0.0-1.0-186.0-0.0","0","0","66749","","null","","","null","20","","","","","","","","","","","","","","","",""
"","time_out","","html-keyboard-response","143","208205","0.0-1.0-188.0-0.0","0","0","66749","","null","","","null","20","","","","","","","","","","","","","","","",""
"","ITI","","html-keyboard-response","144","209218","0.0-1.0-189.0","0","0","66749","","null","","","null","20","","","","","","","","","","","","","","","NaN",""
"","S1","","html-keyboard-response","145","209476","0.0-1.0-191.0","0","0","66749","","null","","","null","21","","","","","","","","","","","","","","","",""
"","ISI","","html-keyboard-response","146","210489","0.0-1.0-192.0","0","0","66749","","null","","","null","21","NaN","","","","","","","","","","","","","","",""
"","S2","","html-keyboard-response","147","210750","0.0-1.0-193.0","0","0","66749","","null","","","null","21","","NaN","","","","","","","","","","","","","",""
"","response","","html-keyboard-response","148","211422","0.0-1.0-194.0-0.0","0","0","66749","","662","","","68","21","","","1","21","training","adjacent","BC","2","3","N.jpg","P.jpg","0","1","0","",""
"","feedback","","html-keyboard-response","149","212433","0.0-1.0-195.0-0.0","0","0","66749","","null","","","null","21","","","","","","","","","","","","","","","",""
"","time_out","","html-keyboard-response","150","214451","0.0-1.0-197.0-0.0","0","0","66749","","null","","","null","21","","","","","","","","","","","","","","","",""
"","ITI","","html-keyboard-response","151","215466","0.0-1.0-198.0","0","0","66749","","null","","","null","21","","","","","","","","","","","","","","","NaN",""
"","S1","","html-keyboard-response","152","215733","0.0-1.0-200.0","0","0","66749","","null","","","null","22","","","","","","","","","","","","","","","",""
"","ISI","","html-keyboard-response","153","216746","0.0-1.0-201.0","0","0","66749","","null","","","null","22","NaN","","","","","","","","","","","","","","",""
"","S2","","html-keyboard-response","154","217009","0.0-1.0-202.0","0","0","66749","","null","","","null","22","","NaN","","","","","","","","","","","","","",""
"","response","","html-keyboard-response","155","217876","0.0-1.0-203.0-0.0","0","0","66749","","859","","","75","22","","","1","22","training","adjacent","AB","1","2","O.jpg","N.jpg","1","1","1","",""
"","feedback","","html-keyboard-response","156","218889","0.0-1.0-204.0-0.0","0","0","66749","","null","","","null","22","","","","","","","","","","","","","","","",""
"","ITI","","html-keyboard-response","157","219897","0.0-1.0-207.0","0","0","66749","","null","","","null","22","","","","","","","","","","","","","","","NaN",""
"","S1","","html-keyboard-response","158","220161","0.0-1.0-209.0","0","0","66749","","null","","","null","23","","","","","","","","","","","","","","","",""
"","ISI","","html-keyboard-response","159","221178","0.0-1.0-210.0","0","0","66749","","null","","","null","23","NaN","","","","","","","","","","","","","","",""
"","S2","","html-keyboard-response","160","221440","0.0-1.0-211.0","0","0","66749","","null","","","null","23","","NaN","","","","","","","","","","","","","",""
"","response","","html-keyboard-response","161","222308","0.0-1.0-212.0-0.0","0","0","66749","","859","","","75","23","","","1","23","training","adjacent","EF","5","6","R.jpg","L.jpg","1","1","1","",""
"","feedback","","html-keyboard-response","162","223326","0.0-1.0-213.0-0.0","0","0","66749","","null","","","null","23","","","","","","","","","","","","","","","",""
"","ITI","","html-keyboard-response","163","224337","0.0-1.0-216.0","0","0","66749","","null","","","null","23","","","","","","","","","","","","","","","NaN",""
"","S1","","html-keyboard-response","164","224601","0.0-1.0-218.0","0","0","66749","","null","","","null","24","","","","","","","","","","","","","","","",""
"","ISI","","html-keyboard-response","165","225617","0.0-1.0-219.0","0","0","66749","","null","","","null","24","NaN","","","","","","","","","","","","","","",""
"","S2","","html-keyboard-response","166","225882","0.0-1.0-220.0","0","0","66749","","null","","","null","24","","NaN","","","","","","","","","","","","","",""
"","response","","html-keyboard-response","167","226356","0.0-1.0-221.0-0.0","0","0","66749","","465","","","75","24","","","1","24","training","adjacent","EF","5","6","R.jpg","L.jpg","1","1","1","",""
"","feedback","","html-keyboard-response","168","227370","0.0-1.0-222.0-0.0","0","0","66749","","null","","","null","24","","","","","","","","","","","","","","","",""
"","ITI","","html-keyboard-response","169","228387","0.0-1.0-225.0","0","0","66749","","null","","","null","24","","","","","","","","","","","","","","","NaN",""
"","S1","","html-keyboard-response","170","228649","0.0-1.0-227.0","0","0","66749","","null","","","null","25","","","","","","","","","","","","","","","",""
"","ISI","","html-keyboard-response","171","229668","0.0-1.0-228.0","0","0","66749","","null","","","null","25","NaN","","","","","","","","","","","","","","",""
"","S2","","html-keyboard-response","172","229927","0.0-1.0-229.0","0","0","66749","","null","","","null","25","","NaN","","","","","","","","","","","","","",""
"","response","","html-keyboard-response","173","230692","0.0-1.0-230.0-0.0","0","0","66749","","757","","","75","25","","","1","25","training","adjacent","AB","1","2","O.jpg","N.jpg","1","1","1","",""
"","feedback","","html-keyboard-response","174","231710","0.0-1.0-231.0-0.0","0","0","66749","","null","","","null","25","","","","","","","","","","","","","","","",""
"","ITI","","html-keyboard-response","175","232721","0.0-1.0-234.0","0","0","66749","","null","","","null","25","","","","","","","","","","","","","","","NaN",""
"","S1","","html-keyboard-response","176","232986","0.0-1.0-236.0","0","0","66749","","null","","","null","26","","","","","","","","","","","","","","","",""
"","ISI","","html-keyboard-response","177","234001","0.0-1.0-237.0","0","0","66749","","null","","","null","26","NaN","","","","","","","","","","","","","","",""
"","S2","","html-keyboard-response","178","234265","0.0-1.0-238.0","0","0","66749","","null","","","null","26","","NaN","","","","","","","","","","","","","",""
"","response","","html-keyboard-response","179","234778","0.0-1.0-239.0-0.0","0","0","66749","","506","","","75","26","","","1","26","training","adjacent","CB","3","2","P.jpg","N.jpg","1","0","0","",""
"","feedback","","html-keyboard-response","180","235793","0.0-1.0-240.0-0.0","0","0","66749","","null","","","null","26","","","","","","","","","","","","","","","",""
"","time_out","","html-keyboard-response","181","237811","0.0-1.0-242.0-0.0","0","0","66749","","null","","","null","26","","","","","","","","","","","","","","","",""
"","ITI","","html-keyboard-response","182","238825","0.0-1.0-243.0","0","0","66749","","null","","","null","26","","","","","","","","","","","","","","","NaN",""
"","S1","","html-keyboard-response","183","239090","0.0-1.0-245.0","0","0","66749","","null","","","null","27","","","","","","","","","","","","","","","",""
"","ISI","","html-keyboard-response","184","240107","0.0-1.0-246.0","0","0","66749","","null","","","null","27","NaN","","","","","","","","","","","","","","",""
"","S2","","html-keyboard-response","185","240370","0.0-1.0-247.0","0","0","66749","","null","","","null","27","","NaN","","","","","","","","","","","","","",""
"","response","","html-keyboard-response","186","240988","0.0-1.0-248.0-0.0","0","0","66749","","610","","","75","27","","","1","27","training","adjacent","EF","5","6","R.jpg","L.jpg","1","1","1","",""
"","feedback","","html-keyboard-response","187","242000","0.0-1.0-249.0-0.0","0","0","66749","","null","","","null","27","","","","","","","","","","","","","","","",""
"","ITI","","html-keyboard-response","188","243018","0.0-1.0-252.0","0","0","66749","","null","","","null","27","","","","","","","","","","","","","","","NaN",""
"","S1","","html-keyboard-response","189","243281","0.0-1.0-254.0","0","0","66749","","null","","","null","28","","","","","","","","","","","","","","","",""
"","ISI","","html-keyboard-response","190","244299","0.0-1.0-255.0","0","0","66749","","null","","","null","28","NaN","","","","","","","","","","","","","","",""
"","S2","","html-keyboard-response","191","244563","0.0-1.0-256.0","0","0","66749","","null","","","null","28","","NaN","","","","","","","","","","","","","",""
"","response","","html-keyboard-response","192","245181","0.0-1.0-257.0-0.0","0","0","66749","","609","","","75","28","","","1","28","training","adjacent","AB","1","2","O.jpg","N.jpg","1","1","1","",""
"","feedback","","html-keyboard-response","193","246192","0.0-1.0-258.0-0.0","0","0","66749","","null","","","null","28","","","","","","","","","","","","","","","",""
"","ITI","","html-keyboard-response","194","247203","0.0-1.0-261.0","0","0","66749","","null","","","null","28","","","","","","","","","","","","","","","NaN",""
"","S1","","html-keyboard-response","195","247465","0.0-1.0-263.0","0","0","66749","","null","","","null","29","","","","","","","","","","","","","","","",""
"","ISI","","html-keyboard-response","196","248475","0.0-1.0-264.0","0","0","66749","","null","","","null","29","NaN","","","","","","","","","","","","","","",""
"","S2","","html-keyboard-response","197","248737","0.0-1.0-265.0","0","0","66749","","null","","","null","29","","NaN","","","","","","","","","","","","","",""
"","response","","html-keyboard-response","198","249458","0.0-1.0-266.0-0.0","0","0","66749","","713","","","75","29","","","1","29","training","adjacent","CB","3","2","P.jpg","N.jpg","1","0","0","",""
"","feedback","","html-keyboard-response","199","250474","0.0-1.0-267.0-0.0","0","0","66749","","null","","","null","29","","","","","","","","","","","","","","","",""
"","time_out","","html-keyboard-response","200","252490","0.0-1.0-269.0-0.0","0","0","66749","","null","","","null","29","","","","","","","","","","","","","","","",""
"","ITI","","html-keyboard-response","201","253503","0.0-1.0-270.0","0","0","66749","","null","","","null","29","","","","","","","","","","","","","","","NaN",""
"","S1","","html-keyboard-response","202","253771","0.0-1.0-272.0","0","0","66749","","null","","","null","30","","","","","","","","","","","","","","","",""
"","ISI","","html-keyboard-response","203","254784","0.0-1.0-273.0","0","0","66749","","null","","","null","30","NaN","","","","","","","","","","","","","","",""
"","S2","","html-keyboard-response","204","255042","0.0-1.0-274.0","0","0","66749","","null","","","null","30","","NaN","","","","","","","","","","","","","",""
"","response","","html-keyboard-response","205","255699","0.0-1.0-275.0-0.0","0","0","66749","","649","","","68","30","","","1","30","training","adjacent","DC","4","3","M.jpg","P.jpg","0","0","1","",""
"","feedback","","html-keyboard-response","206","256710","0.0-1.0-276.0-0.0","0","0","66749","","null","","","null","30","","","","","","","","","","","","","","","",""
"","ITI","","html-keyboard-response","207","257721","0.0-1.0-279.0","0","0","66749","","null","","","null","30","","","","","","","","","","","","","","","NaN",""
"","S1","","html-keyboard-response","208","257984","0.0-1.0-281.0","0","0","66749","","null","","","null","31","","","","","","","","","","","","","","","",""
"","ISI","","html-keyboard-response","209","259000","0.0-1.0-282.0","0","0","66749","","null","","","null","31","NaN","","","","","","","","","","","","","","",""
"","S2","","html-keyboard-response","210","259265","0.0-1.0-283.0","0","0","66749","","null","","","null","31","","NaN","","","","","","","","","","","","","",""
"","response","","html-keyboard-response","211","259908","0.0-1.0-284.0-0.0","0","0","66749","","632","","","75","31","","","1","31","training","adjacent","GF","7","6","Q.jpg","L.jpg","1","0","0","",""
"","feedback","","html-keyboard-response","212","260922","0.0-1.0-285.0-0.0","0","0","66749","","null","","","null","31","","","","","","","","","","","","","","","",""
"","time_out","","html-keyboard-response","213","262936","0.0-1.0-287.0-0.0","0","0","66749","","null","","","null","31","","","","","","","","","","","","","","","",""
"","ITI","","html-keyboard-response","214","263954","0.0-1.0-288.0","0","0","66749","","null","","","null","31","","","","","","","","","","","","","","","NaN",""
"","S1","","html-keyboard-response","215","264216","0.0-1.0-290.0","0","0","66749","","null","","","null","32","","","","","","","","","","","","","","","",""
"","ISI","","html-keyboard-response","216","265231","0.0-1.0-291.0","0","0","66749","","null","","","null","32","NaN","","","","","","","","","","","","","","",""
"","S2","","html-keyboard-response","217","265497","0.0-1.0-292.0","0","0","66749","","null","","","null","32","","NaN","","","","","","","","","","","","","",""
"","response","","html-keyboard-response","218","266412","0.0-1.0-293.0-0.0","0","0","66749","","905","","","68","32","","","1","32","training","adjacent","CD","3","4","P.jpg","M.jpg","0","1","0","",""
"","feedback","","html-keyboard-response","219","267430","0.0-1.0-294.0-0.0","0","0","66749","","null","","","null","32","","","","","","","","","","","","","","","",""
"","time_out","","html-keyboard-response","220","269439","0.0-1.0-296.0-0.0","0","0","66749","","null","","","null","32","","","","","","","","","","","","","","","",""
"","ITI","","html-keyboard-response","221","270449","0.0-1.0-297.0","0","0","66749","","null","","","null","32","","","","","","","","","","","","","","","NaN",""
"","S1","","html-keyboard-response","222","270716","0.0-1.0-299.0","0","0","66749","","null","","","null","33","","","","","","","","","","","","","","","",""
"","ISI","","html-keyboard-response","223","271729","0.0-1.0-300.0","0","0","66749","","null","","","null","33","NaN","","","","","","","","","","","","","","",""
"","S2","","html-keyboard-response","224","271993","0.0-1.0-301.0","0","0","66749","","null","","","null","33","","NaN","","","","","","","","","","","","","",""
"","response","","html-keyboard-response","225","272433","0.0-1.0-302.0-0.0","0","0","66749","","432","","","68","33","","","1","33","training","adjacent","BA","2","1","N.jpg","O.jpg","0","0","1","",""
"","feedback","","html-keyboard-response","226","273448","0.0-1.0-303.0-0.0","0","0","66749","","null","","","null","33","","","","","","","","","","","","","","","",""
"","ITI","","html-keyboard-response","227","274457","0.0-1.0-306.0","0","0","66749","","null","","","null","33","","","","","","","","","","","","","","","NaN",""
"","S1","","html-keyboard-response","228","274719","0.0-1.0-308.0","0","0","66749","","null","","","null","34","","","","","","","","","","","","","","","",""
"","ISI","","html-keyboard-response","229","275729","0.0-1.0-309.0","0","0","66749","","null","","","null","34","NaN","","","","","","","","","","","","","","",""
"","S2","","html-keyboard-response","230","275993","0.0-1.0-310.0","0","0","66749","","null","","","null","34","","NaN","","","","","","","","","","","","","",""
"","response","","html-keyboard-response","231","276403","0.0-1.0-311.0-0.0","0","0","66749","","399","","","68","34","","","1","34","training","adjacent","GF","7","6","Q.jpg","L.jpg","0","0","1","",""
"","feedback","","html-keyboard-response","232","277419","0.0-1.0-312.0-0.0","0","0","66749","","null","","","null","34","","","","","","","","","","","","","","","",""
"","ITI","","html-keyboard-response","233","278435","0.0-1.0-315.0","0","0","66749","","null","","","null","34","","","","","","","","","","","","","","","NaN",""
"","S1","","html-keyboard-response","234","278698","0.0-1.0-317.0","0","0","66749","","null","","","null","35","","","","","","","","","","","","","","","",""
"","ISI","","html-keyboard-response","235","279714","0.0-1.0-318.0","0","0","66749","","null","","","null","35","NaN","","","","","","","","","","","","","","",""
"","S2","","html-keyboard-response","236","279978","0.0-1.0-319.0","0","0","66749","","null","","","null","35","","NaN","","","","","","","","","","","","","",""
"","response","","html-keyboard-response","237","280499","0.0-1.0-320.0-0.0","0","0","66749","","513","","","68","35","","","1","35","training","adjacent","FE","6","5","L.jpg","R.jpg","0","0","1","",""
"","feedback","","html-keyboard-response","238","281515","0.0-1.0-321.0-0.0","0","0","66749","","null","","","null","35","","","","","","","","","","","","","","","",""
"","ITI","","html-keyboard-response","239","282532","0.0-1.0-324.0","0","0","66749","","null","","","null","35","","","","","","","","","","","","","","","NaN",""
"","S1","","html-keyboard-response","240","282793","0.0-1.0-326.0","0","0","66749","","null","","","null","36","","","","","","","","","","","","","","","",""
"","ISI","","html-keyboard-response","241","283809","0.0-1.0-327.0","0","0","66749","","null","","","null","36","NaN","","","","","","","","","","","","","","",""
"","S2","","html-keyboard-response","242","284076","0.0-1.0-328.0","0","0","66749","","null","","","null","36","","NaN","","","","","","","","","","","","","",""
"","response","","html-keyboard-response","243","284746","0.0-1.0-329.0-0.0","0","0","66749","","661","","","68","36","","","1","36","training","adjacent","DC","4","3","M.jpg","P.jpg","0","0","1","",""
"","feedback","","html-keyboard-response","244","285762","0.0-1.0-330.0-0.0","0","0","66749","","null","","","null","36","","","","","","","","","","","","","","","",""
"","ITI","","html-keyboard-response","245","286776","0.0-1.0-333.0","0","0","66749","","null","","","null","36","","","","","","","","","","","","","","","NaN",""
"","S1","","html-keyboard-response","246","287045","0.0-1.0-335.0","0","0","66749","","null","","","null","37","","","","","","","","","","","","","","","",""
"","ISI","","html-keyboard-response","247","288056","0.0-1.0-336.0","0","0","66749","","null","","","null","37","NaN","","","","","","","","","","","","","","",""
"","S2","","html-keyboard-response","248","288322","0.0-1.0-337.0","0","0","66749","","null","","","null","37","","NaN","","","","","","","","","","","","","",""
"","response","","html-keyboard-response","249","288883","0.0-1.0-338.0-0.0","0","0","66749","","552","","","68","37","","","1","37","training","adjacent","BA","2","1","N.jpg","O.jpg","0","0","1","",""
"","feedback","","html-keyboard-response","250","289896","0.0-1.0-339.0-0.0","0","0","66749","","null","","","null","37","","","","","","","","","","","","","","","",""
"","ITI","","html-keyboard-response","251","290914","0.0-1.0-342.0","0","0","66749","","null","","","null","37","","","","","","","","","","","","","","","NaN",""
"","S1","","html-keyboard-response","252","291178","0.0-1.0-344.0","0","0","66749","","null","","","null","38","","","","","","","","","","","","","","","",""
"","ISI","","html-keyboard-response","253","292195","0.0-1.0-345.0","0","0","66749","","null","","","null","38","NaN","","","","","","","","","","","","","","",""
"","S2","","html-keyboard-response","254","292458","0.0-1.0-346.0","0","0","66749","","null","","","null","38","","NaN","","","","","","","","","","","","","",""
"","response","","html-keyboard-response","255","292977","0.0-1.0-347.0-0.0","0","0","66749","","512","","","68","38","","","1","38","training","adjacent","BA","2","1","N.jpg","O.jpg","0","0","1","",""
"","feedback","","html-keyboard-response","256","293994","0.0-1.0-348.0-0.0","0","0","66749","","null","","","null","38","","","","","","","","","","","","","","","",""
"","ITI","","html-keyboard-response","257","295009","0.0-1.0-351.0","0","0","66749","","null","","","null","38","","","","","","","","","","","","","","","NaN",""
"","S1","","html-keyboard-response","258","295274","0.0-1.0-353.0","0","0","66749","","null","","","null","39","","","","","","","","","","","","","","","",""
"","ISI","","html-keyboard-response","259","296289","0.0-1.0-354.0","0","0","66749","","null","","","null","39","NaN","","","","","","","","","","","","","","",""
"","S2","","html-keyboard-response","260","296553","0.0-1.0-355.0","0","0","66749","","null","","","null","39","","NaN","","","","","","","","","","","","","",""
"","response","","html-keyboard-response","261","298065","0.0-1.0-356.0-0.0","0","0","66749","","1503","","","68","39","","","1","39","training","adjacent","CD","3","4","P.jpg","M.jpg","0","1","0","",""
"","feedback","","html-keyboard-response","262","299081","0.0-1.0-357.0-0.0","0","0","66749","","null","","","null","39","","","","","","","","","","","","","","","",""
"","time_out","","html-keyboard-response","263","301097","0.0-1.0-359.0-0.0","0","0","66749","","null","","","null","39","","","","","","","","","","","","","","","",""
"","ITI","","html-keyboard-response","264","302115","0.0-1.0-360.0","0","0","66749","","null","","","null","39","","","","","","","","","","","","","","","NaN",""
"","S1","","html-keyboard-response","265","302378","0.0-1.0-362.0","0","0","66749","","null","","","null","40","","","","","","","","","","","","","","","",""
"","ISI","","html-keyboard-response","266","303394","0.0-1.0-363.0","0","0","66749","","null","","","null","40","NaN","","","","","","","","","","","","","","",""
"","S2","","html-keyboard-response","267","303659","0.0-1.0-364.0","0","0","66749","","null","","","null","40","","NaN","","","","","","","","","","","","","",""
"","response","","html-keyboard-response","268","304652","0.0-1.0-365.0-0.0","0","0","66749","","983","","","75","40","","","1","40","training","adjacent","EF","5","6","R.jpg","L.jpg","1","1","1","",""
"","feedback","","html-keyboard-response","269","305667","0.0-1.0-366.0-0.0","0","0","66749","","null","","","null","40","","","","","","","","","","","","","","","",""
"","ITI","","html-keyboard-response","270","306680","0.0-1.0-369.0","0","0","66749","","null","","","null","40","","","","","","","","","","","","","","","NaN",""
"","S1","","html-keyboard-response","271","306945","0.0-1.0-371.0","0","0","66749","","null","","","null","41","","","","","","","","","","","","","","","",""
"","ISI","","html-keyboard-response","272","307964","0.0-1.0-372.0","0","0","66749","","null","","","null","41","NaN","","","","","","","","","","","","","","",""
"","S2","","html-keyboard-response","273","308223","0.0-1.0-373.0","0","0","66749","","null","","","null","41","","NaN","","","","","","","","","","","","","",""
"","response","","html-keyboard-response","274","309553","0.0-1.0-374.0-0.0","0","0","66749","","1323","","","75","41","","","1","41","training","adjacent","ED","5","4","R.jpg","M.jpg","1","0","0","",""
"","feedback","","html-keyboard-response","275","310570","0.0-1.0-375.0-0.0","0","0","66749","","null","","","null","41","","","","","","","","","","","","","","","",""
"","time_out","","html-keyboard-response","276","312590","0.0-1.0-377.0-0.0","0","0","66749","","null","","","null","41","","","","","","","","","","","","","","","",""
"","ITI","","html-keyboard-response","277","313602","0.0-1.0-378.0","0","0","66749","","null","","","null","41","","","","","","","","","","","","","","","NaN",""
"","S1","","html-keyboard-response","278","313870","0.0-1.0-380.0","0","0","66749","","null","","","null","42","","","","","","","","","","","","","","","",""
"","ISI","","html-keyboard-response","279","314881","0.0-1.0-381.0","0","0","66749","","null","","","null","42","NaN","","","","","","","","","","","","","","",""
"","S2","","html-keyboard-response","280","315145","0.0-1.0-382.0","0","0","66749","","null","","","null","42","","NaN","","","","","","","","","","","","","",""
"","response","","html-keyboard-response","281","316163","0.0-1.0-383.0-0.0","0","0","66749","","1010","","","75","42","","","1","42","training","adjacent","FG","6","7","L.jpg","Q.jpg","1","1","1","",""
"","feedback","","html-keyboard-response","282","317179","0.0-1.0-384.0-0.0","0","0","66749","","null","","","null","42","","","","","","","","","","","","","","","",""
"","ITI","","html-keyboard-response","283","318191","0.0-1.0-387.0","0","0","66749","","null","","","null","42","","","","","","","","","","","","","","","NaN",""
"","S1","","html-keyboard-response","284","318457","0.0-1.0-389.0","0","0","66749","","null","","","null","43","","","","","","","","","","","","","","","",""
"","ISI","","html-keyboard-response","285","319465","0.0-1.0-390.0","0","0","66749","","null","","","null","43","NaN","","","","","","","","","","","","","","",""
"","S2","","html-keyboard-response","286","319730","0.0-1.0-391.0","0","0","66749","","null","","","null","43","","NaN","","","","","","","","","","","","","",""
"","response","","html-keyboard-response","287","320544","0.0-1.0-392.0-0.0","0","0","66749","","808","","","75","43","","","1","43","training","adjacent","FG","6","7","L.jpg","Q.jpg","1","1","1","",""
"","feedback","","html-keyboard-response","288","321555","0.0-1.0-393.0-0.0","0","0","66749","","null","","","null","43","","","","","","","","","","","","","","","",""
"","ITI","","html-keyboard-response","289","322571","0.0-1.0-396.0","0","0","66749","","null","","","null","43","","","","","","","","","","","","","","","NaN",""
"","S1","","html-keyboard-response","290","322833","0.0-1.0-398.0","0","0","66749","","null","","","null","44","","","","","","","","","","","","","","","",""
"","ISI","","html-keyboard-response","291","323843","0.0-1.0-399.0","0","0","66749","","null","","","null","44","NaN","","","","","","","","","","","","","","",""
"","S2","","html-keyboard-response","292","324104","0.0-1.0-400.0","0","0","66749","","null","","","null","44","","NaN","","","","","","","","","","","","","",""
"","response","","html-keyboard-response","293","324888","0.0-1.0-401.0-0.0","0","0","66749","","777","","","68","44","","","1","44","training","adjacent","DE","4","5","M.jpg","R.jpg","0","1","0","",""
"","feedback","","html-keyboard-response","294","325897","0.0-1.0-402.0-0.0","0","0","66749","","null","","","null","44","","","","","","","","","","","","","","","",""
"","time_out","","html-keyboard-response","295","327912","0.0-1.0-404.0-0.0","0","0","66749","","null","","","null","44","","","","","","","","","","","","","","","",""
"","ITI","","html-keyboard-response","296","328920","0.0-1.0-405.0","0","0","66749","","null","","","null","44","","","","","","","","","","","","","","","NaN",""
"","S1","","html-keyboard-response","297","329184","0.0-1.0-407.0","0","0","66749","","null","","","null","45","","","","","","","","","","","","","","","",""
"","ISI","","html-keyboard-response","298","330195","0.0-1.0-408.0","0","0","66749","","null","","","null","45","NaN","","","","","","","","","","","","","","",""
"","S2","","html-keyboard-response","299","330457","0.0-1.0-409.0","0","0","66749","","null","","","null","45","","NaN","","","","","","","","","","","","","",""
"","response","","html-keyboard-response","300","331137","0.0-1.0-410.0-0.0","0","0","66749","","672","","","68","45","","","1","45","training","adjacent","DC","4","3","M.jpg","P.jpg","0","0","1","",""
"","feedback","","html-keyboard-response","301","332154","0.0-1.0-411.0-0.0","0","0","66749","","null","","","null","45","","","","","","","","","","","","","","","",""
"","ITI","","html-keyboard-response","302","333170","0.0-1.0-414.0","0","0","66749","","null","","","null","45","","","","","","","","","","","","","","","NaN",""
"","S1","","html-keyboard-response","303","333431","0.0-1.0-416.0","0","0","66749","","null","","","null","46","","","","","","","","","","","","","","","",""
"","ISI","","html-keyboard-response","304","334440","0.0-1.0-417.0","0","0","66749","","null","","","null","46","NaN","","","","","","","","","","","","","","",""
"","S2","","html-keyboard-response","305","334705","0.0-1.0-418.0","0","0","66749","","null","","","null","46","","NaN","","","","","","","","","","","","","",""
"","response","","html-keyboard-response","306","335169","0.0-1.0-419.0-0.0","0","0","66749","","455","","","75","46","","","1","46","training","adjacent","FG","6","7","L.jpg","Q.jpg","1","1","1","",""
"","feedback","","html-keyboard-response","307","336188","0.0-1.0-420.0-0.0","0","0","66749","","null","","","null","46","","","","","","","","","","","","","","","",""
"","ITI","","html-keyboard-response","308","337198","0.0-1.0-423.0","0","0","66749","","null","","","null","46","","","","","","","","","","","","","","","NaN",""
"","S1","","html-keyboard-response","309","337457","0.0-1.0-425.0","0","0","66749","","null","","","null","47","","","","","","","","","","","","","","","",""
"","ISI","","html-keyboard-response","310","338464","0.0-1.0-426.0","0","0","66749","","null","","","null","47","NaN","","","","","","","","","","","","","","",""
"","S2","","html-keyboard-response","311","338729","0.0-1.0-427.0","0","0","66749","","null","","","null","47","","NaN","","","","","","","","","","","","","",""
"","response","","html-keyboard-response","312","339224","0.0-1.0-428.0-0.0","0","0","66749","","488","","","68","47","","","1","47","training","adjacent","BC","2","3","N.jpg","P.jpg","0","1","0","",""
"","feedback","","html-keyboard-response","313","340232","0.0-1.0-429.0-0.0","0","0","66749","","null","","","null","47","","","","","","","","","","","","","","","",""
"","time_out","","html-keyboard-response","314","342239","0.0-1.0-431.0-0.0","0","0","66749","","null","","","null","47","","","","","","","","","","","","","","","",""
"","ITI","","html-keyboard-response","315","343247","0.0-1.0-432.0","0","0","66749","","null","","","null","47","","","","","","","","","","","","","","","NaN",""
"","block_over","","html-keyboard-response","316","427902","0.0-1.0-433.0-0.0","0","0","66749","","84647","","","32","47","","","","","","","","","","","","","","","",""
"","S1","","html-keyboard-response","317","428160","0.0-1.0-434.0","0","0","66749","","null","","","null","48","","","","","","","","","","","","","","","",""
"","ISI","","html-keyboard-response","318","429169","0.0-1.0-435.0","0","0","66749","","null","","","null","48","NaN","","","","","","","","","","","","","","",""
"","S2","","html-keyboard-response","319","429434","0.0-1.0-436.0","0","0","66749","","null","","","null","48","","NaN","","","","","","","","","","","","","",""
"","response","","html-keyboard-response","320","430374","0.0-1.0-437.0-0.0","0","0","66749","","932","","","68","48","","","2","48","training","adjacent","CB","3","2","P.jpg","N.jpg","0","0","1","",""
"","feedback","","html-keyboard-response","321","431386","0.0-1.0-438.0-0.0","0","0","66749","","null","","","null","48","","","","","","","","","","","","","","","",""
"","ITI","","html-keyboard-response","322","432402","0.0-1.0-441.0","0","0","66749","","null","","","null","48","","","","","","","","","","","","","","","NaN",""
"","S1","","html-keyboard-response","323","432666","0.0-1.0-443.0","0","0","66749","","null","","","null","49","","","","","","","","","","","","","","","",""
"","ISI","","html-keyboard-response","324","433680","0.0-1.0-444.0","0","0","66749","","null","","","null","49","NaN","","","","","","","","","","","","","","",""
"","S2","","html-keyboard-response","325","433945","0.0-1.0-445.0","0","0","66749","","null","","","null","49","","NaN","","","","","","","","","","","","","",""
"","response","","html-keyboard-response","326","434856","0.0-1.0-446.0-0.0","0","0","66749","","903","","","68","49","","","2","49","training","adjacent","ED","5","4","R.jpg","M.jpg","0","0","1","",""
"","feedback","","html-keyboard-response","327","435865","0.0-1.0-447.0-0.0","0","0","66749","","null","","","null","49","","","","","","","","","","","","","","","",""
"","ITI","","html-keyboard-response","328","436881","0.0-1.0-450.0","0","0","66749","","null","","","null","49","","","","","","","","","","","","","","","NaN",""
"","S1","","html-keyboard-response","329","437144","0.0-1.0-452.0","0","0","66749","","null","","","null","50","","","","","","","","","","","","","","","",""
"","ISI","","html-keyboard-response","330","438152","0.0-1.0-453.0","0","0","66749","","null","","","null","50","NaN","","","","","","","","","","","","","","",""
"","S2","","html-keyboard-response","331","438418","0.0-1.0-454.0","0","0","66749","","null","","","null","50","","NaN","","","","","","","","","","","","","",""
"","response","","html-keyboard-response","332","439049","0.0-1.0-455.0-0.0","0","0","66749","","623","","","68","50","","","2","50","training","adjacent","BC","2","3","N.jpg","P.jpg","0","1","0","",""
"","feedback","","html-keyboard-response","333","440066","0.0-1.0-456.0-0.0","0","0","66749","","null","","","null","50","","","","","","","","","","","","","","","",""
"","time_out","","html-keyboard-response","334","442083","0.0-1.0-458.0-0.0","0","0","66749","","null","","","null","50","","","","","","","","","","","","","","","",""
"","ITI","","html-keyboard-response","335","443096","0.0-1.0-459.0","0","0","66749","","null","","","null","50","","","","","","","","","","","","","","","NaN",""
"","S1","","html-keyboard-response","336","443362","0.0-1.0-461.0","0","0","66749","","null","","","null","51","","","","","","","","","","","","","","","",""
"","ISI","","html-keyboard-response","337","444382","0.0-1.0-462.0","0","0","66749","","null","","","null","51","NaN","","","","","","","","","","","","","","",""
"","S2","","html-keyboard-response","338","444642","0.0-1.0-463.0","0","0","66749","","null","","","null","51","","NaN","","","","","","","","","","","","","",""
"","response","","html-keyboard-response","339","445470","0.0-1.0-464.0-0.0","0","0","66749","","821","","","75","51","","","2","51","training","adjacent","DC","4","3","M.jpg","P.jpg","1","0","0","",""
"","feedback","","html-keyboard-response","340","446483","0.0-1.0-465.0-0.0","0","0","66749","","null","","","null","51","","","","","","","","","","","","","","","",""
"","time_out","","html-keyboard-response","341","448498","0.0-1.0-467.0-0.0","0","0","66749","","null","","","null","51","","","","","","","","","","","","","","","",""
"","ITI","","html-keyboard-response","342","449515","0.0-1.0-468.0","0","0","66749","","null","","","null","51","","","","","","","","","","","","","","","NaN",""
"","S1","","html-keyboard-response","343","449777","0.0-1.0-470.0","0","0","66749","","null","","","null","52","","","","","","","","","","","","","","","",""
"","ISI","","html-keyboard-response","344","450784","0.0-1.0-471.0","0","0","66749","","null","","","null","52","NaN","","","","","","","","","","","","","","",""
"","S2","","html-keyboard-response","345","451051","0.0-1.0-472.0","0","0","66749","","null","","","null","52","","NaN","","","","","","","","","","","","","",""
"","response","","html-keyboard-response","346","451703","0.0-1.0-473.0-0.0","0","0","66749","","645","","","75","52","","","2","52","training","adjacent","BC","2","3","N.jpg","P.jpg","1","1","1","",""
"","feedback","","html-keyboard-response","347","452716","0.0-1.0-474.0-0.0","0","0","66749","","null","","","null","52","","","","","","","","","","","","","","","",""
"","ITI","","html-keyboard-response","348","453729","0.0-1.0-477.0","0","0","66749","","null","","","null","52","","","","","","","","","","","","","","","NaN",""
"","S1","","html-keyboard-response","349","453996","0.0-1.0-479.0","0","0","66749","","null","","","null","53","","","","","","","","","","","","","","","",""
"","ISI","","html-keyboard-response","350","455011","0.0-1.0-480.0","0","0","66749","","null","","","null","53","NaN","","","","","","","","","","","","","","",""
"","S2","","html-keyboard-response","351","455273","0.0-1.0-481.0","0","0","66749","","null","","","null","53","","NaN","","","","","","","","","","","","","",""
"","response","","html-keyboard-response","352","456054","0.0-1.0-482.0-0.0","0","0","66749","","773","","","75","53","","","2","53","training","adjacent","BA","2","1","N.jpg","O.jpg","1","0","0","",""
"","feedback","","html-keyboard-response","353","457067","0.0-1.0-483.0-0.0","0","0","66749","","null","","","null","53","","","","","","","","","","","","","","","",""
"","time_out","","html-keyboard-response","354","459081","0.0-1.0-485.0-0.0","0","0","66749","","null","","","null","53","","","","","","","","","","","","","","","",""
"","ITI","","html-keyboard-response","355","460090","0.0-1.0-486.0","0","0","66749","","null","","","null","53","","","","","","","","","","","","","","","NaN",""
"","S1","","html-keyboard-response","356","460354","0.0-1.0-488.0","0","0","66749","","null","","","null","54","","","","","","","","","","","","","","","",""
"","ISI","","html-keyboard-response","357","461368","0.0-1.0-489.0","0","0","66749","","null","","","null","54","NaN","","","","","","","","","","","","","","",""
"","S2","","html-keyboard-response","358","461633","0.0-1.0-490.0","0","0","66749","","null","","","null","54","","NaN","","","","","","","","","","","","","",""
"","response","","html-keyboard-response","359","462549","0.0-1.0-491.0-0.0","0","0","66749","","909","","","68","54","","","2","54","training","adjacent","DE","4","5","M.jpg","R.jpg","0","1","0","",""
"","feedback","","html-keyboard-response","360","463565","0.0-1.0-492.0-0.0","0","0","66749","","null","","","null","54","","","","","","","","","","","","","","","",""
"","time_out","","html-keyboard-response","361","465579","0.0-1.0-494.0-0.0","0","0","66749","","null","","","null","54","","","","","","","","","","","","","","","",""
"","ITI","","html-keyboard-response","362","466598","0.0-1.0-495.0","0","0","66749","","null","","","null","54","","","","","","","","","","","","","","","NaN",""
"","S1","","html-keyboard-response","363","466858","0.0-1.0-497.0","0","0","66749","","null","","","null","55","","","","","","","","","","","","","","","",""
"","ISI","","html-keyboard-response","364","467876","0.0-1.0-498.0","0","0","66749","","null","","","null","55","NaN","","","","","","","","","","","","","","",""
"","S2","","html-keyboard-response","365","468140","0.0-1.0-499.0","0","0","66749","","null","","","null","55","","NaN","","","","","","","","","","","","","",""
"","response","","html-keyboard-response","366","468808","0.0-1.0-500.0-0.0","0","0","66749","","661","","","68","55","","","2","55","training","adjacent","FE","6","5","L.jpg","R.jpg","0","0","1","",""
"","feedback","","html-keyboard-response","367","469816","0.0-1.0-501.0-0.0","0","0","66749","","null","","","null","55","","","","","","","","","","","","","","","",""
"","ITI","","html-keyboard-response","368","470825","0.0-1.0-504.0","0","0","66749","","null","","","null","55","","","","","","","","","","","","","","","NaN",""
"","S1","","html-keyboard-response","369","471090","0.0-1.0-506.0","0","0","66749","","null","","","null","56","","","","","","","","","","","","","","","",""
"","ISI","","html-keyboard-response","370","472105","0.0-1.0-507.0","0","0","66749","","null","","","null","56","NaN","","","","","","","","","","","","","","",""
"","S2","","html-keyboard-response","371","472370","0.0-1.0-508.0","0","0","66749","","null","","","null","56","","NaN","","","","","","","","","","","","","",""
"","response","","html-keyboard-response","372","473028","0.0-1.0-509.0-0.0","0","0","66749","","651","","","75","56","","","2","56","training","adjacent","DE","4","5","M.jpg","R.jpg","1","1","1","",""
"","feedback","","html-keyboard-response","373","474042","0.0-1.0-510.0-0.0","0","0","66749","","null","","","null","56","","","","","","","","","","","","","","","",""
"","ITI","","html-keyboard-response","374","475060","0.0-1.0-513.0","0","0","66749","","null","","","null","56","","","","","","","","","","","","","","","NaN",""
"","S1","","html-keyboard-response","375","475326","0.0-1.0-515.0","0","0","66749","","null","","","null","57","","","","","","","","","","","","","","","",""
"","ISI","","html-keyboard-response","376","476339","0.0-1.0-516.0","0","0","66749","","null","","","null","57","NaN","","","","","","","","","","","","","","",""
"","S2","","html-keyboard-response","377","476604","0.0-1.0-517.0","0","0","66749","","null","","","null","57","","NaN","","","","","","","","","","","","","",""
"","response","","html-keyboard-response","378","477334","0.0-1.0-518.0-0.0","0","0","66749","","719","","","75","57","","","2","57","training","adjacent","BC","2","3","N.jpg","P.jpg","1","1","1","",""
"","feedback","","html-keyboard-response","379","478347","0.0-1.0-519.0-0.0","0","0","66749","","null","","","null","57","","","","","","","","","","","","","","","",""
"","ITI","","html-keyboard-response","380","479363","0.0-1.0-522.0","0","0","66749","","null","","","null","57","","","","","","","","","","","","","","","NaN",""
"","S1","","html-keyboard-response","381","479624","0.0-1.0-524.0","0","0","66749","","null","","","null","58","","","","","","","","","","","","","","","",""
"","ISI","","html-keyboard-response","382","480633","0.0-1.0-525.0","0","0","66749","","null","","","null","58","NaN","","","","","","","","","","","","","","",""
"","S2","","html-keyboard-response","383","480898","0.0-1.0-526.0","0","0","66749","","null","","","null","58","","NaN","","","","","","","","","","","","","",""
"","response","","html-keyboard-response","384","481609","0.0-1.0-527.0-0.0","0","0","66749","","702","","","75","58","","","2","58","training","adjacent","FE","6","5","L.jpg","R.jpg","1","0","0","",""
"","feedback","","html-keyboard-response","385","482624","0.0-1.0-528.0-0.0","0","0","66749","","null","","","null","58","","","","","","","","","","","","","","","",""
"","time_out","","html-keyboard-response","386","484634","0.0-1.0-530.0-0.0","0","0","66749","","null","","","null","58","","","","","","","","","","","","","","","",""
"","ITI","","html-keyboard-response","387","485649","0.0-1.0-531.0","0","0","66749","","null","","","null","58","","","","","","","","","","","","","","","NaN",""
"","S1","","html-keyboard-response","388","485913","0.0-1.0-533.0","0","0","66749","","null","","","null","59","","","","","","","","","","","","","","","",""
"","ISI","","html-keyboard-response","389","486923","0.0-1.0-534.0","0","0","66749","","null","","","null","59","NaN","","","","","","","","","","","","","","",""
"","S2","","html-keyboard-response","390","487186","0.0-1.0-535.0","0","0","66749","","null","","","null","59","","NaN","","","","","","","","","","","","","",""
"","response","","html-keyboard-response","391","488422","0.0-1.0-536.0-0.0","0","0","66749","","1228","","","75","59","","","2","59","training","adjacent","CB","3","2","P.jpg","N.jpg","1","0","0","",""
"","feedback","","html-keyboard-response","392","489433","0.0-1.0-537.0-0.0","0","0","66749","","null","","","null","59","","","","","","","","","","","","","","","",""
"","time_out","","html-keyboard-response","393","491449","0.0-1.0-539.0-0.0","0","0","66749","","null","","","null","59","","","","","","","","","","","","","","","",""
"","ITI","","html-keyboard-response","394","492465","0.0-1.0-540.0","0","0","66749","","null","","","null","59","","","","","","","","","","","","","","","NaN",""
"","S1","","html-keyboard-response","395","492729","0.0-1.0-542.0","0","0","66749","","null","","","null","60","","","","","","","","","","","","","","","",""
"","ISI","","html-keyboard-response","396","493737","0.0-1.0-543.0","0","0","66749","","null","","","null","60","NaN","","","","","","","","","","","","","","",""
"","S2","","html-keyboard-response","397","494001","0.0-1.0-544.0","0","0","66749","","null","","","null","60","","NaN","","","","","","","","","","","","","",""
"","response","","html-keyboard-response","398","494752","0.0-1.0-545.0-0.0","0","0","66749","","741","","","68","60","","","2","60","training","adjacent","BA","2","1","N.jpg","O.jpg","0","0","1","",""
"","feedback","","html-keyboard-response","399","495760","0.0-1.0-546.0-0.0","0","0","66749","","null","","","null","60","","","","","","","","","","","","","","","",""
"","ITI","","html-keyboard-response","400","496768","0.0-1.0-549.0","0","0","66749","","null","","","null","60","","","","","","","","","","","","","","","NaN",""
"","S1","","html-keyboard-response","401","497032","0.0-1.0-551.0","0","0","66749","","null","","","null","61","","","","","","","","","","","","","","","",""
"","ISI","","html-keyboard-response","402","498044","0.0-1.0-552.0","0","0","66749","","null","","","null","61","NaN","","","","","","","","","","","","","","",""
"","S2","","html-keyboard-response","403","498305","0.0-1.0-553.0","0","0","66749","","null","","","null","61","","NaN","","","","","","","","","","","","","",""
"","response","","html-keyboard-response","404","499007","0.0-1.0-554.0-0.0","0","0","66749","","693","","","68","61","","","2","61","training","adjacent","CD","3","4","P.jpg","M.jpg","0","1","0","",""
"","feedback","","html-keyboard-response","405","500017","0.0-1.0-555.0-0.0","0","0","66749","","null","","","null","61","","","","","","","","","","","","","","","",""
"","time_out","","html-keyboard-response","406","502033","0.0-1.0-557.0-0.0","0","0","66749","","null","","","null","61","","","","","","","","","","","","","","","",""
"","ITI","","html-keyboard-response","407","503049","0.0-1.0-558.0","0","0","66749","","null","","","null","61","","","","","","","","","","","","","","","NaN",""
"","S1","","html-keyboard-response","408","503314","0.0-1.0-560.0","0","0","66749","","null","","","null","62","","","","","","","","","","","","","","","",""
"","ISI","","html-keyboard-response","409","504332","0.0-1.0-561.0","0","0","66749","","null","","","null","62","NaN","","","","","","","","","","","","","","",""
"","S2","","html-keyboard-response","410","504593","0.0-1.0-562.0","0","0","66749","","null","","","null","62","","NaN","","","","","","","","","","","","","",""
"","response","","html-keyboard-response","411","505059","0.0-1.0-563.0-0.0","0","0","66749","","459","","","75","62","","","2","62","training","adjacent","AB","1","2","O.jpg","N.jpg","1","1","1","",""
"","feedback","","html-keyboard-response","412","506072","0.0-1.0-564.0-0.0","0","0","66749","","null","","","null","62","","","","","","","","","","","","","","","",""
"","ITI","","html-keyboard-response","413","507080","0.0-1.0-567.0","0","0","66749","","null","","","null","62","","","","","","","","","","","","","","","NaN",""
"","S1","","html-keyboard-response","414","507345","0.0-1.0-569.0","0","0","66749","","null","","","null","63","","","","","","","","","","","","","","","",""
"","ISI","","html-keyboard-response","415","508364","0.0-1.0-570.0","0","0","66749","","null","","","null","63","NaN","","","","","","","","","","","","","","",""
"","S2","","html-keyboard-response","416","508628","0.0-1.0-571.0","0","0","66749","","null","","","null","63","","NaN","","","","","","","","","","","","","",""
"","response","","html-keyboard-response","417","509380","0.0-1.0-572.0-0.0","0","0","66749","","744","","","75","63","","","2","63","training","adjacent","FE","6","5","L.jpg","R.jpg","1","0","0","",""
"","feedback","","html-keyboard-response","418","510392","0.0-1.0-573.0-0.0","0","0","66749","","null","","","null","63","","","","","","","","","","","","","","","",""
"","time_out","","html-keyboard-response","419","512411","0.0-1.0-575.0-0.0","0","0","66749","","null","","","null","63","","","","","","","","","","","","","","","",""
"","ITI","","html-keyboard-response","420","513427","0.0-1.0-576.0","0","0","66749","","null","","","null","63","","","","","","","","","","","","","","","NaN",""
"","S1","","html-keyboard-response","421","513694","0.0-1.0-578.0","0","0","66749","","null","","","null","64","","","","","","","","","","","","","","","",""
"","ISI","","html-keyboard-response","422","514706","0.0-1.0-579.0","0","0","66749","","null","","","null","64","NaN","","","","","","","","","","","","","","",""
"","S2","","html-keyboard-response","423","514967","0.0-1.0-580.0","0","0","66749","","null","","","null","64","","NaN","","","","","","","","","","","","","",""
"","response","","html-keyboard-response","424","515437","0.0-1.0-581.0-0.0","0","0","66749","","462","","","68","64","","","2","64","training","adjacent","GF","7","6","Q.jpg","L.jpg","0","0","1","",""
"","feedback","","html-keyboard-response","425","516445","0.0-1.0-582.0-0.0","0","0","66749","","null","","","null","64","","","","","","","","","","","","","","","",""
"","ITI","","html-keyboard-response","426","517459","0.0-1.0-585.0","0","0","66749","","null","","","null","64","","","","","","","","","","","","","","","NaN",""
"","S1","","html-keyboard-response","427","517722","0.0-1.0-587.0","0","0","66749","","null","","","null","65","","","","","","","","","","","","","","","",""
"","ISI","","html-keyboard-response","428","518734","0.0-1.0-588.0","0","0","66749","","null","","","null","65","NaN","","","","","","","","","","","","","","",""
"","S2","","html-keyboard-response","429","518993","0.0-1.0-589.0","0","0","66749","","null","","","null","65","","NaN","","","","","","","","","","","","","",""
"","response","","html-keyboard-response","430","519710","0.0-1.0-590.0-0.0","0","0","66749","","707","","","75","65","","","2","65","training","adjacent","FG","6","7","L.jpg","Q.jpg","1","1","1","",""
"","feedback","","html-keyboard-response","431","520719","0.0-1.0-591.0-0.0","0","0","66749","","null","","","null","65","","","","","","","","","","","","","","","",""
"","ITI","","html-keyboard-response","432","521731","0.0-1.0-594.0","0","0","66749","","null","","","null","65","","","","","","","","","","","","","","","NaN",""
"","S1","","html-keyboard-response","433","521996","0.0-1.0-596.0","0","0","66749","","null","","","null","66","","","","","","","","","","","","","","","",""
"","ISI","","html-keyboard-response","434","523007","0.0-1.0-597.0","0","0","66749","","null","","","null","66","NaN","","","","","","","","","","","","","","",""
"","S2","","html-keyboard-response","435","523273","0.0-1.0-598.0","0","0","66749","","null","","","null","66","","NaN","","","","","","","","","","","","","",""
"","response","","html-keyboard-response","436","524022","0.0-1.0-599.0-0.0","0","0","66749","","741","","","68","66","","","2","66","training","adjacent","BA","2","1","N.jpg","O.jpg","0","0","1","",""
"","feedback","","html-keyboard-response","437","525034","0.0-1.0-600.0-0.0","0","0","66749","","null","","","null","66","","","","","","","","","","","","","","","",""
"","ITI","","html-keyboard-response","438","526050","0.0-1.0-603.0","0","0","66749","","null","","","null","66","","","","","","","","","","","","","","","NaN",""
"","S1","","html-keyboard-response","439","526314","0.0-1.0-605.0","0","0","66749","","null","","","null","67","","","","","","","","","","","","","","","",""
"","ISI","","html-keyboard-response","440","527329","0.0-1.0-606.0","0","0","66749","","null","","","null","67","NaN","","","","","","","","","","","","","","",""
"","S2","","html-keyboard-response","441","527595","0.0-1.0-607.0","0","0","66749","","null","","","null","67","","NaN","","","","","","","","","","","","","",""
"","response","","html-keyboard-response","442","528080","0.0-1.0-608.0-0.0","0","0","66749","","473","","","75","67","","","2","67","training","adjacent","AB","1","2","O.jpg","N.jpg","1","1","1","",""
"","feedback","","html-keyboard-response","443","529101","0.0-1.0-609.0-0.0","0","0","66749","","null","","","null","67","","","","","","","","","","","","","","","",""
"","ITI","","html-keyboard-response","444","530114","0.0-1.0-612.0","0","0","66749","","null","","","null","67","","","","","","","","","","","","","","","NaN",""
"","S1","","html-keyboard-response","445","530376","0.0-1.0-614.0","0","0","66749","","null","","","null","68","","","","","","","","","","","","","","","",""
"","ISI","","html-keyboard-response","446","531384","0.0-1.0-615.0","0","0","66749","","null","","","null","68","NaN","","","","","","","","","","","","","","",""
"","S2","","html-keyboard-response","447","531652","0.0-1.0-616.0","0","0","66749","","null","","","null","68","","NaN","","","","","","","","","","","","","",""
"","response","","html-keyboard-response","448","532054","0.0-1.0-617.0-0.0","0","0","66749","","392","","","68","68","","","2","68","training","adjacent","CD","3","4","P.jpg","M.jpg","0","1","0","",""
"","feedback","","html-keyboard-response","449","533068","0.0-1.0-618.0-0.0","0","0","66749","","null","","","null","68","","","","","","","","","","","","","","","",""
"","time_out","","html-keyboard-response","450","535086","0.0-1.0-620.0-0.0","0","0","66749","","null","","","null","68","","","","","","","","","","","","","","","",""
"","ITI","","html-keyboard-response","451","536096","0.0-1.0-621.0","0","0","66749","","null","","","null","68","","","","","","","","","","","","","","","NaN",""
"","S1","","html-keyboard-response","452","536359","0.0-1.0-623.0","0","0","66749","","null","","","null","69","","","","","","","","","","","","","","","",""
"","ISI","","html-keyboard-response","453","537371","0.0-1.0-624.0","0","0","66749","","null","","","null","69","NaN","","","","","","","","","","","","","","",""
"","S2","","html-keyboard-response","454","537633","0.0-1.0-625.0","0","0","66749","","null","","","null","69","","NaN","","","","","","","","","","","","","",""
"","response","","html-keyboard-response","455","538028","0.0-1.0-626.0-0.0","0","0","66749","","387","","","75","69","","","2","69","training","adjacent","EF","5","6","R.jpg","L.jpg","1","1","1","",""
"","feedback","","html-keyboard-response","456","539041","0.0-1.0-627.0-0.0","0","0","66749","","null","","","null","69","","","","","","","","","","","","","","","",""
"","ITI","","html-keyboard-response","457","540055","0.0-1.0-630.0","0","0","66749","","null","","","null","69","","","","","","","","","","","","","","","NaN",""
"","S1","","html-keyboard-response","458","540321","0.0-1.0-632.0","0","0","66749","","null","","","null","70","","","","","","","","","","","","","","","",""
"","ISI","","html-keyboard-response","459","541336","0.0-1.0-633.0","0","0","66749","","null","","","null","70","NaN","","","","","","","","","","","","","","",""
"","S2","","html-keyboard-response","460","541601","0.0-1.0-634.0","0","0","66749","","null","","","null","70","","NaN","","","","","","","","","","","","","",""
"","response","","html-keyboard-response","461","542020","0.0-1.0-635.0-0.0","0","0","66749","","412","","","75","70","","","2","70","training","adjacent","DC","4","3","M.jpg","P.jpg","1","0","0","",""
"","feedback","","html-keyboard-response","462","543032","0.0-1.0-636.0-0.0","0","0","66749","","null","","","null","70","","","","","","","","","","","","","","","",""
"","time_out","","html-keyboard-response","463","545040","0.0-1.0-638.0-0.0","0","0","66749","","null","","","null","70","","","","","","","","","","","","","","","",""
"","ITI","","html-keyboard-response","464","546048","0.0-1.0-639.0","0","0","66749","","null","","","null","70","","","","","","","","","","","","","","","NaN",""
"","S1","","html-keyboard-response","465","546315","0.0-1.0-641.0","0","0","66749","","null","","","null","71","","","","","","","","","","","","","","","",""
"","ISI","","html-keyboard-response","466","547330","0.0-1.0-642.0","0","0","66749","","null","","","null","71","NaN","","","","","","","","","","","","","","",""
"","S2","","html-keyboard-response","467","547595","0.0-1.0-643.0","0","0","66749","","null","","","null","71","","NaN","","","","","","","","","","","","","",""
"","response","","html-keyboard-response","468","548161","0.0-1.0-644.0-0.0","0","0","66749","","562","","","68","71","","","2","71","training","adjacent","AB","1","2","O.jpg","N.jpg","0","1","0","",""
"","feedback","","html-keyboard-response","469","549175","0.0-1.0-645.0-0.0","0","0","66749","","null","","","null","71","","","","","","","","","","","","","","","",""
"","time_out","","html-keyboard-response","470","551185","0.0-1.0-647.0-0.0","0","0","66749","","null","","","null","71","","","","","","","","","","","","","","","",""
"","ITI","","html-keyboard-response","471","552201","0.0-1.0-648.0","0","0","66749","","null","","","null","71","","","","","","","","","","","","","","","NaN",""
"","S1","","html-keyboard-response","472","552463","0.0-1.0-650.0","0","0","66749","","null","","","null","72","","","","","","","","","","","","","","","",""
"","ISI","","html-keyboard-response","473","553473","0.0-1.0-651.0","0","0","66749","","null","","","null","72","NaN","","","","","","","","","","","","","","",""
"","S2","","html-keyboard-response","474","553734","0.0-1.0-652.0","0","0","66749","","null","","","null","72","","NaN","","","","","","","","","","","","","",""
"","response","","html-keyboard-response","475","554391","0.0-1.0-653.0-0.0","0","0","66749","","646","","","75","72","","","2","72","training","adjacent","BC","2","3","N.jpg","P.jpg","1","1","1","",""
"","feedback","","html-keyboard-response","476","555410","0.0-1.0-654.0-0.0","0","0","66749","","null","","","null","72","","","","","","","","","","","","","","","",""
"","ITI","","html-keyboard-response","477","556426","0.0-1.0-657.0","0","0","66749","","null","","","null","72","","","","","","","","","","","","","","","NaN",""
"","S1","","html-keyboard-response","478","556690","0.0-1.0-659.0","0","0","66749","","null","","","null","73","","","","","","","","","","","","","","","",""
"","ISI","","html-keyboard-response","479","557705","0.0-1.0-660.0","0","0","66749","","null","","","null","73","NaN","","","","","","","","","","","","","","",""
"","S2","","html-keyboard-response","480","557969","0.0-1.0-661.0","0","0","66749","","null","","","null","73","","NaN","","","","","","","","","","","","","",""
"","response","","html-keyboard-response","481","558567","0.0-1.0-662.0-0.0","0","0","66749","","587","","","75","73","","","2","73","training","adjacent","CB","3","2","P.jpg","N.jpg","1","0","0","",""
"","feedback","","html-keyboard-response","482","559587","0.0-1.0-663.0-0.0","0","0","66749","","null","","","null","73","","","","","","","","","","","","","","","",""
"","time_out","","html-keyboard-response","483","561602","0.0-1.0-665.0-0.0","0","0","66749","","null","","","null","73","","","","","","","","","","","","","","","",""
"","ITI","","html-keyboard-response","484","562617","0.0-1.0-666.0","0","0","66749","","null","","","null","73","","","","","","","","","","","","","","","NaN",""
"","S1","","html-keyboard-response","485","562884","0.0-1.0-668.0","0","0","66749","","null","","","null","74","","","","","","","","","","","","","","","",""
"","ISI","","html-keyboard-response","486","563896","0.0-1.0-669.0","0","0","66749","","null","","","null","74","NaN","","","","","","","","","","","","","","",""
"","S2","","html-keyboard-response","487","564163","0.0-1.0-670.0","0","0","66749","","null","","","null","74","","NaN","","","","","","","","","","","","","",""
"","response","","html-keyboard-response","488","564839","0.0-1.0-671.0-0.0","0","0","66749","","663","","","75","74","","","2","74","training","adjacent","FG","6","7","L.jpg","Q.jpg","1","1","1","",""
"","feedback","","html-keyboard-response","489","565857","0.0-1.0-672.0-0.0","0","0","66749","","null","","","null","74","","","","","","","","","","","","","","","",""
"","ITI","","html-keyboard-response","490","566872","0.0-1.0-675.0","0","0","66749","","null","","","null","74","","","","","","","","","","","","","","","NaN",""
"","S1","","html-keyboard-response","491","567137","0.0-1.0-677.0","0","0","66749","","null","","","null","75","","","","","","","","","","","","","","","",""
"","ISI","","html-keyboard-response","492","568151","0.0-1.0-678.0","0","0","66749","","null","","","null","75","NaN","","","","","","","","","","","","","","",""
"","S2","","html-keyboard-response","493","568415","0.0-1.0-679.0","0","0","66749","","null","","","null","75","","NaN","","","","","","","","","","","","","",""
"","response","","html-keyboard-response","494","569365","0.0-1.0-680.0-0.0","0","0","66749","","941","","","75","75","","","2","75","training","adjacent","FE","6","5","L.jpg","R.jpg","1","0","0","",""
"","feedback","","html-keyboard-response","495","570374","0.0-1.0-681.0-0.0","0","0","66749","","null","","","null","75","","","","","","","","","","","","","","","",""
"","time_out","","html-keyboard-response","496","572388","0.0-1.0-683.0-0.0","0","0","66749","","null","","","null","75","","","","","","","","","","","","","","","",""
"","ITI","","html-keyboard-response","497","573405","0.0-1.0-684.0","0","0","66749","","null","","","null","75","","","","","","","","","","","","","","","NaN",""
"","S1","","html-keyboard-response","498","573668","0.0-1.0-686.0","0","0","66749","","null","","","null","76","","","","","","","","","","","","","","","",""
"","ISI","","html-keyboard-response","499","574681","0.0-1.0-687.0","0","0","66749","","464","","","68","76","d","","","","","","","","","","","","","","",""
"","S2","","html-keyboard-response","500","574944","0.0-1.0-688.0","0","0","66749","","null","","","null","76","","NaN","","","","","","","","","","","","","",""
"","response","","html-keyboard-response","501","575338","0.0-1.0-689.0-0.0","0","0","66749","","387","","","68","76","","","2","76","training","adjacent","GF","7","6","Q.jpg","L.jpg","0","0","1","",""
"","feedback","","html-keyboard-response","502","576354","0.0-1.0-690.0-0.0","0","0","66749","","null","","","null","76","","","","","","","","","","","","","","","",""
"","ITI","","html-keyboard-response","503","577371","0.0-1.0-693.0","0","0","66749","","null","","","null","76","","","","","","","","","","","","","","","NaN",""
"","S1","","html-keyboard-response","504","577632","0.0-1.0-695.0","0","0","66749","","null","","","null","77","","","","","","","","","","","","","","","",""
"","ISI","","html-keyboard-response","505","578648","0.0-1.0-696.0","0","0","66749","","null","","","null","77","NaN","","","","","","","","","","","","","","",""
"","S2","","html-keyboard-response","506","578913","0.0-1.0-697.0","0","0","66749","","null","","","null","77","","NaN","","","","","","","","","","","","","",""
"","response","","html-keyboard-response","507","579716","0.0-1.0-698.0-0.0","0","0","66749","","795","","","75","77","","","2","77","training","adjacent","EF","5","6","R.jpg","L.jpg","1","1","1","",""
"","feedback","","html-keyboard-response","508","580732","0.0-1.0-699.0-0.0","0","0","66749","","null","","","null","77","","","","","","","","","","","","","","","",""
"","ITI","","html-keyboard-response","509","581745","0.0-1.0-702.0","0","0","66749","","null","","","null","77","","","","","","","","","","","","","","","NaN",""
"","S1","","html-keyboard-response","510","582007","0.0-1.0-704.0","0","0","66749","","null","","","null","78","","","","","","","","","","","","","","","",""
"","ISI","","html-keyboard-response","511","583017","0.0-1.0-705.0","0","0","66749","","null","","","null","78","NaN","","","","","","","","","","","","","","",""
"","S2","","html-keyboard-response","512","583281","0.0-1.0-706.0","0","0","66749","","null","","","null","78","","NaN","","","","","","","","","","","","","",""
"","response","","html-keyboard-response","513","583924","0.0-1.0-707.0-0.0","0","0","66749","","634","","","75","78","","","2","78","training","adjacent","EF","5","6","R.jpg","L.jpg","1","1","1","",""
"","feedback","","html-keyboard-response","514","584933","0.0-1.0-708.0-0.0","0","0","66749","","null","","","null","78","","","","","","","","","","","","","","","",""
"","ITI","","html-keyboard-response","515","585943","0.0-1.0-711.0","0","0","66749","","null","","","null","78","","","","","","","","","","","","","","","NaN",""
"","S1","","html-keyboard-response","516","586209","0.0-1.0-713.0","0","0","66749","","null","","","null","79","","","","","","","","","","","","","","","",""
"","ISI","","html-keyboard-response","517","587226","0.0-1.0-714.0","0","0","66749","","null","","","null","79","NaN","","","","","","","","","","","","","","",""
"","S2","","html-keyboard-response","518","587489","0.0-1.0-715.0","0","0","66749","","null","","","null","79","","NaN","","","","","","","","","","","","","",""
"","response","","html-keyboard-response","519","587808","0.0-1.0-716.0-0.0","0","0","66749","","314","","","75","79","","","2","79","training","adjacent","ED","5","4","R.jpg","M.jpg","1","0","0","",""
"","feedback","","html-keyboard-response","520","588824","0.0-1.0-717.0-0.0","0","0","66749","","null","","","null","79","","","","","","","","","","","","","","","",""
"","time_out","","html-keyboard-response","521","590841","0.0-1.0-719.0-0.0","0","0","66749","","null","","","null","79","","","","","","","","","","","","","","","",""
"","ITI","","html-keyboard-response","522","591857","0.0-1.0-720.0","0","0","66749","","null","","","null","79","","","","","","","","","","","","","","","NaN",""
"","S1","","html-keyboard-response","523","592121","0.0-1.0-722.0","0","0","66749","","null","","","null","80","","","","","","","","","","","","","","","",""
"","ISI","","html-keyboard-response","524","593137","0.0-1.0-723.0","0","0","66749","","null","","","null","80","NaN","","","","","","","","","","","","","","",""
"","S2","","html-keyboard-response","525","593400","0.0-1.0-724.0","0","0","66749","","null","","","null","80","","NaN","","","","","","","","","","","","","",""
"","response","","html-keyboard-response","526","593795","0.0-1.0-725.0-0.0","0","0","66749","","387","","","68","80","","","2","80","training","adjacent","GF","7","6","Q.jpg","L.jpg","0","0","1","",""
"","feedback","","html-keyboard-response","527","594808","0.0-1.0-726.0-0.0","0","0","66749","","null","","","null","80","","","","","","","","","","","","","","","",""
"","ITI","","html-keyboard-response","528","595821","0.0-1.0-729.0","0","0","66749","","null","","","null","80","","","","","","","","","","","","","","","NaN",""
"","S1","","html-keyboard-response","529","596085","0.0-1.0-731.0","0","0","66749","","null","","","null","81","","","","","","","","","","","","","","","",""
"","ISI","","html-keyboard-response","530","597096","0.0-1.0-732.0","0","0","66749","","null","","","null","81","NaN","","","","","","","","","","","","","","",""
"","S2","","html-keyboard-response","531","597365","0.0-1.0-733.0","0","0","66749","","null","","","null","81","","NaN","","","","","","","","","","","","","",""
"","response","","html-keyboard-response","532","597706","0.0-1.0-734.0-0.0","0","0","66749","","332","","","68","81","","","2","81","training","adjacent","GF","7","6","Q.jpg","L.jpg","0","0","1","",""
"","feedback","","html-keyboard-response","533","598720","0.0-1.0-735.0-0.0","0","0","66749","","null","","","null","81","","","","","","","","","","","","","","","",""
"","ITI","","html-keyboard-response","534","599733","0.0-1.0-738.0","0","0","66749","","null","","","null","81","","","","","","","","","","","","","","","NaN",""
"","S1","","html-keyboard-response","535","600003","0.0-1.0-740.0","0","0","66749","","null","","","null","82","","","","","","","","","","","","","","","",""
"","ISI","","html-keyboard-response","536","601018","0.0-1.0-741.0","0","0","66749","","null","","","null","82","NaN","","","","","","","","","","","","","","",""
"","S2","","html-keyboard-response","537","601279","0.0-1.0-742.0","0","0","66749","","null","","","null","82","","NaN","","","","","","","","","","","","","",""
"","response","","html-keyboard-response","538","601964","0.0-1.0-743.0-0.0","0","0","66749","","677","","","75","82","","","2","82","training","adjacent","FG","6","7","L.jpg","Q.jpg","1","1","1","",""
"","feedback","","html-keyboard-response","539","602978","0.0-1.0-744.0-0.0","0","0","66749","","null","","","null","82","","","","","","","","","","","","","","","",""
"","ITI","","html-keyboard-response","540","603996","0.0-1.0-747.0","0","0","66749","","null","","","null","82","","","","","","","","","","","","","","","NaN",""
"","S1","","html-keyboard-response","541","604258","0.0-1.0-749.0","0","0","66749","","null","","","null","83","","","","","","","","","","","","","","","",""
"","ISI","","html-keyboard-response","542","605273","0.0-1.0-750.0","0","0","66749","","null","","","null","83","NaN","","","","","","","","","","","","","","",""
"","S2","","html-keyboard-response","543","605538","0.0-1.0-751.0","0","0","66749","","null","","","null","83","","NaN","","","","","","","","","","","","","",""
"","response","","html-keyboard-response","544","606091","0.0-1.0-752.0-0.0","0","0","66749","","544","","","75","83","","","2","83","training","adjacent","DC","4","3","M.jpg","P.jpg","1","0","0","",""
"","feedback","","html-keyboard-response","545","607104","0.0-1.0-753.0-0.0","0","0","66749","","null","","","null","83","","","","","","","","","","","","","","","",""
"","time_out","","html-keyboard-response","546","609120","0.0-1.0-755.0-0.0","0","0","66749","","null","","","null","83","","","","","","","","","","","","","","","",""
"","ITI","","html-keyboard-response","547","610130","0.0-1.0-756.0","0","0","66749","","null","","","null","83","","","","","","","","","","","","","","","NaN",""
"","S1","","html-keyboard-response","548","610395","0.0-1.0-758.0","0","0","66749","","null","","","null","84","","","","","","","","","","","","","","","",""
"","ISI","","html-keyboard-response","549","611410","0.0-1.0-759.0","0","0","66749","","null","","","null","84","NaN","","","","","","","","","","","","","","",""
"","S2","","html-keyboard-response","550","611677","0.0-1.0-760.0","0","0","66749","","null","","","null","84","","NaN","","","","","","","","","","","","","",""
"","response","","html-keyboard-response","551","612366","0.0-1.0-761.0-0.0","0","0","66749","","681","","","75","84","","","2","84","training","adjacent","FG","6","7","L.jpg","Q.jpg","1","1","1","",""
"","feedback","","html-keyboard-response","552","613379","0.0-1.0-762.0-0.0","0","0","66749","","null","","","null","84","","","","","","","","","","","","","","","",""
"","ITI","","html-keyboard-response","553","614394","0.0-1.0-765.0","0","0","66749","","null","","","null","84","","","","","","","","","","","","","","","NaN",""
"","S1","","html-keyboard-response","554","614660","0.0-1.0-767.0","0","0","66749","","null","","","null","85","","","","","","","","","","","","","","","",""
"","ISI","","html-keyboard-response","555","615673","0.0-1.0-768.0","0","0","66749","","null","","","null","85","NaN","","","","","","","","","","","","","","",""
"","S2","","html-keyboard-response","556","615937","0.0-1.0-769.0","0","0","66749","","null","","","null","85","","NaN","","","","","","","","","","","","","",""
"","response","","html-keyboard-response","557","616755","0.0-1.0-770.0-0.0","0","0","66749","","811","","","68","85","","","2","85","training","adjacent","CD","3","4","P.jpg","M.jpg","0","1","0","",""
"","feedback","","html-keyboard-response","558","617769","0.0-1.0-771.0-0.0","0","0","66749","","null","","","null","85","","","","","","","","","","","","","","","",""
"","time_out","","html-keyboard-response","559","619778","0.0-1.0-773.0-0.0","0","0","66749","","null","","","null","85","","","","","","","","","","","","","","","",""
"","ITI","","html-keyboard-response","560","620793","0.0-1.0-774.0","0","0","66749","","null","","","null","85","","","","","","","","","","","","","","","NaN",""
"","S1","","html-keyboard-response","561","621056","0.0-1.0-776.0","0","0","66749","","null","","","null","86","","","","","","","","","","","","","","","",""
"","ISI","","html-keyboard-response","562","622065","0.0-1.0-777.0","0","0","66749","","null","","","null","86","NaN","","","","","","","","","","","","","","",""
"","S2","","html-keyboard-response","563","622328","0.0-1.0-778.0","0","0","66749","","null","","","null","86","","NaN","","","","","","","","","","","","","",""
"","response","","html-keyboard-response","564","623323","0.0-1.0-779.0-0.0","0","0","66749","","987","","","68","86","","","2","86","training","adjacent","BA","2","1","N.jpg","O.jpg","0","0","1","",""
"","feedback","","html-keyboard-response","565","624337","0.0-1.0-780.0-0.0","0","0","66749","","null","","","null","86","","","","","","","","","","","","","","","",""
"","ITI","","html-keyboard-response","566","625355","0.0-1.0-783.0","0","0","66749","","null","","","null","86","","","","","","","","","","","","","","","NaN",""
"","S1","","html-keyboard-response","567","625614","0.0-1.0-785.0","0","0","66749","","null","","","null","87","","","","","","","","","","","","","","","",""
"","ISI","","html-keyboard-response","568","626624","0.0-1.0-786.0","0","0","66749","","null","","","null","87","NaN","","","","","","","","","","","","","","",""
"","S2","","html-keyboard-response","569","626889","0.0-1.0-787.0","0","0","66749","","null","","","null","87","","NaN","","","","","","","","","","","","","",""
"","response","","html-keyboard-response","570","627412","0.0-1.0-788.0-0.0","0","0","66749","","514","","","75","87","","","2","87","training","adjacent","DE","4","5","M.jpg","R.jpg","1","1","1","",""
"","feedback","","html-keyboard-response","571","628426","0.0-1.0-789.0-0.0","0","0","66749","","null","","","null","87","","","","","","","","","","","","","","","",""
"","ITI","","html-keyboard-response","572","629444","0.0-1.0-792.0","0","0","66749","","null","","","null","87","","","","","","","","","","","","","","","NaN",""
"","S1","","html-keyboard-response","573","629707","0.0-1.0-794.0","0","0","66749","","null","","","null","88","","","","","","","","","","","","","","","",""
"","ISI","","html-keyboard-response","574","630721","0.0-1.0-795.0","0","0","66749","","null","","","null","88","NaN","","","","","","","","","","","","","","",""
"","S2","","html-keyboard-response","575","630985","0.0-1.0-796.0","0","0","66749","","null","","","null","88","","NaN","","","","","","","","","","","","","",""
"","response","","html-keyboard-response","576","631703","0.0-1.0-797.0-0.0","0","0","66749","","706","","","68","88","","","2","88","training","adjacent","AB","1","2","O.jpg","N.jpg","0","1","0","",""
"","feedback","","html-keyboard-response","577","632715","0.0-1.0-798.0-0.0","0","0","66749","","null","","","null","88","","","","","","","","","","","","","","","",""
"","time_out","","html-keyboard-response","578","634730","0.0-1.0-800.0-0.0","0","0","66749","","null","","","null","88","","","","","","","","","","","","","","","",""
"","ITI","","html-keyboard-response","579","635745","0.0-1.0-801.0","0","0","66749","","null","","","null","88","","","","","","","","","","","","","","","NaN",""
"","S1","","html-keyboard-response","580","636010","0.0-1.0-803.0","0","0","66749","","null","","","null","89","","","","","","","","","","","","","","","",""
"","ISI","","html-keyboard-response","581","637026","0.0-1.0-804.0","0","0","66749","","null","","","null","89","NaN","","","","","","","","","","","","","","",""
"","S2","","html-keyboard-response","582","637291","0.0-1.0-805.0","0","0","66749","","null","","","null","89","","NaN","","","","","","","","","","","","","",""
