"success","ttype","start_time","trial_type","trial_index","time_elapsed","internal_node_id","warning","missed_checkup","PID","view_history","rt","responses","repeat_instructions","key_press","index","keypress_isi","keypress_S2","block","trial_num","phase","group_type","pair_type","S1_stim","S2_stim","S1_img","S2_img","S1_chosen","S1_higher","accuracy","keypress_iti","total_bonus_tally"
"true","full_screen","d03082023hr1526","fullscreen","0","7142","0.0-0.0","0","0","50956","","","","","","","","","","","","","","","","","","","","","",""
"","instructions","","instructions","1","22456","0.0-1.0-0.0-0.0","0","0","50956","[{""page_index"":0,""viewing_time"":3286},{""page_index"":1,""viewing_time"":6385},{""page_index"":2,""viewing_time"":4556},{""page_index"":3,""viewing_time"":1084}]","15311","","","","","","","","","","","","","","","","","","","",""
"","comprehension_check","","survey-multi-choice","2","36801","0.0-1.0-0.0-1.0","0","0","50956","","14339","{""Q0"":""True"",""Q1"":""D"",""Q2"":""Only when the screen 'MAKE A CHOICE' is shown"",""Q3"":""Green mark"",""Q4"":""either D or K""}","1","","","","","","","","","","","","","","","","","",""
"","missed_instruction_checkup","","html-keyboard-response","3","38633","0.0-1.0-0.0-2.0-0.0","0","1","50956","","1827","","","32","","","","","","","","","","","","","","","","",""
"","instructions","","instructions","4","49379","0.0-1.0-0.1-0.1","0","0","50956","[{""page_index"":0,""viewing_time"":1950},{""page_index"":1,""viewing_time"":6627},{""page_index"":2,""viewing_time"":1565},{""page_index"":3,""viewing_time"":601}]","10743","","","","","","","","","","","","","","","","","","","",""
"","comprehension_check","","survey-multi-choice","5","59743","0.0-1.0-0.1-1.1","0","0","50956","","10358","{""Q0"":""True"",""Q1"":""D"",""Q2"":""Once the second image appears and while the screen 'MAKE A CHOICE' is shown"",""Q3"":""Green mark"",""Q4"":""either D or K""}","0","","","","","","","","","","","","","","","","","",""
"","start_exp","","html-keyboard-response","6","61228","0.0-1.0-1.0","0","0","50956","","1483","","","32","","","","","","","","","","","","","","","","",""
"","S1","","html-keyboard-response","7","61483","0.0-1.0-2.0","0","0","50956","","null","","","null","0","","","","","","","","","","","","","","","",""
"","ISI","","html-keyboard-response","8","61652","0.0-1.0-3.0","0","0","50956","","null","","","null","0","NaN","","","","","","","","","","","","","","",""
"","S2","","html-keyboard-response","9","61917","0.0-1.0-4.0","0","0","50956","","null","","","null","0","","NaN","","","","","","","","","","","","","",""
"","response","","html-keyboard-response","10","62448","0.0-1.0-5.0-0.0","0","0","50956","","525","","","75","0","","","1","0","training","adjacent","EF","5","6","M.jpg","R.jpg","0","1","0","",""
"","feedback","","html-keyboard-response","11","63468","0.0-1.0-6.0-0.0","0","0","50956","","null","","","null","0","","","","","","","","","","","","","","","",""
"","time_out","","html-keyboard-response","12","65474","0.0-1.0-8.0-0.0","0","0","50956","","null","","","null","0","","","","","","","","","","","","","","","",""
"","ITI","","html-keyboard-response","13","66483","0.0-1.0-9.0","0","0","50956","","null","","","null","0","","","","","","","","","","","","","","","NaN",""
"","S1","","html-keyboard-response","14","66747","0.0-1.0-11.0","0","0","50956","","null","","","null","1","","","","","","","","","","","","","","","",""
"","ISI","","html-keyboard-response","15","66902","0.0-1.0-12.0","0","0","50956","","null","","","null","1","NaN","","","","","","","","","","","","","","",""
"","S2","","html-keyboard-response","16","67165","0.0-1.0-13.0","0","0","50956","","null","","","null","1","","NaN","","","","","","","","","","","","","",""
"","response","","html-keyboard-response","17","67720","0.0-1.0-14.0-0.0","0","0","50956","","551","","","68","1","","","1","1","training","adjacent","ED","5","4","M.jpg","N.jpg","1","0","0","",""
"","feedback","","html-keyboard-response","18","68738","0.0-1.0-15.0-0.0","0","0","50956","","null","","","null","1","","","","","","","","","","","","","","","",""
"","time_out","","html-keyboard-response","19","70753","0.0-1.0-17.0-0.0","0","0","50956","","null","","","null","1","","","","","","","","","","","","","","","",""
"","ITI","","html-keyboard-response","20","71762","0.0-1.0-18.0","0","0","50956","","null","","","null","1","","","","","","","","","","","","","","","NaN",""
"","S1","","html-keyboard-response","21","72020","0.0-1.0-20.0","0","0","50956","","null","","","null","2","","","","","","","","","","","","","","","",""
"","ISI","","html-keyboard-response","22","72181","0.0-1.0-21.0","0","0","50956","","null","","","null","2","NaN","","","","","","","","","","","","","","",""
"","S2","","html-keyboard-response","23","72442","0.0-1.0-22.0","0","0","50956","","null","","","null","2","","NaN","","","","","","","","","","","","","",""
"","response","","html-keyboard-response","24","72666","0.0-1.0-23.0-0.0","0","0","50956","","220","","","68","2","","","1","2","training","adjacent","DC","4","3","N.jpg","L.jpg","1","0","0","",""
"","feedback","","html-keyboard-response","25","73686","0.0-1.0-24.0-0.0","0","0","50956","","null","","","null","2","","","","","","","","","","","","","","","",""
"","time_out","","html-keyboard-response","26","75704","0.0-1.0-26.0-0.0","0","0","50956","","null","","","null","2","","","","","","","","","","","","","","","",""
"","ITI","","html-keyboard-response","27","76713","0.0-1.0-27.0","0","0","50956","","null","","","null","2","","","","","","","","","","","","","","","NaN",""
"","S1","","html-keyboard-response","28","76977","0.0-1.0-29.0","0","0","50956","","null","","","null","3","","","","","","","","","","","","","","","",""
"","ISI","","html-keyboard-response","29","77134","0.0-1.0-30.0","0","0","50956","","null","","","null","3","NaN","","","","","","","","","","","","","","",""
"","S2","","html-keyboard-response","30","77393","0.0-1.0-31.0","0","0","50956","","null","","","null","3","","NaN","","","","","","","","","","","","","",""
"","response","","html-keyboard-response","31","77682","0.0-1.0-32.0-0.0","0","0","50956","","285","","","75","3","","","1","3","training","adjacent","GF","7","6","P.jpg","R.jpg","0","0","1","",""
"","feedback","","html-keyboard-response","32","78695","0.0-1.0-33.0-0.0","0","0","50956","","null","","","null","3","","","","","","","","","","","","","","","",""
"","ITI","","html-keyboard-response","33","79703","0.0-1.0-36.0","0","0","50956","","null","","","null","3","","","","","","","","","","","","","","","NaN",""
"","S1","","html-keyboard-response","34","79968","0.0-1.0-38.0","0","0","50956","","null","","","null","4","","","","","","","","","","","","","","","",""
"","ISI","","html-keyboard-response","35","80122","0.0-1.0-39.0","0","0","50956","","null","","","null","4","NaN","","","","","","","","","","","","","","",""
"","S2","","html-keyboard-response","36","80384","0.0-1.0-40.0","0","0","50956","","null","","","null","4","","NaN","","","","","","","","","","","","","",""
"","response","","html-keyboard-response","37","80648","0.0-1.0-41.0-0.0","0","0","50956","","260","","","75","4","","","1","4","training","adjacent","CD","3","4","L.jpg","N.jpg","0","1","0","",""
"","feedback","","html-keyboard-response","38","81659","0.0-1.0-42.0-0.0","0","0","50956","","null","","","null","4","","","","","","","","","","","","","","","",""
"","time_out","","html-keyboard-response","39","83676","0.0-1.0-44.0-0.0","0","0","50956","","null","","","null","4","","","","","","","","","","","","","","","",""
"","ITI","","html-keyboard-response","40","84687","0.0-1.0-45.0","0","0","50956","","null","","","null","4","","","","","","","","","","","","","","","NaN",""
"","S1","","html-keyboard-response","41","84951","0.0-1.0-47.0","0","0","50956","","null","","","null","5","","","","","","","","","","","","","","","",""
"","ISI","","html-keyboard-response","42","85106","0.0-1.0-48.0","0","0","50956","","null","","","null","5","NaN","","","","","","","","","","","","","","",""
"","S2","","html-keyboard-response","43","85370","0.0-1.0-49.0","0","0","50956","","null","","","null","5","","NaN","","","","","","","","","","","","","",""
"","response","","html-keyboard-response","44","85704","0.0-1.0-50.0-0.0","0","0","50956","","329","","","68","5","","","1","5","training","adjacent","BA","2","1","O.jpg","Q.jpg","1","0","0","",""
"","feedback","","html-keyboard-response","45","86721","0.0-1.0-51.0-0.0","0","0","50956","","null","","","null","5","","","","","","","","","","","","","","","",""
"","time_out","","html-keyboard-response","46","88740","0.0-1.0-53.0-0.0","0","0","50956","","null","","","null","5","","","","","","","","","","","","","","","",""
"","ITI","","html-keyboard-response","47","89751","0.0-1.0-54.0","0","0","50956","","null","","","null","5","","","","","","","","","","","","","","","NaN",""
"","S1","","html-keyboard-response","48","90015","0.0-1.0-56.0","0","0","50956","","null","","","null","6","","","","","","","","","","","","","","","",""
"","ISI","","html-keyboard-response","49","90170","0.0-1.0-57.0","0","0","50956","","null","","","null","6","NaN","","","","","","","","","","","","","","",""
"","S2","","html-keyboard-response","50","90434","0.0-1.0-58.0","0","0","50956","","null","","","null","6","","NaN","","","","","","","","","","","","","",""
"","response","","html-keyboard-response","51","90687","0.0-1.0-59.0-0.0","0","0","50956","","249","","","68","6","","","1","6","training","adjacent","DE","4","5","N.jpg","M.jpg","1","1","1","",""
"","feedback","","html-keyboard-response","52","91692","0.0-1.0-60.0-0.0","0","0","50956","","null","","","null","6","","","","","","","","","","","","","","","",""
"","ITI","","html-keyboard-response","53","92700","0.0-1.0-63.0","0","0","50956","","null","","","null","6","","","","","","","","","","","","","","","NaN",""
"","S1","","html-keyboard-response","54","92964","0.0-1.0-65.0","0","0","50956","","null","","","null","7","","","","","","","","","","","","","","","",""
"","ISI","","html-keyboard-response","55","93119","0.0-1.0-66.0","0","0","50956","","null","","","null","7","NaN","","","","","","","","","","","","","","",""
"","S2","","html-keyboard-response","56","93384","0.0-1.0-67.0","0","0","50956","","null","","","null","7","","NaN","","","","","","","","","","","","","",""
"","response","","html-keyboard-response","57","93775","0.0-1.0-68.0-0.0","0","0","50956","","389","","","75","7","","","1","7","training","adjacent","DC","4","3","N.jpg","L.jpg","0","0","1","",""
"","feedback","","html-keyboard-response","58","94784","0.0-1.0-69.0-0.0","0","0","50956","","null","","","null","7","","","","","","","","","","","","","","","",""
"","ITI","","html-keyboard-response","59","95794","0.0-1.0-72.0","0","0","50956","","null","","","null","7","","","","","","","","","","","","","","","NaN",""
"","S1","","html-keyboard-response","60","96058","0.0-1.0-74.0","0","0","50956","","null","","","null","8","","","","","","","","","","","","","","","",""
"","ISI","","html-keyboard-response","61","96213","0.0-1.0-75.0","0","0","50956","","null","","","null","8","NaN","","","","","","","","","","","","","","",""
"","S2","","html-keyboard-response","62","96478","0.0-1.0-76.0","0","0","50956","","null","","","null","8","","NaN","","","","","","","","","","","","","",""
"","response","","html-keyboard-response","63","96746","0.0-1.0-77.0-0.0","0","0","50956","","264","","","68","8","","","1","8","training","adjacent","AB","1","2","Q.jpg","O.jpg","1","1","1","",""
"","feedback","","html-keyboard-response","64","97752","0.0-1.0-78.0-0.0","0","0","50956","","null","","","null","8","","","","","","","","","","","","","","","",""
"","ITI","","html-keyboard-response","65","98763","0.0-1.0-81.0","0","0","50956","","null","","","null","8","","","","","","","","","","","","","","","NaN",""
"","S1","","html-keyboard-response","66","99027","0.0-1.0-83.0","0","0","50956","","null","","","null","9","","","","","","","","","","","","","","","",""
"","ISI","","html-keyboard-response","67","99183","0.0-1.0-84.0","0","0","50956","","null","","","null","9","NaN","","","","","","","","","","","","","","",""
"","S2","","html-keyboard-response","68","99445","0.0-1.0-85.0","0","0","50956","","null","","","null","9","","NaN","","","","","","","","","","","","","",""
"","response","","html-keyboard-response","69","100128","0.0-1.0-86.0-0.0","0","0","50956","","680","","","75","9","","","1","9","training","adjacent","DE","4","5","N.jpg","M.jpg","0","1","0","",""
"","feedback","","html-keyboard-response","70","101134","0.0-1.0-87.0-0.0","0","0","50956","","null","","","null","9","","","","","","","","","","","","","","","",""
"","time_out","","html-keyboard-response","71","103140","0.0-1.0-89.0-0.0","0","0","50956","","null","","","null","9","","","","","","","","","","","","","","","",""
"","ITI","","html-keyboard-response","72","104151","0.0-1.0-90.0","0","0","50956","","null","","","null","9","","","","","","","","","","","","","","","NaN",""
"","S1","","html-keyboard-response","73","104416","0.0-1.0-92.0","0","0","50956","","null","","","null","10","","","","","","","","","","","","","","","",""
"","ISI","","html-keyboard-response","74","104570","0.0-1.0-93.0","0","0","50956","","null","","","null","10","NaN","","","","","","","","","","","","","","",""
"","S2","","html-keyboard-response","75","104834","0.0-1.0-94.0","0","0","50956","","null","","","null","10","","NaN","","","","","","","","","","","","","",""
"","response","","html-keyboard-response","76","105711","0.0-1.0-95.0-0.0","0","0","50956","","874","","","75","10","","","1","10","training","adjacent","EF","5","6","M.jpg","R.jpg","0","1","0","",""
"","feedback","","html-keyboard-response","77","106732","0.0-1.0-96.0-0.0","0","0","50956","","null","","","null","10","","","","","","","","","","","","","","","",""
"","time_out","","html-keyboard-response","78","108751","0.0-1.0-98.0-0.0","0","0","50956","","null","","","null","10","","","","","","","","","","","","","","","",""
"","ITI","","html-keyboard-response","79","109758","0.0-1.0-99.0","0","0","50956","","null","","","null","10","","","","","","","","","","","","","","","NaN",""
"","S1","","html-keyboard-response","80","110021","0.0-1.0-101.0","0","0","50956","","null","","","null","11","","","","","","","","","","","","","","","",""
"","ISI","","html-keyboard-response","81","110190","0.0-1.0-102.0","0","0","50956","","null","","","null","11","NaN","","","","","","","","","","","","","","",""
"","S2","","html-keyboard-response","82","110454","0.0-1.0-103.0","0","0","50956","","null","","","null","11","","NaN","","","","","","","","","","","","","",""
"","response","","html-keyboard-response","83","110952","0.0-1.0-104.0-0.0","0","0","50956","","495","","","75","11","","","1","11","training","adjacent","FE","6","5","R.jpg","M.jpg","0","0","1","",""
"","feedback","","html-keyboard-response","84","111958","0.0-1.0-105.0-0.0","0","0","50956","","null","","","null","11","","","","","","","","","","","","","","","",""
"","ITI","","html-keyboard-response","85","112967","0.0-1.0-108.0","0","0","50956","","null","","","null","11","","","","","","","","","","","","","","","NaN",""
"","S1","","html-keyboard-response","86","113232","0.0-1.0-110.0","0","0","50956","","null","","","null","12","","","","","","","","","","","","","","","",""
"","ISI","","html-keyboard-response","87","113401","0.0-1.0-111.0","0","0","50956","","null","","","null","12","NaN","","","","","","","","","","","","","","",""
"","S2","","html-keyboard-response","88","113666","0.0-1.0-112.0","0","0","50956","","null","","","null","12","","NaN","","","","","","","","","","","","","",""
"","response","","html-keyboard-response","89","114064","0.0-1.0-113.0-0.0","0","0","50956","","394","","","75","12","","","1","12","training","adjacent","DC","4","3","N.jpg","L.jpg","0","0","1","",""
"","feedback","","html-keyboard-response","90","115080","0.0-1.0-114.0-0.0","0","0","50956","","null","","","null","12","","","","","","","","","","","","","","","",""
"","ITI","","html-keyboard-response","91","116101","0.0-1.0-117.0","0","0","50956","","null","","","null","12","","","","","","","","","","","","","","","NaN",""
"","S1","","html-keyboard-response","92","116363","0.0-1.0-119.0","0","0","50956","","null","","","null","13","","","","","","","","","","","","","","","",""
"","ISI","","html-keyboard-response","93","116519","0.0-1.0-120.0","0","0","50956","","null","","","null","13","NaN","","","","","","","","","","","","","","",""
"","S2","","html-keyboard-response","94","116779","0.0-1.0-121.0","0","0","50956","","null","","","null","13","","NaN","","","","","","","","","","","","","",""
"","response","","html-keyboard-response","95","117306","0.0-1.0-122.0-0.0","0","0","50956","","522","","","75","13","","","1","13","training","adjacent","FE","6","5","R.jpg","M.jpg","0","0","1","",""
"","feedback","","html-keyboard-response","96","118320","0.0-1.0-123.0-0.0","0","0","50956","","null","","","null","13","","","","","","","","","","","","","","","",""
"","ITI","","html-keyboard-response","97","119328","0.0-1.0-126.0","0","0","50956","","null","","","null","13","","","","","","","","","","","","","","","NaN",""
"","S1","","html-keyboard-response","98","119591","0.0-1.0-128.0","0","0","50956","","null","","","null","14","","","","","","","","","","","","","","","",""
"","ISI","","html-keyboard-response","99","119748","0.0-1.0-129.0","0","0","50956","","null","","","null","14","NaN","","","","","","","","","","","","","","",""
"","S2","","html-keyboard-response","100","120010","0.0-1.0-130.0","0","0","50956","","null","","","null","14","","NaN","","","","","","","","","","","","","",""
"","response","","html-keyboard-response","101","120479","0.0-1.0-131.0-0.0","0","0","50956","","465","","","75","14","","","1","14","training","adjacent","GF","7","6","P.jpg","R.jpg","0","0","1","",""
"","feedback","","html-keyboard-response","102","121487","0.0-1.0-132.0-0.0","0","0","50956","","null","","","null","14","","","","","","","","","","","","","","","",""
"","ITI","","html-keyboard-response","103","122501","0.0-1.0-135.0","0","0","50956","","null","","","null","14","","","","","","","","","","","","","","","NaN",""
"","S1","","html-keyboard-response","104","122763","0.0-1.0-137.0","0","0","50956","","null","","","null","15","","","","","","","","","","","","","","","",""
"","ISI","","html-keyboard-response","105","122920","0.0-1.0-138.0","0","0","50956","","null","","","null","15","NaN","","","","","","","","","","","","","","",""
"","S2","","html-keyboard-response","106","123184","0.0-1.0-139.0","0","0","50956","","null","","","null","15","","NaN","","","","","","","","","","","","","",""
"","response","","html-keyboard-response","107","123728","0.0-1.0-140.0-0.0","0","0","50956","","539","","","68","15","","","1","15","training","adjacent","AB","1","2","Q.jpg","O.jpg","1","1","1","",""
"","feedback","","html-keyboard-response","108","124736","0.0-1.0-141.0-0.0","0","0","50956","","null","","","null","15","","","","","","","","","","","","","","","",""
"","ITI","","html-keyboard-response","109","125748","0.0-1.0-144.0","0","0","50956","","null","","","null","15","","","","","","","","","","","","","","","NaN",""
"","S1","","html-keyboard-response","110","126012","0.0-1.0-146.0","0","0","50956","","null","","","null","16","","","","","","","","","","","","","","","",""
"","ISI","","html-keyboard-response","111","126168","0.0-1.0-147.0","0","0","50956","","null","","","null","16","NaN","","","","","","","","","","","","","","",""
"","S2","","html-keyboard-response","112","126433","0.0-1.0-148.0","0","0","50956","","null","","","null","16","","NaN","","","","","","","","","","","","","",""
"","response","","html-keyboard-response","113","127064","0.0-1.0-149.0-0.0","0","0","50956","","626","","","68","16","","","1","16","training","adjacent","AB","1","2","Q.jpg","O.jpg","1","1","1","",""
"","feedback","","html-keyboard-response","114","128081","0.0-1.0-150.0-0.0","0","0","50956","","null","","","null","16","","","","","","","","","","","","","","","",""
"","ITI","","html-keyboard-response","115","129087","0.0-1.0-153.0","0","0","50956","","null","","","null","16","","","","","","","","","","","","","","","NaN",""
"","S1","","html-keyboard-response","116","129354","0.0-1.0-155.0","0","0","50956","","null","","","null","17","","","","","","","","","","","","","","","",""
"","ISI","","html-keyboard-response","117","129509","0.0-1.0-156.0","0","0","50956","","null","","","null","17","NaN","","","","","","","","","","","","","","",""
"","S2","","html-keyboard-response","118","129774","0.0-1.0-157.0","0","0","50956","","null","","","null","17","","NaN","","","","","","","","","","","","","",""
"","response","","html-keyboard-response","119","130172","0.0-1.0-158.0-0.0","0","0","50956","","396","","","68","17","","","1","17","training","adjacent","CB","3","2","L.jpg","O.jpg","1","0","0","",""
"","feedback","","html-keyboard-response","120","131190","0.0-1.0-159.0-0.0","0","0","50956","","null","","","null","17","","","","","","","","","","","","","","","",""
"","time_out","","html-keyboard-response","121","133194","0.0-1.0-161.0-0.0","0","0","50956","","null","","","null","17","","","","","","","","","","","","","","","",""
"","ITI","","html-keyboard-response","122","134202","0.0-1.0-162.0","0","0","50956","","null","","","null","17","","","","","","","","","","","","","","","NaN",""
"","S1","","html-keyboard-response","123","134469","0.0-1.0-164.0","0","0","50956","","null","","","null","18","","","","","","","","","","","","","","","",""
"","ISI","","html-keyboard-response","124","134622","0.0-1.0-165.0","0","0","50956","","null","","","null","18","NaN","","","","","","","","","","","","","","",""
"","S2","","html-keyboard-response","125","134886","0.0-1.0-166.0","0","0","50956","","null","","","null","18","","NaN","","","","","","","","","","","","","",""
"","response","","html-keyboard-response","126","135376","0.0-1.0-167.0-0.0","0","0","50956","","486","","","75","18","","","1","18","training","adjacent","FE","6","5","R.jpg","M.jpg","0","0","1","",""
"","feedback","","html-keyboard-response","127","136393","0.0-1.0-168.0-0.0","0","0","50956","","null","","","null","18","","","","","","","","","","","","","","","",""
"","ITI","","html-keyboard-response","128","137399","0.0-1.0-171.0","0","0","50956","","null","","","null","18","","","","","","","","","","","","","","","NaN",""
"","S1","","html-keyboard-response","129","137663","0.0-1.0-173.0","0","0","50956","","null","","","null","19","","","","","","","","","","","","","","","",""
"","ISI","","html-keyboard-response","130","137818","0.0-1.0-174.0","0","0","50956","","null","","","null","19","NaN","","","","","","","","","","","","","","",""
"","S2","","html-keyboard-response","131","138082","0.0-1.0-175.0","0","0","50956","","null","","","null","19","","NaN","","","","","","","","","","","","","",""
"","response","","html-keyboard-response","132","138426","0.0-1.0-176.0-0.0","0","0","50956","","340","","","75","19","","","1","19","training","adjacent","DC","4","3","N.jpg","L.jpg","0","0","1","",""
"","feedback","","html-keyboard-response","133","139434","0.0-1.0-177.0-0.0","0","0","50956","","null","","","null","19","","","","","","","","","","","","","","","",""
"","ITI","","html-keyboard-response","134","140441","0.0-1.0-180.0","0","0","50956","","null","","","null","19","","","","","","","","","","","","","","","NaN",""
"","S1","","html-keyboard-response","135","140706","0.0-1.0-182.0","0","0","50956","","null","","","null","20","","","","","","","","","","","","","","","",""
"","ISI","","html-keyboard-response","136","140863","0.0-1.0-183.0","0","0","50956","","null","","","null","20","NaN","","","","","","","","","","","","","","",""
"","S2","","html-keyboard-response","137","141126","0.0-1.0-184.0","0","0","50956","","null","","","null","20","","NaN","","","","","","","","","","","","","",""
"","response","","html-keyboard-response","138","141600","0.0-1.0-185.0-0.0","0","0","50956","","470","","","75","20","","","1","20","training","adjacent","FE","6","5","R.jpg","M.jpg","0","0","1","",""
"","feedback","","html-keyboard-response","139","142620","0.0-1.0-186.0-0.0","0","0","50956","","null","","","null","20","","","","","","","","","","","","","","","",""
"","ITI","","html-keyboard-response","140","143627","0.0-1.0-189.0","0","0","50956","","null","","","null","20","","","","","","","","","","","","","","","NaN",""
"","S1","","html-keyboard-response","141","143892","0.0-1.0-191.0","0","0","50956","","null","","","null","21","","","","","","","","","","","","","","","",""
"","ISI","","html-keyboard-response","142","144045","0.0-1.0-192.0","0","0","50956","","null","","","null","21","NaN","","","","","","","","","","","","","","",""
"","S2","","html-keyboard-response","143","144306","0.0-1.0-193.0","0","0","50956","","null","","","null","21","","NaN","","","","","","","","","","","","","",""
"","response","","html-keyboard-response","144","144704","0.0-1.0-194.0-0.0","0","0","50956","","395","","","68","21","","","1","21","training","adjacent","CD","3","4","L.jpg","N.jpg","1","1","1","",""
"","feedback","","html-keyboard-response","145","145719","0.0-1.0-195.0-0.0","0","0","50956","","null","","","null","21","","","","","","","","","","","","","","","",""
"","ITI","","html-keyboard-response","146","146729","0.0-1.0-198.0","0","0","50956","","null","","","null","21","","","","","","","","","","","","","","","NaN",""
"","S1","","html-keyboard-response","147","146992","0.0-1.0-200.0","0","0","50956","","null","","","null","22","","","","","","","","","","","","","","","",""
"","ISI","","html-keyboard-response","148","147146","0.0-1.0-201.0","0","0","50956","","null","","","null","22","NaN","","","","","","","","","","","","","","",""
"","S2","","html-keyboard-response","149","147411","0.0-1.0-202.0","0","0","50956","","null","","","null","22","","NaN","","","","","","","","","","","","","",""
"","response","","html-keyboard-response","150","147920","0.0-1.0-203.0-0.0","0","0","50956","","505","","","68","22","","","1","22","training","adjacent","FG","6","7","R.jpg","P.jpg","1","1","1","",""
"","feedback","","html-keyboard-response","151","148932","0.0-1.0-204.0-0.0","0","0","50956","","null","","","null","22","","","","","","","","","","","","","","","",""
"","ITI","","html-keyboard-response","152","149942","0.0-1.0-207.0","0","0","50956","","null","","","null","22","","","","","","","","","","","","","","","NaN",""
"","S1","","html-keyboard-response","153","150206","0.0-1.0-209.0","0","0","50956","","null","","","null","23","","","","","","","","","","","","","","","",""
"","ISI","","html-keyboard-response","154","150360","0.0-1.0-210.0","0","0","50956","","null","","","null","23","NaN","","","","","","","","","","","","","","",""
"","S2","","html-keyboard-response","155","150624","0.0-1.0-211.0","0","0","50956","","null","","","null","23","","NaN","","","","","","","","","","","","","",""
"","response","","html-keyboard-response","156","151587","0.0-1.0-212.0-0.0","0","0","50956","","959","","","75","23","","","1","23","training","adjacent","DE","4","5","N.jpg","M.jpg","0","1","0","",""
"","feedback","","html-keyboard-response","157","152596","0.0-1.0-213.0-0.0","0","0","50956","","null","","","null","23","","","","","","","","","","","","","","","",""
"","time_out","","html-keyboard-response","158","154614","0.0-1.0-215.0-0.0","0","0","50956","","null","","","null","23","","","","","","","","","","","","","","","",""
"","ITI","","html-keyboard-response","159","155623","0.0-1.0-216.0","0","0","50956","","null","","","null","23","","","","","","","","","","","","","","","NaN",""
"","S1","","html-keyboard-response","160","155886","0.0-1.0-218.0","0","0","50956","","null","","","null","24","","","","","","","","","","","","","","","",""
"","ISI","","html-keyboard-response","161","156043","0.0-1.0-219.0","0","0","50956","","null","","","null","24","NaN","","","","","","","","","","","","","","",""
"","S2","","html-keyboard-response","162","156307","0.0-1.0-220.0","0","0","50956","","null","","","null","24","","NaN","","","","","","","","","","","","","",""
"","response","","html-keyboard-response","163","156569","0.0-1.0-221.0-0.0","0","0","50956","","257","","","75","24","","","1","24","training","adjacent","GF","7","6","P.jpg","R.jpg","0","0","1","",""
"","feedback","","html-keyboard-response","164","157585","0.0-1.0-222.0-0.0","0","0","50956","","null","","","null","24","","","","","","","","","","","","","","","",""
"","ITI","","html-keyboard-response","165","158596","0.0-1.0-225.0","0","0","50956","","null","","","null","24","","","","","","","","","","","","","","","NaN",""
"","S1","","html-keyboard-response","166","158861","0.0-1.0-227.0","0","0","50956","","null","","","null","25","","","","","","","","","","","","","","","",""
"","ISI","","html-keyboard-response","167","159017","0.0-1.0-228.0","0","0","50956","","null","","","null","25","NaN","","","","","","","","","","","","","","",""
"","S2","","html-keyboard-response","168","159279","0.0-1.0-229.0","0","0","50956","","null","","","null","25","","NaN","","","","","","","","","","","","","",""
"","response","","html-keyboard-response","169","159528","0.0-1.0-230.0-0.0","0","0","50956","","246","","","75","25","","","1","25","training","adjacent","BC","2","3","O.jpg","L.jpg","0","1","0","",""
"","feedback","","html-keyboard-response","170","160537","0.0-1.0-231.0-0.0","0","0","50956","","null","","","null","25","","","","","","","","","","","","","","","",""
"","time_out","","html-keyboard-response","171","162541","0.0-1.0-233.0-0.0","0","0","50956","","null","","","null","25","","","","","","","","","","","","","","","",""
"","ITI","","html-keyboard-response","172","163554","0.0-1.0-234.0","0","0","50956","","null","","","null","25","","","","","","","","","","","","","","","NaN",""
"","S1","","html-keyboard-response","173","163819","0.0-1.0-236.0","0","0","50956","","null","","","null","26","","","","","","","","","","","","","","","",""
"","ISI","","html-keyboard-response","174","163973","0.0-1.0-237.0","0","0","50956","","null","","","null","26","NaN","","","","","","","","","","","","","","",""
"","S2","","html-keyboard-response","175","164238","0.0-1.0-238.0","0","0","50956","","null","","","null","26","","NaN","","","","","","","","","","","","","",""
"","response","","html-keyboard-response","176","164409","0.0-1.0-239.0-0.0","0","0","50956","","165","","","75","26","","","1","26","training","adjacent","GF","7","6","P.jpg","R.jpg","0","0","1","",""
"","feedback","","html-keyboard-response","177","165420","0.0-1.0-240.0-0.0","0","0","50956","","null","","","null","26","","","","","","","","","","","","","","","",""
"","ITI","","html-keyboard-response","178","166430","0.0-1.0-243.0","0","0","50956","","null","","","null","26","","","","","","","","","","","","","","","NaN",""
"","S1","","html-keyboard-response","179","166694","0.0-1.0-245.0","0","0","50956","","null","","","null","27","","","","","","","","","","","","","","","",""
"","ISI","","html-keyboard-response","180","166850","0.0-1.0-246.0","0","0","50956","","null","","","null","27","NaN","","","","","","","","","","","","","","",""
"","S2","","html-keyboard-response","181","167114","0.0-1.0-247.0","0","0","50956","","null","","","null","27","","NaN","","","","","","","","","","","","","",""
"","response","","html-keyboard-response","182","167385","0.0-1.0-248.0-0.0","0","0","50956","","267","","","68","27","","","1","27","training","adjacent","CD","3","4","L.jpg","N.jpg","1","1","1","",""
"","feedback","","html-keyboard-response","183","168402","0.0-1.0-249.0-0.0","0","0","50956","","null","","","null","27","","","","","","","","","","","","","","","",""
"","ITI","","html-keyboard-response","184","169410","0.0-1.0-252.0","0","0","50956","","null","","","null","27","","","","","","","","","","","","","","","NaN",""
"","S1","","html-keyboard-response","185","169675","0.0-1.0-254.0","0","0","50956","","null","","","null","28","","","","","","","","","","","","","","","",""
"","ISI","","html-keyboard-response","186","169829","0.0-1.0-255.0","0","0","50956","","null","","","null","28","NaN","","","","","","","","","","","","","","",""
"","S2","","html-keyboard-response","187","170095","0.0-1.0-256.0","0","0","50956","","null","","","null","28","","NaN","","","","","","","","","","","","","",""
"","response","","html-keyboard-response","188","170936","0.0-1.0-257.0-0.0","0","0","50956","","839","","","75","28","","","1","28","training","adjacent","DE","4","5","N.jpg","M.jpg","0","1","0","",""
"","feedback","","html-keyboard-response","189","171946","0.0-1.0-258.0-0.0","0","0","50956","","null","","","null","28","","","","","","","","","","","","","","","",""
"","time_out","","html-keyboard-response","190","173961","0.0-1.0-260.0-0.0","0","0","50956","","null","","","null","28","","","","","","","","","","","","","","","",""
"","ITI","","html-keyboard-response","191","174969","0.0-1.0-261.0","0","0","50956","","null","","","null","28","","","","","","","","","","","","","","","NaN",""
"","S1","","html-keyboard-response","192","175231","0.0-1.0-263.0","0","0","50956","","null","","","null","29","","","","","","","","","","","","","","","",""
"","ISI","","html-keyboard-response","193","175388","0.0-1.0-264.0","0","0","50956","","null","","","null","29","NaN","","","","","","","","","","","","","","",""
"","S2","","html-keyboard-response","194","175652","0.0-1.0-265.0","0","0","50956","","null","","","null","29","","NaN","","","","","","","","","","","","","",""
"","response","","html-keyboard-response","195","176373","0.0-1.0-266.0-0.0","0","0","50956","","717","","","68","29","","","1","29","training","adjacent","CB","3","2","L.jpg","O.jpg","1","0","0","",""
"","feedback","","html-keyboard-response","196","177393","0.0-1.0-267.0-0.0","0","0","50956","","null","","","null","29","","","","","","","","","","","","","","","",""
"","time_out","","html-keyboard-response","197","179400","0.0-1.0-269.0-0.0","0","0","50956","","null","","","null","29","","","","","","","","","","","","","","","",""
"","ITI","","html-keyboard-response","198","180410","0.0-1.0-270.0","0","0","50956","","null","","","null","29","","","","","","","","","","","","","","","NaN",""
"","S1","","html-keyboard-response","199","180673","0.0-1.0-272.0","0","0","50956","","null","","","null","30","","","","","","","","","","","","","","","",""
"","ISI","","html-keyboard-response","200","180828","0.0-1.0-273.0","0","0","50956","","null","","","null","30","NaN","","","","","","","","","","","","","","",""
"","S2","","html-keyboard-response","201","181093","0.0-1.0-274.0","0","0","50956","","null","","","null","30","","NaN","","","","","","","","","","","","","",""
"","response","","html-keyboard-response","202","181453","0.0-1.0-275.0-0.0","0","0","50956","","357","","","68","30","","","1","30","training","adjacent","AB","1","2","Q.jpg","O.jpg","1","1","1","",""
"","feedback","","html-keyboard-response","203","182462","0.0-1.0-276.0-0.0","0","0","50956","","null","","","null","30","","","","","","","","","","","","","","","",""
"","ITI","","html-keyboard-response","204","183466","0.0-1.0-279.0","0","0","50956","","null","","","null","30","","","","","","","","","","","","","","","NaN",""
"","S1","","html-keyboard-response","205","183730","0.0-1.0-281.0","0","0","50956","","null","","","null","31","","","","","","","","","","","","","","","",""
"","ISI","","html-keyboard-response","206","183885","0.0-1.0-282.0","0","0","50956","","null","","","null","31","NaN","","","","","","","","","","","","","","",""
"","S2","","html-keyboard-response","207","184151","0.0-1.0-283.0","0","0","50956","","null","","","null","31","","NaN","","","","","","","","","","","","","",""
"","response","","html-keyboard-response","208","184914","0.0-1.0-284.0-0.0","0","0","50956","","759","","","68","31","","","1","31","training","adjacent","EF","5","6","M.jpg","R.jpg","1","1","1","",""
"","feedback","","html-keyboard-response","209","185921","0.0-1.0-285.0-0.0","0","0","50956","","null","","","null","31","","","","","","","","","","","","","","","",""
"","ITI","","html-keyboard-response","210","186930","0.0-1.0-288.0","0","0","50956","","null","","","null","31","","","","","","","","","","","","","","","NaN",""
"","S1","","html-keyboard-response","211","187196","0.0-1.0-290.0","0","0","50956","","null","","","null","32","","","","","","","","","","","","","","","",""
"","ISI","","html-keyboard-response","212","187366","0.0-1.0-291.0","0","0","50956","","null","","","null","32","NaN","","","","","","","","","","","","","","",""
"","S2","","html-keyboard-response","213","187632","0.0-1.0-292.0","0","0","50956","","null","","","null","32","","NaN","","","","","","","","","","","","","",""
"","response","","html-keyboard-response","214","187947","0.0-1.0-293.0-0.0","0","0","50956","","311","","","75","32","","","1","32","training","adjacent","BC","2","3","O.jpg","L.jpg","0","1","0","",""
"","feedback","","html-keyboard-response","215","188965","0.0-1.0-294.0-0.0","0","0","50956","","null","","","null","32","","","","","","","","","","","","","","","",""
"","time_out","","html-keyboard-response","216","190982","0.0-1.0-296.0-0.0","0","0","50956","","null","","","null","32","","","","","","","","","","","","","","","",""
"","ITI","","html-keyboard-response","217","191989","0.0-1.0-297.0","0","0","50956","","null","","","null","32","","","","","","","","","","","","","","","NaN",""
"","S1","","html-keyboard-response","218","192254","0.0-1.0-299.0","0","0","50956","","null","","","null","33","","","","","","","","","","","","","","","",""
"","ISI","","html-keyboard-response","219","192409","0.0-1.0-300.0","0","0","50956","","null","","","null","33","NaN","","","","","","","","","","","","","","",""
"","S2","","html-keyboard-response","220","192674","0.0-1.0-301.0","0","0","50956","","null","","","null","33","","NaN","","","","","","","","","","","","","",""
"","response","","html-keyboard-response","221","193856","0.0-1.0-302.0-0.0","0","0","50956","","1178","","","75","33","","","1","33","training","adjacent","ED","5","4","M.jpg","N.jpg","0","0","1","",""
"","feedback","","html-keyboard-response","222","194866","0.0-1.0-303.0-0.0","0","0","50956","","null","","","null","33","","","","","","","","","","","","","","","",""
"","ITI","","html-keyboard-response","223","195876","0.0-1.0-306.0","0","0","50956","","null","","","null","33","","","","","","","","","","","","","","","NaN",""
"","S1","","html-keyboard-response","224","196138","0.0-1.0-308.0","0","0","50956","","null","","","null","34","","","","","","","","","","","","","","","",""
"","ISI","","html-keyboard-response","225","196293","0.0-1.0-309.0","0","0","50956","","null","","","null","34","NaN","","","","","","","","","","","","","","",""
"","S2","","html-keyboard-response","226","196556","0.0-1.0-310.0","0","0","50956","","null","","","null","34","","NaN","","","","","","","","","","","","","",""
"","response","","html-keyboard-response","227","197736","0.0-1.0-311.0-0.0","0","0","50956","","1176","","","75","34","","","1","34","training","adjacent","BA","2","1","O.jpg","Q.jpg","0","0","1","",""
"","feedback","","html-keyboard-response","228","198742","0.0-1.0-312.0-0.0","0","0","50956","","null","","","null","34","","","","","","","","","","","","","","","",""
"","ITI","","html-keyboard-response","229","199755","0.0-1.0-315.0","0","0","50956","","null","","","null","34","","","","","","","","","","","","","","","NaN",""
"","S1","","html-keyboard-response","230","200018","0.0-1.0-317.0","0","0","50956","","null","","","null","35","","","","","","","","","","","","","","","",""
"","ISI","","html-keyboard-response","231","200187","0.0-1.0-318.0","0","0","50956","","null","","","null","35","NaN","","","","","","","","","","","","","","",""
"","S2","","html-keyboard-response","232","200451","0.0-1.0-319.0","0","0","50956","","null","","","null","35","","NaN","","","","","","","","","","","","","",""
"","response","","html-keyboard-response","233","201009","0.0-1.0-320.0-0.0","0","0","50956","","552","","","68","35","","","1","35","training","adjacent","BC","2","3","O.jpg","L.jpg","1","1","1","",""
"","feedback","","html-keyboard-response","234","202021","0.0-1.0-321.0-0.0","0","0","50956","","null","","","null","35","","","","","","","","","","","","","","","",""
"","ITI","","html-keyboard-response","235","203027","0.0-1.0-324.0","0","0","50956","","null","","","null","35","","","","","","","","","","","","","","","NaN",""
"","S1","","html-keyboard-response","236","203292","0.0-1.0-326.0","0","0","50956","","null","","","null","36","","","","","","","","","","","","","","","",""
"","ISI","","html-keyboard-response","237","203448","0.0-1.0-327.0","0","0","50956","","null","","","null","36","NaN","","","","","","","","","","","","","","",""
"","S2","","html-keyboard-response","238","203715","0.0-1.0-328.0","0","0","50956","","null","","","null","36","","NaN","","","","","","","","","","","","","",""
"","response","","html-keyboard-response","239","204111","0.0-1.0-329.0-0.0","0","0","50956","","393","","","68","36","","","1","36","training","adjacent","FG","6","7","R.jpg","P.jpg","1","1","1","",""
"","feedback","","html-keyboard-response","240","205125","0.0-1.0-330.0-0.0","0","0","50956","","null","","","null","36","","","","","","","","","","","","","","","",""
"","ITI","","html-keyboard-response","241","206135","0.0-1.0-333.0","0","0","50956","","null","","","null","36","","","","","","","","","","","","","","","NaN",""
"","S1","","html-keyboard-response","242","206400","0.0-1.0-335.0","0","0","50956","","null","","","null","37","","","","","","","","","","","","","","","",""
"","ISI","","html-keyboard-response","243","206555","0.0-1.0-336.0","0","0","50956","","null","","","null","37","NaN","","","","","","","","","","","","","","",""
"","S2","","html-keyboard-response","244","206818","0.0-1.0-337.0","0","0","50956","","null","","","null","37","","NaN","","","","","","","","","","","","","",""
"","response","","html-keyboard-response","245","207441","0.0-1.0-338.0-0.0","0","0","50956","","618","","","75","37","","","1","37","training","adjacent","CB","3","2","L.jpg","O.jpg","0","0","1","",""
"","feedback","","html-keyboard-response","246","208449","0.0-1.0-339.0-0.0","0","0","50956","","null","","","null","37","","","","","","","","","","","","","","","",""
"","ITI","","html-keyboard-response","247","209460","0.0-1.0-342.0","0","0","50956","","null","","","null","37","","","","","","","","","","","","","","","NaN",""
"","S1","","html-keyboard-response","248","209725","0.0-1.0-344.0","0","0","50956","","null","","","null","38","","","","","","","","","","","","","","","",""
"","ISI","","html-keyboard-response","249","209894","0.0-1.0-345.0","0","0","50956","","null","","","null","38","NaN","","","","","","","","","","","","","","",""
"","S2","","html-keyboard-response","250","210157","0.0-1.0-346.0","0","0","50956","","null","","","null","38","","NaN","","","","","","","","","","","","","",""
"","response","","html-keyboard-response","251","211016","0.0-1.0-347.0-0.0","0","0","50956","","855","","","68","38","","","1","38","training","adjacent","EF","5","6","M.jpg","R.jpg","1","1","1","",""
"","feedback","","html-keyboard-response","252","212036","0.0-1.0-348.0-0.0","0","0","50956","","null","","","null","38","","","","","","","","","","","","","","","",""
"","ITI","","html-keyboard-response","253","213048","0.0-1.0-351.0","0","0","50956","","null","","","null","38","","","","","","","","","","","","","","","NaN",""
"","S1","","html-keyboard-response","254","213307","0.0-1.0-353.0","0","0","50956","","null","","","null","39","","","","","","","","","","","","","","","",""
"","ISI","","html-keyboard-response","255","213461","0.0-1.0-354.0","0","0","50956","","null","","","null","39","NaN","","","","","","","","","","","","","","",""
"","S2","","html-keyboard-response","256","213724","0.0-1.0-355.0","0","0","50956","","null","","","null","39","","NaN","","","","","","","","","","","","","",""
"","response","","html-keyboard-response","257","214201","0.0-1.0-356.0-0.0","0","0","50956","","471","","","75","39","","","1","39","training","adjacent","ED","5","4","M.jpg","N.jpg","0","0","1","",""
"","feedback","","html-keyboard-response","258","215213","0.0-1.0-357.0-0.0","0","0","50956","","null","","","null","39","","","","","","","","","","","","","","","",""
"","ITI","","html-keyboard-response","259","216222","0.0-1.0-360.0","0","0","50956","","null","","","null","39","","","","","","","","","","","","","","","NaN",""
"","S1","","html-keyboard-response","260","216487","0.0-1.0-362.0","0","0","50956","","null","","","null","40","","","","","","","","","","","","","","","",""
"","ISI","","html-keyboard-response","261","216642","0.0-1.0-363.0","0","0","50956","","null","","","null","40","NaN","","","","","","","","","","","","","","",""
"","S2","","html-keyboard-response","262","216906","0.0-1.0-364.0","0","0","50956","","null","","","null","40","","NaN","","","","","","","","","","","","","",""
"","response","","html-keyboard-response","263","217272","0.0-1.0-365.0-0.0","0","0","50956","","361","","","75","40","","","1","40","training","adjacent","CD","3","4","L.jpg","N.jpg","0","1","0","",""
"","feedback","","html-keyboard-response","264","218291","0.0-1.0-366.0-0.0","0","0","50956","","null","","","null","40","","","","","","","","","","","","","","","",""
"","time_out","","html-keyboard-response","265","220308","0.0-1.0-368.0-0.0","0","0","50956","","null","","","null","40","","","","","","","","","","","","","","","",""
"","ITI","","html-keyboard-response","266","221320","0.0-1.0-369.0","0","0","50956","","null","","","null","40","","","","","","","","","","","","","","","NaN",""
"","S1","","html-keyboard-response","267","221582","0.0-1.0-371.0","0","0","50956","","null","","","null","41","","","","","","","","","","","","","","","",""
"","ISI","","html-keyboard-response","268","221739","0.0-1.0-372.0","0","0","50956","","null","","","null","41","NaN","","","","","","","","","","","","","","",""
"","S2","","html-keyboard-response","269","222006","0.0-1.0-373.0","0","0","50956","","null","","","null","41","","NaN","","","","","","","","","","","","","",""
"","response","","html-keyboard-response","270","222602","0.0-1.0-374.0-0.0","0","0","50956","","591","","","75","41","","","1","41","training","adjacent","CB","3","2","L.jpg","O.jpg","0","0","1","",""
"","feedback","","html-keyboard-response","271","223619","0.0-1.0-375.0-0.0","0","0","50956","","null","","","null","41","","","","","","","","","","","","","","","",""
"","ITI","","html-keyboard-response","272","224630","0.0-1.0-378.0","0","0","50956","","null","","","null","41","","","","","","","","","","","","","","","NaN",""
"","S1","","html-keyboard-response","273","224894","0.0-1.0-380.0","0","0","50956","","null","","","null","42","","","","","","","","","","","","","","","",""
"","ISI","","html-keyboard-response","274","225049","0.0-1.0-381.0","0","0","50956","","null","","","null","42","NaN","","","","","","","","","","","","","","",""
"","S2","","html-keyboard-response","275","225313","0.0-1.0-382.0","0","0","50956","","null","","","null","42","","NaN","","","","","","","","","","","","","",""
"","response","","html-keyboard-response","276","225634","0.0-1.0-383.0-0.0","0","0","50956","","316","","","68","42","","","1","42","training","adjacent","BC","2","3","O.jpg","L.jpg","1","1","1","",""
"","feedback","","html-keyboard-response","277","226650","0.0-1.0-384.0-0.0","0","0","50956","","null","","","null","42","","","","","","","","","","","","","","","",""
"","ITI","","html-keyboard-response","278","227659","0.0-1.0-387.0","0","0","50956","","null","","","null","42","","","","","","","","","","","","","","","NaN",""
"","S1","","html-keyboard-response","279","227923","0.0-1.0-389.0","0","0","50956","","null","","","null","43","","","","","","","","","","","","","","","",""
"","ISI","","html-keyboard-response","280","228076","0.0-1.0-390.0","0","0","50956","","null","","","null","43","NaN","","","","","","","","","","","","","","",""
"","S2","","html-keyboard-response","281","228342","0.0-1.0-391.0","0","0","50956","","null","","","null","43","","NaN","","","","","","","","","","","","","",""
"","response","","html-keyboard-response","282","229248","0.0-1.0-392.0-0.0","0","0","50956","","902","","","75","43","","","1","43","training","adjacent","ED","5","4","M.jpg","N.jpg","0","0","1","",""
"","feedback","","html-keyboard-response","283","230254","0.0-1.0-393.0-0.0","0","0","50956","","null","","","null","43","","","","","","","","","","","","","","","",""
"","ITI","","html-keyboard-response","284","231261","0.0-1.0-396.0","0","0","50956","","null","","","null","43","","","","","","","","","","","","","","","NaN",""
"","S1","","html-keyboard-response","285","231527","0.0-1.0-398.0","0","0","50956","","null","","","null","44","","","","","","","","","","","","","","","",""
"","ISI","","html-keyboard-response","286","231681","0.0-1.0-399.0","0","0","50956","","null","","","null","44","NaN","","","","","","","","","","","","","","",""
"","S2","","html-keyboard-response","287","231945","0.0-1.0-400.0","0","0","50956","","null","","","null","44","","NaN","","","","","","","","","","","","","",""
"","response","","html-keyboard-response","288","232336","0.0-1.0-401.0-0.0","0","0","50956","","387","","","68","44","","","1","44","training","adjacent","FG","6","7","R.jpg","P.jpg","1","1","1","",""
"","feedback","","html-keyboard-response","289","233346","0.0-1.0-402.0-0.0","0","0","50956","","null","","","null","44","","","","","","","","","","","","","","","",""
"","ITI","","html-keyboard-response","290","234355","0.0-1.0-405.0","0","0","50956","","null","","","null","44","","","","","","","","","","","","","","","NaN",""
"","S1","","html-keyboard-response","291","234619","0.0-1.0-407.0","0","0","50956","","null","","","null","45","","","","","","","","","","","","","","","",""
"","ISI","","html-keyboard-response","292","234775","0.0-1.0-408.0","0","0","50956","","null","","","null","45","NaN","","","","","","","","","","","","","","",""
"","S2","","html-keyboard-response","293","235039","0.0-1.0-409.0","0","0","50956","","null","","","null","45","","NaN","","","","","","","","","","","","","",""
"","response","","html-keyboard-response","294","235296","0.0-1.0-410.0-0.0","0","0","50956","","252","","","68","45","","","1","45","training","adjacent","BA","2","1","O.jpg","Q.jpg","1","0","0","",""
"","feedback","","html-keyboard-response","295","236312","0.0-1.0-411.0-0.0","0","0","50956","","null","","","null","45","","","","","","","","","","","","","","","",""
"","time_out","","html-keyboard-response","296","238320","0.0-1.0-413.0-0.0","0","0","50956","","null","","","null","45","","","","","","","","","","","","","","","",""
"","ITI","","html-keyboard-response","297","239330","0.0-1.0-414.0","0","0","50956","","null","","","null","45","","","","","","","","","","","","","","","NaN",""
"","S1","","html-keyboard-response","298","239590","0.0-1.0-416.0","0","0","50956","","null","","","null","46","","","","","","","","","","","","","","","",""
"","ISI","","html-keyboard-response","299","239747","0.0-1.0-417.0","0","0","50956","","null","","","null","46","NaN","","","","","","","","","","","","","","",""
"","S2","","html-keyboard-response","300","240011","0.0-1.0-418.0","0","0","50956","","null","","","null","46","","NaN","","","","","","","","","","","","","",""
"","response","","html-keyboard-response","301","240344","0.0-1.0-419.0-0.0","0","0","50956","","328","","","68","46","","","1","46","training","adjacent","FG","6","7","R.jpg","P.jpg","1","1","1","",""
"","feedback","","html-keyboard-response","302","241352","0.0-1.0-420.0-0.0","0","0","50956","","null","","","null","46","","","","","","","","","","","","","","","",""
"","ITI","","html-keyboard-response","303","242362","0.0-1.0-423.0","0","0","50956","","null","","","null","46","","","","","","","","","","","","","","","NaN",""
"","S1","","html-keyboard-response","304","242626","0.0-1.0-425.0","0","0","50956","","null","","","null","47","","","","","","","","","","","","","","","",""
"","ISI","","html-keyboard-response","305","242782","0.0-1.0-426.0","0","0","50956","","null","","","null","47","NaN","","","","","","","","","","","","","","",""
"","S2","","html-keyboard-response","306","243045","0.0-1.0-427.0","0","0","50956","","null","","","null","47","","NaN","","","","","","","","","","","","","",""
"","response","","html-keyboard-response","307","243584","0.0-1.0-428.0-0.0","0","0","50956","","535","","","75","47","","","1","47","training","adjacent","BA","2","1","O.jpg","Q.jpg","0","0","1","",""
"","feedback","","html-keyboard-response","308","244600","0.0-1.0-429.0-0.0","0","0","50956","","null","","","null","47","","","","","","","","","","","","","","","",""
"","ITI","","html-keyboard-response","309","245608","0.0-1.0-432.0","0","0","50956","","null","","","null","47","","","","","","","","","","","","","","","NaN",""
"","block_over","","html-keyboard-response","310","248169","0.0-1.0-433.0-0.0","0","0","50956","","2554","","","32","47","","","","","","","","","","","","","","","",""
"","S1","","html-keyboard-response","311","248435","0.0-1.0-434.0","0","0","50956","","null","","","null","48","","","","","","","","","","","","","","","",""
"","ISI","","html-keyboard-response","312","248589","0.0-1.0-435.0","0","0","50956","","null","","","null","48","NaN","","","","","","","","","","","","","","",""
"","S2","","html-keyboard-response","313","248853","0.0-1.0-436.0","0","0","50956","","null","","","null","48","","NaN","","","","","","","","","","","","","",""
"","response","","html-keyboard-response","314","250129","0.0-1.0-437.0-0.0","0","0","50956","","1272","","","68","48","","","2","48","training","adjacent","FE","6","5","R.jpg","M.jpg","1","0","0","",""
"","feedback","","html-keyboard-response","315","251149","0.0-1.0-438.0-0.0","0","0","50956","","null","","","null","48","","","","","","","","","","","","","","","",""
"","time_out","","html-keyboard-response","316","253169","0.0-1.0-440.0-0.0","0","0","50956","","null","","","null","48","","","","","","","","","","","","","","","",""
"","ITI","","html-keyboard-response","317","254177","0.0-1.0-441.0","0","0","50956","","null","","","null","48","","","","","","","","","","","","","","","NaN",""
"","S1","","html-keyboard-response","318","254442","0.0-1.0-443.0","0","0","50956","","null","","","null","49","","","","","","","","","","","","","","","",""
"","ISI","","html-keyboard-response","319","254598","0.0-1.0-444.0","0","0","50956","","null","","","null","49","NaN","","","","","","","","","","","","","","",""
"","S2","","html-keyboard-response","320","254862","0.0-1.0-445.0","0","0","50956","","null","","","null","49","","NaN","","","","","","","","","","","","","",""
"","response","","html-keyboard-response","321","255266","0.0-1.0-446.0-0.0","0","0","50956","","400","","","68","49","","","2","49","training","adjacent","FG","6","7","R.jpg","P.jpg","1","1","1","",""
"","feedback","","html-keyboard-response","322","256277","0.0-1.0-447.0-0.0","0","0","50956","","null","","","null","49","","","","","","","","","","","","","","","",""
"","ITI","","html-keyboard-response","323","257289","0.0-1.0-450.0","0","0","50956","","null","","","null","49","","","","","","","","","","","","","","","NaN",""
"","S1","","html-keyboard-response","324","257549","0.0-1.0-452.0","0","0","50956","","null","","","null","50","","","","","","","","","","","","","","","",""
"","ISI","","html-keyboard-response","325","257704","0.0-1.0-453.0","0","0","50956","","null","","","null","50","NaN","","","","","","","","","","","","","","",""
"","S2","","html-keyboard-response","326","257967","0.0-1.0-454.0","0","0","50956","","null","","","null","50","","NaN","","","","","","","","","","","","","",""
"","response","","html-keyboard-response","327","258418","0.0-1.0-455.0-0.0","0","0","50956","","446","","","75","50","","","2","50","training","adjacent","ED","5","4","M.jpg","N.jpg","0","0","1","",""
"","feedback","","html-keyboard-response","328","259425","0.0-1.0-456.0-0.0","0","0","50956","","null","","","null","50","","","","","","","","","","","","","","","",""
"","ITI","","html-keyboard-response","329","260435","0.0-1.0-459.0","0","0","50956","","null","","","null","50","","","","","","","","","","","","","","","NaN",""
"","S1","","html-keyboard-response","330","260699","0.0-1.0-461.0","0","0","50956","","null","","","null","51","","","","","","","","","","","","","","","",""
"","ISI","","html-keyboard-response","331","260856","0.0-1.0-462.0","0","0","50956","","null","","","null","51","NaN","","","","","","","","","","","","","","",""
"","S2","","html-keyboard-response","332","261121","0.0-1.0-463.0","0","0","50956","","null","","","null","51","","NaN","","","","","","","","","","","","","",""
"","response","","html-keyboard-response","333","261488","0.0-1.0-464.0-0.0","0","0","50956","","363","","","75","51","","","2","51","training","adjacent","BA","2","1","O.jpg","Q.jpg","0","0","1","",""
"","feedback","","html-keyboard-response","334","262505","0.0-1.0-465.0-0.0","0","0","50956","","null","","","null","51","","","","","","","","","","","","","","","",""
"","ITI","","html-keyboard-response","335","263515","0.0-1.0-468.0","0","0","50956","","null","","","null","51","","","","","","","","","","","","","","","NaN",""
"","S1","","html-keyboard-response","336","263779","0.0-1.0-470.0","0","0","50956","","null","","","null","52","","","","","","","","","","","","","","","",""
"","ISI","","html-keyboard-response","337","263934","0.0-1.0-471.0","0","0","50956","","null","","","null","52","NaN","","","","","","","","","","","","","","",""
"","S2","","html-keyboard-response","338","264198","0.0-1.0-472.0","0","0","50956","","null","","","null","52","","NaN","","","","","","","","","","","","","",""
"","response","","html-keyboard-response","339","265855","0.0-1.0-473.0-0.0","0","0","50956","","1653","","","75","52","","","2","52","training","adjacent","BC","2","3","O.jpg","L.jpg","0","1","0","",""
"","feedback","","html-keyboard-response","340","266871","0.0-1.0-474.0-0.0","0","0","50956","","null","","","null","52","","","","","","","","","","","","","","","",""
"","time_out","","html-keyboard-response","341","268888","0.0-1.0-476.0-0.0","0","0","50956","","null","","","null","52","","","","","","","","","","","","","","","",""
"","ITI","","html-keyboard-response","342","269896","0.0-1.0-477.0","0","0","50956","","null","","","null","52","","","","","","","","","","","","","","","NaN",""
"","S1","","html-keyboard-response","343","270160","0.0-1.0-479.0","0","0","50956","","null","","","null","53","","","","","","","","","","","","","","","",""
"","ISI","","html-keyboard-response","344","270314","0.0-1.0-480.0","0","0","50956","","null","","","null","53","NaN","","","","","","","","","","","","","","",""
"","S2","","html-keyboard-response","345","270576","0.0-1.0-481.0","0","0","50956","","null","","","null","53","","NaN","","","","","","","","","","","","","",""
"","response","","html-keyboard-response","346","270912","0.0-1.0-482.0-0.0","0","0","50956","","331","","","75","53","","","2","53","training","adjacent","BA","2","1","O.jpg","Q.jpg","0","0","1","",""
"","feedback","","html-keyboard-response","347","271929","0.0-1.0-483.0-0.0","0","0","50956","","null","","","null","53","","","","","","","","","","","","","","","",""
"","ITI","","html-keyboard-response","348","272940","0.0-1.0-486.0","0","0","50956","","null","","","null","53","","","","","","","","","","","","","","","NaN",""
"","S1","","html-keyboard-response","349","273204","0.0-1.0-488.0","0","0","50956","","null","","","null","54","","","","","","","","","","","","","","","",""
"","ISI","","html-keyboard-response","350","273358","0.0-1.0-489.0","0","0","50956","","null","","","null","54","NaN","","","","","","","","","","","","","","",""
"","S2","","html-keyboard-response","351","273621","0.0-1.0-490.0","0","0","50956","","null","","","null","54","","NaN","","","","","","","","","","","","","",""
"","response","","html-keyboard-response","352","274064","0.0-1.0-491.0-0.0","0","0","50956","","438","","","75","54","","","2","54","training","adjacent","FE","6","5","R.jpg","M.jpg","0","0","1","",""
"","feedback","","html-keyboard-response","353","275075","0.0-1.0-492.0-0.0","0","0","50956","","null","","","null","54","","","","","","","","","","","","","","","",""
"","ITI","","html-keyboard-response","354","276087","0.0-1.0-495.0","0","0","50956","","null","","","null","54","","","","","","","","","","","","","","","NaN",""
"","S1","","html-keyboard-response","355","276350","0.0-1.0-497.0","0","0","50956","","null","","","null","55","","","","","","","","","","","","","","","",""
"","ISI","","html-keyboard-response","356","276505","0.0-1.0-498.0","0","0","50956","","null","","","null","55","NaN","","","","","","","","","","","","","","",""
"","S2","","html-keyboard-response","357","276769","0.0-1.0-499.0","0","0","50956","","null","","","null","55","","NaN","","","","","","","","","","","","","",""
"","response","","html-keyboard-response","358","277266","0.0-1.0-500.0-0.0","0","0","50956","","491","","","68","55","","","2","55","training","adjacent","CD","3","4","L.jpg","N.jpg","1","1","1","",""
"","feedback","","html-keyboard-response","359","278274","0.0-1.0-501.0-0.0","0","0","50956","","null","","","null","55","","","","","","","","","","","","","","","",""
"","ITI","","html-keyboard-response","360","279281","0.0-1.0-504.0","0","0","50956","","null","","","null","55","","","","","","","","","","","","","","","NaN",""
"","S1","","html-keyboard-response","361","279547","0.0-1.0-506.0","0","0","50956","","null","","","null","56","","","","","","","","","","","","","","","",""
"","ISI","","html-keyboard-response","362","279705","0.0-1.0-507.0","0","0","50956","","null","","","null","56","NaN","","","","","","","","","","","","","","",""
"","S2","","html-keyboard-response","363","279969","0.0-1.0-508.0","0","0","50956","","null","","","null","56","","NaN","","","","","","","","","","","","","",""
"","response","","html-keyboard-response","364","280281","0.0-1.0-509.0-0.0","0","0","50956","","307","","","68","56","","","2","56","training","adjacent","FG","6","7","R.jpg","P.jpg","1","1","1","",""
"","feedback","","html-keyboard-response","365","281291","0.0-1.0-510.0-0.0","0","0","50956","","null","","","null","56","","","","","","","","","","","","","","","",""
"","ITI","","html-keyboard-response","366","282298","0.0-1.0-513.0","0","0","50956","","null","","","null","56","","","","","","","","","","","","","","","NaN",""
"","S1","","html-keyboard-response","367","282562","0.0-1.0-515.0","0","0","50956","","null","","","null","57","","","","","","","","","","","","","","","",""
"","ISI","","html-keyboard-response","368","282719","0.0-1.0-516.0","0","0","50956","","null","","","null","57","NaN","","","","","","","","","","","","","","",""
"","S2","","html-keyboard-response","369","282982","0.0-1.0-517.0","0","0","50956","","null","","","null","57","","NaN","","","","","","","","","","","","","",""
"","response","","html-keyboard-response","370","283353","0.0-1.0-518.0-0.0","0","0","50956","","366","","","68","57","","","2","57","training","adjacent","EF","5","6","M.jpg","R.jpg","1","1","1","",""
"","feedback","","html-keyboard-response","371","284364","0.0-1.0-519.0-0.0","0","0","50956","","null","","","null","57","","","","","","","","","","","","","","","",""
"","ITI","","html-keyboard-response","372","285373","0.0-1.0-522.0","0","0","50956","","null","","","null","57","","","","","","","","","","","","","","","NaN",""
"","S1","","html-keyboard-response","373","285637","0.0-1.0-524.0","0","0","50956","","null","","","null","58","","","","","","","","","","","","","","","",""
"","ISI","","html-keyboard-response","374","285793","0.0-1.0-525.0","0","0","50956","","null","","","null","58","NaN","","","","","","","","","","","","","","",""
"","S2","","html-keyboard-response","375","286058","0.0-1.0-526.0","0","0","50956","","null","","","null","58","","NaN","","","","","","","","","","","","","",""
"","response","","html-keyboard-response","376","286831","0.0-1.0-527.0-0.0","0","0","50956","","769","","","68","58","","","2","58","training","adjacent","CB","3","2","L.jpg","O.jpg","1","0","0","",""
"","feedback","","html-keyboard-response","377","287841","0.0-1.0-528.0-0.0","0","0","50956","","null","","","null","58","","","","","","","","","","","","","","","",""
"","time_out","","html-keyboard-response","378","289848","0.0-1.0-530.0-0.0","0","0","50956","","null","","","null","58","","","","","","","","","","","","","","","",""
"","ITI","","html-keyboard-response","379","290856","0.0-1.0-531.0","0","0","50956","","null","","","null","58","","","","","","","","","","","","","","","NaN",""
"","S1","","html-keyboard-response","380","291119","0.0-1.0-533.0","0","0","50956","","null","","","null","59","","","","","","","","","","","","","","","",""
"","ISI","","html-keyboard-response","381","291273","0.0-1.0-534.0","0","0","50956","","null","","","null","59","NaN","","","","","","","","","","","","","","",""
"","S2","","html-keyboard-response","382","291538","0.0-1.0-535.0","0","0","50956","","null","","","null","59","","NaN","","","","","","","","","","","","","",""
"","response","","html-keyboard-response","383","292241","0.0-1.0-536.0-0.0","0","0","50956","","699","","","75","59","","","2","59","training","adjacent","DC","4","3","N.jpg","L.jpg","0","0","1","",""
"","feedback","","html-keyboard-response","384","293257","0.0-1.0-537.0-0.0","0","0","50956","","null","","","null","59","","","","","","","","","","","","","","","",""
"","ITI","","html-keyboard-response","385","294266","0.0-1.0-540.0","0","0","50956","","null","","","null","59","","","","","","","","","","","","","","","NaN",""
"","S1","","html-keyboard-response","386","294530","0.0-1.0-542.0","0","0","50956","","null","","","null","60","","","","","","","","","","","","","","","",""
"","ISI","","html-keyboard-response","387","294699","0.0-1.0-543.0","0","0","50956","","null","","","null","60","NaN","","","","","","","","","","","","","","",""
"","S2","","html-keyboard-response","388","294962","0.0-1.0-544.0","0","0","50956","","null","","","null","60","","NaN","","","","","","","","","","","","","",""
"","response","","html-keyboard-response","389","295312","0.0-1.0-545.0-0.0","0","0","50956","","346","","","68","60","","","2","60","training","adjacent","BC","2","3","O.jpg","L.jpg","1","1","1","",""
"","feedback","","html-keyboard-response","390","296331","0.0-1.0-546.0-0.0","0","0","50956","","null","","","null","60","","","","","","","","","","","","","","","",""
"","ITI","","html-keyboard-response","391","297340","0.0-1.0-549.0","0","0","50956","","null","","","null","60","","","","","","","","","","","","","","","NaN",""
"","S1","","html-keyboard-response","392","297605","0.0-1.0-551.0","0","0","50956","","null","","","null","61","","","","","","","","","","","","","","","",""
"","ISI","","html-keyboard-response","393","297759","0.0-1.0-552.0","0","0","50956","","null","","","null","61","NaN","","","","","","","","","","","","","","",""
"","S2","","html-keyboard-response","394","298023","0.0-1.0-553.0","0","0","50956","","null","","","null","61","","NaN","","","","","","","","","","","","","",""
"","response","","html-keyboard-response","395","298874","0.0-1.0-554.0-0.0","0","0","50956","","845","","","68","61","","","2","61","training","adjacent","DE","4","5","N.jpg","M.jpg","1","1","1","",""
"","feedback","","html-keyboard-response","396","299889","0.0-1.0-555.0-0.0","0","0","50956","","null","","","null","61","","","","","","","","","","","","","","","",""
"","ITI","","html-keyboard-response","397","300898","0.0-1.0-558.0","0","0","50956","","null","","","null","61","","","","","","","","","","","","","","","NaN",""
"","S1","","html-keyboard-response","398","301163","0.0-1.0-560.0","0","0","50956","","null","","","null","62","","","","","","","","","","","","","","","",""
"","ISI","","html-keyboard-response","399","301317","0.0-1.0-561.0","0","0","50956","","null","","","null","62","NaN","","","","","","","","","","","","","","",""
"","S2","","html-keyboard-response","400","301581","0.0-1.0-562.0","0","0","50956","","null","","","null","62","","NaN","","","","","","","","","","","","","",""
"","response","","html-keyboard-response","401","302272","0.0-1.0-563.0-0.0","0","0","50956","","688","","","75","62","","","2","62","training","adjacent","CB","3","2","L.jpg","O.jpg","0","0","1","",""
"","feedback","","html-keyboard-response","402","303286","0.0-1.0-564.0-0.0","0","0","50956","","null","","","null","62","","","","","","","","","","","","","","","",""
"","ITI","","html-keyboard-response","403","304294","0.0-1.0-567.0","0","0","50956","","null","","","null","62","","","","","","","","","","","","","","","NaN",""
"","S1","","html-keyboard-response","404","304557","0.0-1.0-569.0","0","0","50956","","null","","","null","63","","","","","","","","","","","","","","","",""
"","ISI","","html-keyboard-response","405","304711","0.0-1.0-570.0","0","0","50956","","null","","","null","63","NaN","","","","","","","","","","","","","","",""
"","S2","","html-keyboard-response","406","304977","0.0-1.0-571.0","0","0","50956","","null","","","null","63","","NaN","","","","","","","","","","","","","",""
"","response","","html-keyboard-response","407","305911","0.0-1.0-572.0-0.0","0","0","50956","","930","","","68","63","","","2","63","training","adjacent","FE","6","5","R.jpg","M.jpg","1","0","0","",""
"","feedback","","html-keyboard-response","408","306916","0.0-1.0-573.0-0.0","0","0","50956","","null","","","null","63","","","","","","","","","","","","","","","",""
"","time_out","","html-keyboard-response","409","308935","0.0-1.0-575.0-0.0","0","0","50956","","null","","","null","63","","","","","","","","","","","","","","","",""
"","ITI","","html-keyboard-response","410","309944","0.0-1.0-576.0","0","0","50956","","null","","","null","63","","","","","","","","","","","","","","","NaN",""
"","S1","","html-keyboard-response","411","310207","0.0-1.0-578.0","0","0","50956","","null","","","null","64","","","","","","","","","","","","","","","",""
"","ISI","","html-keyboard-response","412","310363","0.0-1.0-579.0","0","0","50956","","null","","","null","64","NaN","","","","","","","","","","","","","","",""
"","S2","","html-keyboard-response","413","310625","0.0-1.0-580.0","0","0","50956","","null","","","null","64","","NaN","","","","","","","","","","","","","",""
"","response","","html-keyboard-response","414","311144","0.0-1.0-581.0-0.0","0","0","50956","","515","","","68","64","","","2","64","training","adjacent","BC","2","3","O.jpg","L.jpg","1","1","1","",""
"","feedback","","html-keyboard-response","415","312149","0.0-1.0-582.0-0.0","0","0","50956","","null","","","null","64","","","","","","","","","","","","","","","",""
"","ITI","","html-keyboard-response","416","313161","0.0-1.0-585.0","0","0","50956","","null","","","null","64","","","","","","","","","","","","","","","NaN",""
"","S1","","html-keyboard-response","417","313424","0.0-1.0-587.0","0","0","50956","","null","","","null","65","","","","","","","","","","","","","","","",""
"","ISI","","html-keyboard-response","418","313579","0.0-1.0-588.0","0","0","50956","","null","","","null","65","NaN","","","","","","","","","","","","","","",""
"","S2","","html-keyboard-response","419","313845","0.0-1.0-589.0","0","0","50956","","null","","","null","65","","NaN","","","","","","","","","","","","","",""
"","response","","html-keyboard-response","420","315280","0.0-1.0-590.0-0.0","0","0","50956","","1430","","","75","65","","","2","65","training","adjacent","ED","5","4","M.jpg","N.jpg","0","0","1","",""
"","feedback","","html-keyboard-response","421","316287","0.0-1.0-591.0-0.0","0","0","50956","","null","","","null","65","","","","","","","","","","","","","","","",""
"","ITI","","html-keyboard-response","422","317295","0.0-1.0-594.0","0","0","50956","","null","","","null","65","","","","","","","","","","","","","","","NaN",""
"","S1","","html-keyboard-response","423","317559","0.0-1.0-596.0","0","0","50956","","null","","","null","66","","","","","","","","","","","","","","","",""
"","ISI","","html-keyboard-response","424","317714","0.0-1.0-597.0","0","0","50956","","null","","","null","66","NaN","","","","","","","","","","","","","","",""
"","S2","","html-keyboard-response","425","317979","0.0-1.0-598.0","0","0","50956","","null","","","null","66","","NaN","","","","","","","","","","","","","",""
"","response","","html-keyboard-response","426","318648","0.0-1.0-599.0-0.0","0","0","50956","","666","","","75","66","","","2","66","training","adjacent","GF","7","6","P.jpg","R.jpg","0","0","1","",""
"","feedback","","html-keyboard-response","427","319657","0.0-1.0-600.0-0.0","0","0","50956","","null","","","null","66","","","","","","","","","","","","","","","",""
"","ITI","","html-keyboard-response","428","320669","0.0-1.0-603.0","0","0","50956","","null","","","null","66","","","","","","","","","","","","","","","NaN",""
"","S1","","html-keyboard-response","429","320935","0.0-1.0-605.0","0","0","50956","","null","","","null","67","","","","","","","","","","","","","","","",""
"","ISI","","html-keyboard-response","430","321090","0.0-1.0-606.0","0","0","50956","","null","","","null","67","NaN","","","","","","","","","","","","","","",""
"","S2","","html-keyboard-response","431","321354","0.0-1.0-607.0","0","0","50956","","null","","","null","67","","NaN","","","","","","","","","","","","","",""
"","response","","html-keyboard-response","432","321704","0.0-1.0-608.0-0.0","0","0","50956","","346","","","68","67","","","2","67","training","adjacent","FG","6","7","R.jpg","P.jpg","1","1","1","",""
"","feedback","","html-keyboard-response","433","322719","0.0-1.0-609.0-0.0","0","0","50956","","null","","","null","67","","","","","","","","","","","","","","","",""
"","ITI","","html-keyboard-response","434","323729","0.0-1.0-612.0","0","0","50956","","null","","","null","67","","","","","","","","","","","","","","","NaN",""
"","S1","","html-keyboard-response","435","323994","0.0-1.0-614.0","0","0","50956","","null","","","null","68","","","","","","","","","","","","","","","",""
"","ISI","","html-keyboard-response","436","324148","0.0-1.0-615.0","0","0","50956","","null","","","null","68","NaN","","","","","","","","","","","","","","",""
"","S2","","html-keyboard-response","437","324414","0.0-1.0-616.0","0","0","50956","","null","","","null","68","","NaN","","","","","","","","","","","","","",""
"","response","","html-keyboard-response","438","325280","0.0-1.0-617.0-0.0","0","0","50956","","861","","","75","68","","","2","68","training","adjacent","ED","5","4","M.jpg","N.jpg","0","0","1","",""
"","feedback","","html-keyboard-response","439","326292","0.0-1.0-618.0-0.0","0","0","50956","","null","","","null","68","","","","","","","","","","","","","","","",""
"","ITI","","html-keyboard-response","440","327304","0.0-1.0-621.0","0","0","50956","","null","","","null","68","","","","","","","","","","","","","","","NaN",""
"","S1","","html-keyboard-response","441","327571","0.0-1.0-623.0","0","0","50956","","null","","","null","69","","","","","","","","","","","","","","","",""
"","ISI","","html-keyboard-response","442","327725","0.0-1.0-624.0","0","0","50956","","null","","","null","69","NaN","","","","","","","","","","","","","","",""
"","S2","","html-keyboard-response","443","327989","0.0-1.0-625.0","0","0","50956","","null","","","null","69","","NaN","","","","","","","","","","","","","",""
"","response","","html-keyboard-response","444","328152","0.0-1.0-626.0-0.0","0","0","50956","","159","","","68","69","","","2","69","training","adjacent","AB","1","2","Q.jpg","O.jpg","1","1","1","",""
"","feedback","","html-keyboard-response","445","329172","0.0-1.0-627.0-0.0","0","0","50956","","null","","","null","69","","","","","","","","","","","","","","","",""
"","ITI","","html-keyboard-response","446","330182","0.0-1.0-630.0","0","0","50956","","null","","","null","69","","","","","","","","","","","","","","","NaN",""
"","S1","","html-keyboard-response","447","330448","0.0-1.0-632.0","0","0","50956","","null","","","null","70","","","","","","","","","","","","","","","",""
"","ISI","","html-keyboard-response","448","330603","0.0-1.0-633.0","0","0","50956","","null","","","null","70","NaN","","","","","","","","","","","","","","",""
"","S2","","html-keyboard-response","449","330866","0.0-1.0-634.0","0","0","50956","","null","","","null","70","","NaN","","","","","","","","","","","","","",""
"","response","","html-keyboard-response","450","331632","0.0-1.0-635.0-0.0","0","0","50956","","760","","","68","70","","","2","70","training","adjacent","DE","4","5","N.jpg","M.jpg","1","1","1","",""
"","feedback","","html-keyboard-response","451","332652","0.0-1.0-636.0-0.0","0","0","50956","","null","","","null","70","","","","","","","","","","","","","","","",""
"","ITI","","html-keyboard-response","452","333661","0.0-1.0-639.0","0","0","50956","","null","","","null","70","","","","","","","","","","","","","","","NaN",""
"","S1","","html-keyboard-response","453","333922","0.0-1.0-641.0","0","0","50956","","null","","","null","71","","","","","","","","","","","","","","","",""
"","ISI","","html-keyboard-response","454","334078","0.0-1.0-642.0","0","0","50956","","null","","","null","71","NaN","","","","","","","","","","","","","","",""
"","S2","","html-keyboard-response","455","334341","0.0-1.0-643.0","0","0","50956","","null","","","null","71","","NaN","","","","","","","","","","","","","",""
"","response","","html-keyboard-response","456","334746","0.0-1.0-644.0-0.0","0","0","50956","","400","","","75","71","","","2","71","training","adjacent","DC","4","3","N.jpg","L.jpg","0","0","1","",""
"","feedback","","html-keyboard-response","457","335755","0.0-1.0-645.0-0.0","0","0","50956","","null","","","null","71","","","","","","","","","","","","","","","",""
"","ITI","","html-keyboard-response","458","336767","0.0-1.0-648.0","0","0","50956","","null","","","null","71","","","","","","","","","","","","","","","NaN",""
"","S1","","html-keyboard-response","459","337031","0.0-1.0-650.0","0","0","50956","","null","","","null","72","","","","","","","","","","","","","","","",""
"","ISI","","html-keyboard-response","460","337187","0.0-1.0-651.0","0","0","50956","","null","","","null","72","NaN","","","","","","","","","","","","","","",""
"","S2","","html-keyboard-response","461","337449","0.0-1.0-652.0","0","0","50956","","null","","","null","72","","NaN","","","","","","","","","","","","","",""
"","response","","html-keyboard-response","462","338056","0.0-1.0-653.0-0.0","0","0","50956","","603","","","68","72","","","2","72","training","adjacent","BC","2","3","O.jpg","L.jpg","1","1","1","",""
"","feedback","","html-keyboard-response","463","339066","0.0-1.0-654.0-0.0","0","0","50956","","null","","","null","72","","","","","","","","","","","","","","","",""
"","ITI","","html-keyboard-response","464","340077","0.0-1.0-657.0","0","0","50956","","null","","","null","72","","","","","","","","","","","","","","","NaN",""
"","S1","","html-keyboard-response","465","340341","0.0-1.0-659.0","0","0","50956","","null","","","null","73","","","","","","","","","","","","","","","",""
"","ISI","","html-keyboard-response","466","340497","0.0-1.0-660.0","0","0","50956","","null","","","null","73","NaN","","","","","","","","","","","","","","",""
"","S2","","html-keyboard-response","467","340761","0.0-1.0-661.0","0","0","50956","","null","","","null","73","","NaN","","","","","","","","","","","","","",""
"","response","","html-keyboard-response","468","340953","0.0-1.0-662.0-0.0","0","0","50956","","186","","","68","73","","","2","73","training","adjacent","AB","1","2","Q.jpg","O.jpg","1","1","1","",""
"","feedback","","html-keyboard-response","469","341973","0.0-1.0-663.0-0.0","0","0","50956","","null","","","null","73","","","","","","","","","","","","","","","",""
"","ITI","","html-keyboard-response","470","342983","0.0-1.0-666.0","0","0","50956","","null","","","null","73","","","","","","","","","","","","","","","NaN",""
"","S1","","html-keyboard-response","471","343248","0.0-1.0-668.0","0","0","50956","","null","","","null","74","","","","","","","","","","","","","","","",""
"","ISI","","html-keyboard-response","472","343417","0.0-1.0-669.0","0","0","50956","","null","","","null","74","NaN","","","","","","","","","","","","","","",""
"","S2","","html-keyboard-response","473","343680","0.0-1.0-670.0","0","0","50956","","null","","","null","74","","NaN","","","","","","","","","","","","","",""
"","response","","html-keyboard-response","474","344017","0.0-1.0-671.0-0.0","0","0","50956","","332","","","68","74","","","2","74","training","adjacent","EF","5","6","M.jpg","R.jpg","1","1","1","",""
"","feedback","","html-keyboard-response","475","345030","0.0-1.0-672.0-0.0","0","0","50956","","null","","","null","74","","","","","","","","","","","","","","","",""
"","ITI","","html-keyboard-response","476","346042","0.0-1.0-675.0","0","0","50956","","null","","","null","74","","","","","","","","","","","","","","","NaN",""
"","S1","","html-keyboard-response","477","346305","0.0-1.0-677.0","0","0","50956","","null","","","null","75","","","","","","","","","","","","","","","",""
"","ISI","","html-keyboard-response","478","346461","0.0-1.0-678.0","0","0","50956","","null","","","null","75","NaN","","","","","","","","","","","","","","",""
"","S2","","html-keyboard-response","479","346726","0.0-1.0-679.0","0","0","50956","","null","","","null","75","","NaN","","","","","","","","","","","","","",""
"","response","","html-keyboard-response","480","347001","0.0-1.0-680.0-0.0","0","0","50956","","270","","","75","75","","","2","75","training","adjacent","CB","3","2","L.jpg","O.jpg","0","0","1","",""
"","feedback","","html-keyboard-response","481","348015","0.0-1.0-681.0-0.0","0","0","50956","","null","","","null","75","","","","","","","","","","","","","","","",""
"","ITI","","html-keyboard-response","482","349028","0.0-1.0-684.0","0","0","50956","","null","","","null","75","","","","","","","","","","","","","","","NaN",""
"","S1","","html-keyboard-response","483","349293","0.0-1.0-686.0","0","0","50956","","null","","","null","76","","","","","","","","","","","","","","","",""
"","ISI","","html-keyboard-response","484","349449","0.0-1.0-687.0","0","0","50956","","null","","","null","76","NaN","","","","","","","","","","","","","","",""
"","S2","","html-keyboard-response","485","349711","0.0-1.0-688.0","0","0","50956","","null","","","null","76","","NaN","","","","","","","","","","","","","",""
"","response","","html-keyboard-response","486","350569","0.0-1.0-689.0-0.0","0","0","50956","","853","","","75","76","","","2","76","training","adjacent","ED","5","4","M.jpg","N.jpg","0","0","1","",""
"","feedback","","html-keyboard-response","487","351577","0.0-1.0-690.0-0.0","0","0","50956","","null","","","null","76","","","","","","","","","","","","","","","",""
"","ITI","","html-keyboard-response","488","352587","0.0-1.0-693.0","0","0","50956","","null","","","null","76","","","","","","","","","","","","","","","NaN",""
"","S1","","html-keyboard-response","489","352850","0.0-1.0-695.0","0","0","50956","","null","","","null","77","","","","","","","","","","","","","","","",""
"","ISI","","html-keyboard-response","490","353003","0.0-1.0-696.0","0","0","50956","","null","","","null","77","NaN","","","","","","","","","","","","","","",""
"","S2","","html-keyboard-response","491","353272","0.0-1.0-697.0","0","0","50956","","null","","","null","77","","NaN","","","","","","","","","","","","","",""
"","response","","html-keyboard-response","492","353587","0.0-1.0-698.0-0.0","0","0","50956","","311","","","68","77","","","2","77","training","adjacent","EF","5","6","M.jpg","R.jpg","1","1","1","",""
"","feedback","","html-keyboard-response","493","354607","0.0-1.0-699.0-0.0","0","0","50956","","null","","","null","77","","","","","","","","","","","","","","","",""
"","ITI","","html-keyboard-response","494","355613","0.0-1.0-702.0","0","0","50956","","null","","","null","77","","","","","","","","","","","","","","","NaN",""
"","S1","","html-keyboard-response","495","355877","0.0-1.0-704.0","0","0","50956","","null","","","null","78","","","","","","","","","","","","","","","",""
"","ISI","","html-keyboard-response","496","356031","0.0-1.0-705.0","0","0","50956","","null","","","null","78","NaN","","","","","","","","","","","","","","",""
"","S2","","html-keyboard-response","497","356297","0.0-1.0-706.0","0","0","50956","","null","","","null","78","","NaN","","","","","","","","","","","","","",""
"","response","","html-keyboard-response","498","356615","0.0-1.0-707.0-0.0","0","0","50956","","313","","","68","78","","","2","78","training","adjacent","EF","5","6","M.jpg","R.jpg","1","1","1","",""
"","feedback","","html-keyboard-response","499","357634","0.0-1.0-708.0-0.0","0","0","50956","","null","","","null","78","","","","","","","","","","","","","","","",""
"","ITI","","html-keyboard-response","500","358644","0.0-1.0-711.0","0","0","50956","","null","","","null","78","","","","","","","","","","","","","","","NaN",""
"","S1","","html-keyboard-response","501","358910","0.0-1.0-713.0","0","0","50956","","null","","","null","79","","","","","","","","","","","","","","","",""
"","ISI","","html-keyboard-response","502","359064","0.0-1.0-714.0","0","0","50956","","null","","","null","79","NaN","","","","","","","","","","","","","","",""
"","S2","","html-keyboard-response","503","359329","0.0-1.0-715.0","0","0","50956","","null","","","null","79","","NaN","","","","","","","","","","","","","",""
"","response","","html-keyboard-response","504","359379","0.0-1.0-716.0-0.0","0","0","50956","","44","","","68","79","","","2","79","training","adjacent","AB","1","2","Q.jpg","O.jpg","1","1","1","",""
"","feedback","","html-keyboard-response","505","360395","0.0-1.0-717.0-0.0","0","0","50956","","null","","","null","79","","","","","","","","","","","","","","","",""
"","ITI","","html-keyboard-response","506","361406","0.0-1.0-720.0","0","0","50956","","null","","","null","79","","","","","","","","","","","","","","","NaN",""
"","S1","","html-keyboard-response","507","361670","0.0-1.0-722.0","0","0","50956","","null","","","null","80","","","","","","","","","","","","","","","",""
"","ISI","","html-keyboard-response","508","361824","0.0-1.0-723.0","0","0","50956","","null","","","null","80","NaN","","","","","","","","","","","","","","",""
"","S2","","html-keyboard-response","509","362089","0.0-1.0-724.0","0","0","50956","","null","","","null","80","","NaN","","","","","","","","","","","","","",""
"","response","","html-keyboard-response","510","362552","0.0-1.0-725.0-0.0","0","0","50956","","460","","","68","80","","","2","80","training","adjacent","DE","4","5","N.jpg","M.jpg","1","1","1","",""
"","feedback","","html-keyboard-response","511","363569","0.0-1.0-726.0-0.0","0","0","50956","","null","","","null","80","","","","","","","","","","","","","","","",""
"","ITI","","html-keyboard-response","512","364576","0.0-1.0-729.0","0","0","50956","","null","","","null","80","","","","","","","","","","","","","","","NaN",""
"","S1","","html-keyboard-response","513","364840","0.0-1.0-731.0","0","0","50956","","null","","","null","81","","","","","","","","","","","","","","","",""
"","ISI","","html-keyboard-response","514","364995","0.0-1.0-732.0","0","0","50956","","null","","","null","81","NaN","","","","","","","","","","","","","","",""
"","S2","","html-keyboard-response","515","365260","0.0-1.0-733.0","0","0","50956","","null","","","null","81","","NaN","","","","","","","","","","","","","",""
"","response","","html-keyboard-response","516","365344","0.0-1.0-734.0-0.0","0","0","50956","","80","","","75","81","","","2","81","training","adjacent","GF","7","6","P.jpg","R.jpg","0","0","1","",""
"","feedback","","html-keyboard-response","517","366349","0.0-1.0-735.0-0.0","0","0","50956","","null","","","null","81","","","","","","","","","","","","","","","",""
"","ITI","","html-keyboard-response","518","367355","0.0-1.0-738.0","0","0","50956","","null","","","null","81","","","","","","","","","","","","","","","NaN",""
"","S1","","html-keyboard-response","519","367620","0.0-1.0-740.0","0","0","50956","","null","","","null","82","","","","","","","","","","","","","","","",""
"","ISI","","html-keyboard-response","520","367775","0.0-1.0-741.0","0","0","50956","","null","","","null","82","NaN","","","","","","","","","","","","","","",""
"","S2","","html-keyboard-response","521","368039","0.0-1.0-742.0","0","0","50956","","null","","","null","82","","NaN","","","","","","","","","","","","","",""
"","response","","html-keyboard-response","522","368089","0.0-1.0-743.0-0.0","0","0","50956","","46","","","75","82","","","2","82","training","adjacent","GF","7","6","P.jpg","R.jpg","0","0","1","",""
"","feedback","","html-keyboard-response","523","369108","0.0-1.0-744.0-0.0","0","0","50956","","null","","","null","82","","","","","","","","","","","","","","","",""
"","ITI","","html-keyboard-response","524","370118","0.0-1.0-747.0","0","0","50956","","null","","","null","82","","","","","","","","","","","","","","","NaN",""
"","S1","","html-keyboard-response","525","370382","0.0-1.0-749.0","0","0","50956","","null","","","null","83","","","","","","","","","","","","","","","",""
"","ISI","","html-keyboard-response","526","370538","0.0-1.0-750.0","0","0","50956","","null","","","null","83","NaN","","","","","","","","","","","","","","",""
"","S2","","html-keyboard-response","527","370801","0.0-1.0-751.0","0","0","50956","","null","","","null","83","","NaN","","","","","","","","","","","","","",""
"","response","","html-keyboard-response","528","370841","0.0-1.0-752.0-0.0","0","0","50956","","35","","","68","83","","","2","83","training","adjacent","AB","1","2","Q.jpg","O.jpg","1","1","1","",""
"","feedback","","html-keyboard-response","529","371858","0.0-1.0-753.0-0.0","0","0","50956","","null","","","null","83","","","","","","","","","","","","","","","",""
"","ITI","","html-keyboard-response","530","372870","0.0-1.0-756.0","0","0","50956","","null","","","null","83","","","","","","","","","","","","","","","NaN",""
"","S1","","html-keyboard-response","531","373133","0.0-1.0-758.0","0","0","50956","","null","","","null","84","","","","","","","","","","","","","","","",""
"","ISI","","html-keyboard-response","532","373290","0.0-1.0-759.0","0","0","50956","","null","","","null","84","NaN","","","","","","","","","","","","","","",""
"","S2","","html-keyboard-response","533","373555","0.0-1.0-760.0","0","0","50956","","null","","","null","84","","NaN","","","","","","","","","","","","","",""
"","response","","html-keyboard-response","534","373867","0.0-1.0-761.0-0.0","0","0","50956","","307","","","75","84","","","2","84","training","adjacent","BA","2","1","O.jpg","Q.jpg","0","0","1","",""
"","feedback","","html-keyboard-response","535","374875","0.0-1.0-762.0-0.0","0","0","50956","","null","","","null","84","","","","","","","","","","","","","","","",""
"","ITI","","html-keyboard-response","536","375886","0.0-1.0-765.0","0","0","50956","","null","","","null","84","","","","","","","","","","","","","","","NaN",""
"","S1","","html-keyboard-response","537","376148","0.0-1.0-767.0","0","0","50956","","null","","","null","85","","","","","","","","","","","","","","","",""
"","ISI","","html-keyboard-response","538","376304","0.0-1.0-768.0","0","0","50956","","null","","","null","85","NaN","","","","","","","","","","","","","","",""
"","S2","","html-keyboard-response","539","376569","0.0-1.0-769.0","0","0","50956","","null","","","null","85","","NaN","","","","","","","","","","","","","",""
"","response","","html-keyboard-response","540","376881","0.0-1.0-770.0-0.0","0","0","50956","","307","","","68","85","","","2","85","training","adjacent","FG","6","7","R.jpg","P.jpg","1","1","1","",""
"","feedback","","html-keyboard-response","541","377891","0.0-1.0-771.0-0.0","0","0","50956","","null","","","null","85","","","","","","","","","","","","","","","",""
"","ITI","","html-keyboard-response","542","378903","0.0-1.0-774.0","0","0","50956","","null","","","null","85","","","","","","","","","","","","","","","NaN",""
"","S1","","html-keyboard-response","543","379164","0.0-1.0-776.0","0","0","50956","","null","","","null","86","","","","","","","","","","","","","","","",""
"","ISI","","html-keyboard-response","544","379322","0.0-1.0-777.0","0","0","50956","","null","","","null","86","NaN","","","","","","","","","","","","","","",""
"","S2","","html-keyboard-response","545","379586","0.0-1.0-778.0","0","0","50956","","null","","","null","86","","NaN","","","","","","","","","","","","","",""
"","response","","html-keyboard-response","546","379873","0.0-1.0-779.0-0.0","0","0","50956","","282","","","68","86","","","2","86","training","adjacent","CD","3","4","L.jpg","N.jpg","1","1","1","",""
"","feedback","","html-keyboard-response","547","380890","0.0-1.0-780.0-0.0","0","0","50956","","null","","","null","86","","","","","","","","","","","","","","","",""
"","ITI","","html-keyboard-response","548","381899","0.0-1.0-783.0","0","0","50956","","null","","","null","86","","","","","","","","","","","","","","","NaN",""
"","S1","","html-keyboard-response","549","382164","0.0-1.0-785.0","0","0","50956","","null","","","null","87","","","","","","","","","","","","","","","",""
"","ISI","","html-keyboard-response","550","382318","0.0-1.0-786.0","0","0","50956","","null","","","null","87","NaN","","","","","","","","","","","","","","",""
"","S2","","html-keyboard-response","551","382581","0.0-1.0-787.0","0","0","50956","","null","","","null","87","","NaN","","","","","","","","","","","","","",""
"","response","","html-keyboard-response","552","382937","0.0-1.0-788.0-0.0","0","0","50956","","351","","","75","87","","","2","87","training","adjacent","BA","2","1","O.jpg","Q.jpg","0","0","1","",""
"","feedback","","html-keyboard-response","553","383949","0.0-1.0-789.0-0.0","0","0","50956","","null","","","null","87","","","","","","","","","","","","","","","",""
"","ITI","","html-keyboard-response","554","384958","0.0-1.0-792.0","0","0","50956","","null","","","null","87","","","","","","","","","","","","","","","NaN",""
"","S1","","html-keyboard-response","555","385223","0.0-1.0-794.0","0","0","50956","","null","","","null","88","","","","","","","","","","","","","","","",""
"","ISI","","html-keyboard-response","556","385391","0.0-1.0-795.0","0","0","50956","","null","","","null","88","NaN","","","","","","","","","","","","","","",""
"","S2","","html-keyboard-response","557","385656","0.0-1.0-796.0","0","0","50956","","null","","","null","88","","NaN","","","","","","","","","","","","","",""
"","response","","html-keyboard-response","558","385825","0.0-1.0-797.0-0.0","0","0","50956","","164","","","75","88","","","2","88","training","adjacent","DC","4","3","N.jpg","L.jpg","0","0","1","",""
"","feedback","","html-keyboard-response","559","386833","0.0-1.0-798.0-0.0","0","0","50956","","null","","","null","88","","","","","","","","","","","","","","","",""
"","ITI","","html-keyboard-response","560","387845","0.0-1.0-801.0","0","0","50956","","null","","","null","88","","","","","","","","","","","","","","","NaN",""
"","S1","","html-keyboard-response","561","388111","0.0-1.0-803.0","0","0","50956","","null","","","null","89","","","","","","","","","","","","","","","",""
"","ISI","","html-keyboard-response","562","388267","0.0-1.0-804.0","0","0","50956","","null","","","null","89","NaN","","","","","","","","","","","","","","",""
"","S2","","html-keyboard-response","563","388530","0.0-1.0-805.0","0","0","50956","","null","","","null","89","","NaN","","","","","","","","","","","","","",""
"","response","","html-keyboard-response","564","388616","0.0-1.0-806.0-0.0","0","0","50956","","81","","","75","89","","","2","89","training","adjacent","GF","7","6","P.jpg","R.jpg","0","0","1","",""
"","feedback","","html-keyboard-response","565","389632","0.0-1.0-807.0-0.0","0","0","50956","","null","","","null","89","","","","","","","","","","","","","","","",""
"","ITI","","html-keyboard-response","566","390641","0.0-1.0-810.0","0","0","50956","","null","","","null","89","","","","","","","","","","","","","","","NaN",""
"","S1","","html-keyboard-response","567","390905","0.0-1.0-812.0","0","0","50956","","null","","","null","90","","","","","","","","","","","","","","","",""
"","ISI","","html-keyboard-response","568","391060","0.0-1.0-813.0","0","0","50956","","null","","","null","90","NaN","","","","","","","","","","","","","","",""
"","S2","","html-keyboard-response","569","391324","0.0-1.0-814.0","0","0","50956","","null","","","null","90","","NaN","","","","","","","","","","","","","",""
"","response","","html-keyboard-response","570","391841","0.0-1.0-815.0-0.0","0","0","50956","","512","","","75","90","","","2","90","training","adjacent","FE","6","5","R.jpg","M.jpg","0","0","1","",""
"","feedback","","html-keyboard-response","571","392852","0.0-1.0-816.0-0.0","0","0","50956","","null","","","null","90","","","","","","","","","","","","","","","",""
"","ITI","","html-keyboard-response","572","393877","0.0-1.0-819.0","0","0","50956","","null","","","null","90","","","","","","","","","","","","","","","NaN",""
"","S1","","html-keyboard-response","573","394138","0.0-1.0-821.0","0","0","50956","","null","","","null","91","","","","","","","","","","","","","","","",""
"","ISI","","html-keyboard-response","574","394292","0.0-1.0-822.0","0","0","50956","","null","","","null","91","NaN","","","","","","","","","","","","","","",""
"","S2","","html-keyboard-response","575","394556","0.0-1.0-823.0","0","0","50956","","null","","","null","91","","NaN","","","","","","","","","","","","","",""
"","response","","html-keyboard-response","576","394865","0.0-1.0-824.0-0.0","0","0","50956","","304","","","75","91","","","2","91","training","adjacent","DC","4","3","N.jpg","L.jpg","0","0","1","",""
"","feedback","","html-keyboard-response","577","395874","0.0-1.0-825.0-0.0","0","0","50956","","null","","","null","91","","","","","","","","","","","","","","","",""
"","ITI","","html-keyboard-response","578","396884","0.0-1.0-828.0","0","0","50956","","null","","","null","91","","","","","","","","","","","","","","","NaN",""
"","S1","","html-keyboard-response","579","397146","0.0-1.0-830.0","0","0","50956","","null","","","null","92","","","","","","","","","","","","","","","",""
"","ISI","","html-keyboard-response","580","397303","0.0-1.0-831.0","0","0","50956","","null","","","null","92","NaN","","","","","","","","","","","","","","",""
"","S2","","html-keyboard-response","581","397566","0.0-1.0-832.0","0","0","50956","","null","","","null","92","","NaN","","","","","","","","","","","","","",""
