"success","ttype","start_time","trial_type","trial_index","time_elapsed","internal_node_id","warning","missed_checkup","PID","view_history","rt","responses","repeat_instructions","key_press","index","keypress_isi","keypress_S2","block","trial_num","phase","group_type","pair_type","S1_stim","S2_stim","S1_img","S2_img","S1_chosen","S1_higher","accuracy","keypress_iti","total_bonus_tally"
"true","full_screen","d04142023hr2258","fullscreen","0","12671","0.0-0.0","0","0","60727","","","","","","","","","","","","","","","","","","","","","",""
"","instructions","","instructions","1","51550","0.0-1.0-0.0-0.0","0","0","60727","[{""page_index"":0,""viewing_time"":6114},{""page_index"":1,""viewing_time"":16071},{""page_index"":2,""viewing_time"":13839},{""page_index"":3,""viewing_time"":2850}]","38875","","","","","","","","","","","","","","","","","","","",""
"","comprehension_check","","survey-multi-choice","2","72505","0.0-1.0-0.0-1.0","0","0","60727","","20945","{""Q0"":""True"",""Q1"":""D"",""Q2"":""Once the second image appears and while the screen 'MAKE A CHOICE' is shown"",""Q3"":""Green mark"",""Q4"":""either D or K""}","1","","","","","","","","","","","","","","","","","",""
"","missed_instruction_checkup","","html-keyboard-response","3","74648","0.0-1.0-0.0-2.0-0.0","0","1","60727","","2137","","","32","","","","","","","","","","","","","","","","",""
"","instructions","","instructions","4","112738","0.0-1.0-0.1-0.1","0","0","60727","[{""page_index"":0,""viewing_time"":5116},{""page_index"":1,""viewing_time"":28684},{""page_index"":2,""viewing_time"":3184},{""page_index"":3,""viewing_time"":1100}]","38084","","","","","","","","","","","","","","","","","","","",""
"","comprehension_check","","survey-multi-choice","5","123238","0.0-1.0-0.1-1.1","0","0","60727","","10494","{""Q0"":""True"",""Q1"":""K"",""Q2"":""Once the second image appears and while the screen 'MAKE A CHOICE' is shown"",""Q3"":""Green mark"",""Q4"":""either D or K""}","0","","","","","","","","","","","","","","","","","",""
"","start_exp","","html-keyboard-response","6","125423","0.0-1.0-1.0","0","0","60727","","2181","","","32","","","","","","","","","","","","","","","","",""
"","S1","","html-keyboard-response","7","125689","0.0-1.0-2.0","0","0","60727","","null","","","null","0","","","","","","","","","","","","","","","",""
"","ISI","","html-keyboard-response","8","126705","0.0-1.0-3.0","0","0","60727","","null","","","null","0","NaN","","","","","","","","","","","","","","",""
"","S2","","html-keyboard-response","9","126968","0.0-1.0-4.0","0","0","60727","","null","","","null","0","","NaN","","","","","","","","","","","","","",""
"","response","","html-keyboard-response","10","127085","0.0-1.0-5.0-0.0","0","0","60727","","112","","","75","0","","","1","0","training","adjacent","BA","2","1","P.jpg","L.jpg","1","0","0","",""
"","feedback","","html-keyboard-response","11","128095","0.0-1.0-6.0-0.0","0","0","60727","","null","","","null","0","","","","","","","","","","","","","","","",""
"","time_out","","html-keyboard-response","12","130104","0.0-1.0-8.0-0.0","0","0","60727","","null","","","null","0","","","","","","","","","","","","","","","",""
"","ITI","","html-keyboard-response","13","131118","0.0-1.0-9.0","0","0","60727","","null","","","null","0","","","","","","","","","","","","","","","NaN",""
"","S1","","html-keyboard-response","14","131384","0.0-1.0-11.0","0","0","60727","","null","","","null","1","","","","","","","","","","","","","","","",""
"","ISI","","html-keyboard-response","15","132399","0.0-1.0-12.0","0","0","60727","","null","","","null","1","NaN","","","","","","","","","","","","","","",""
"","S2","","html-keyboard-response","16","132664","0.0-1.0-13.0","0","0","60727","","null","","","null","1","","NaN","","","","","","","","","","","","","",""
"","response","","html-keyboard-response","17","132973","0.0-1.0-14.0-0.0","0","0","60727","","305","","","68","1","","","1","1","training","adjacent","CD","3","4","O.jpg","R.jpg","0","1","0","",""
"","feedback","","html-keyboard-response","18","133981","0.0-1.0-15.0-0.0","0","0","60727","","null","","","null","1","","","","","","","","","","","","","","","",""
"","time_out","","html-keyboard-response","19","135992","0.0-1.0-17.0-0.0","0","0","60727","","null","","","null","1","","","","","","","","","","","","","","","",""
"","ITI","","html-keyboard-response","20","137006","0.0-1.0-18.0","0","0","60727","","null","","","null","1","","","","","","","","","","","","","","","NaN",""
"","S1","","html-keyboard-response","21","137272","0.0-1.0-20.0","0","0","60727","","null","","","null","2","","","","","","","","","","","","","","","",""
"","ISI","","html-keyboard-response","22","138285","0.0-1.0-21.0","0","0","60727","","null","","","null","2","NaN","","","","","","","","","","","","","","",""
"","S2","","html-keyboard-response","23","138552","0.0-1.0-22.0","0","0","60727","","null","","","null","2","","NaN","","","","","","","","","","","","","",""
"","response","","html-keyboard-response","24","138701","0.0-1.0-23.0-0.0","0","0","60727","","146","","","75","2","","","1","2","training","adjacent","CB","3","2","O.jpg","P.jpg","1","0","0","",""
"","feedback","","html-keyboard-response","25","139709","0.0-1.0-24.0-0.0","0","0","60727","","null","","","null","2","","","","","","","","","","","","","","","",""
"","time_out","","html-keyboard-response","26","141721","0.0-1.0-26.0-0.0","0","0","60727","","null","","","null","2","","","","","","","","","","","","","","","",""
"","ITI","","html-keyboard-response","27","142736","0.0-1.0-27.0","0","0","60727","","null","","","null","2","","","","","","","","","","","","","","","NaN",""
"","S1","","html-keyboard-response","28","143000","0.0-1.0-29.0","0","0","60727","","null","","","null","3","","","","","","","","","","","","","","","",""
"","ISI","","html-keyboard-response","29","144013","0.0-1.0-30.0","0","0","60727","","null","","","null","3","NaN","","","","","","","","","","","","","","",""
"","S2","","html-keyboard-response","30","144280","0.0-1.0-31.0","0","0","60727","","null","","","null","3","","NaN","","","","","","","","","","","","","",""
"","response","","html-keyboard-response","31","144417","0.0-1.0-32.0-0.0","0","0","60727","","134","","","75","3","","","1","3","training","adjacent","ED","5","4","Q.jpg","R.jpg","1","0","0","",""
"","feedback","","html-keyboard-response","32","145432","0.0-1.0-33.0-0.0","0","0","60727","","null","","","null","3","","","","","","","","","","","","","","","",""
"","time_out","","html-keyboard-response","33","147448","0.0-1.0-35.0-0.0","0","0","60727","","null","","","null","3","","","","","","","","","","","","","","","",""
"","ITI","","html-keyboard-response","34","148461","0.0-1.0-36.0","0","0","60727","","null","","","null","3","","","","","","","","","","","","","","","NaN",""
"","S1","","html-keyboard-response","35","148728","0.0-1.0-38.0","0","0","60727","","null","","","null","4","","","","","","","","","","","","","","","",""
"","ISI","","html-keyboard-response","36","149741","0.0-1.0-39.0","0","0","60727","","null","","","null","4","NaN","","","","","","","","","","","","","","",""
"","S2","","html-keyboard-response","37","150008","0.0-1.0-40.0","0","0","60727","","null","","","null","4","","NaN","","","","","","","","","","","","","",""
"","response","","html-keyboard-response","38","150219","0.0-1.0-41.0-0.0","0","0","60727","","207","","","75","4","","","1","4","training","adjacent","FG","6","7","M.jpg","N.jpg","1","1","1","",""
"","feedback","","html-keyboard-response","39","151231","0.0-1.0-42.0-0.0","0","0","60727","","null","","","null","4","","","","","","","","","","","","","","","",""
"","ITI","","html-keyboard-response","40","152248","0.0-1.0-45.0","0","0","60727","","null","","","null","4","","","","","","","","","","","","","","","NaN",""
"","S1","","html-keyboard-response","41","152503","0.0-1.0-47.0","0","0","60727","","null","","","null","5","","","","","","","","","","","","","","","",""
"","ISI","","html-keyboard-response","42","153511","0.0-1.0-48.0","0","0","60727","","null","","","null","5","NaN","","","","","","","","","","","","","","",""
"","S2","","html-keyboard-response","43","153773","0.0-1.0-49.0","0","0","60727","","null","","","null","5","","NaN","","","","","","","","","","","","","",""
"","response","","html-keyboard-response","44","153888","0.0-1.0-50.0-0.0","0","0","60727","","110","","","75","5","","","1","5","training","adjacent","BC","2","3","P.jpg","O.jpg","1","1","1","",""
"","feedback","","html-keyboard-response","45","154904","0.0-1.0-51.0-0.0","0","0","60727","","null","","","null","5","","","","","","","","","","","","","","","",""
"","ITI","","html-keyboard-response","46","155916","0.0-1.0-54.0","0","0","60727","","null","","","null","5","","","","","","","","","","","","","","","NaN",""
"","S1","","html-keyboard-response","47","156183","0.0-1.0-56.0","0","0","60727","","null","","","null","6","","","","","","","","","","","","","","","",""
"","ISI","","html-keyboard-response","48","157199","0.0-1.0-57.0","0","0","60727","","null","","","null","6","NaN","","","","","","","","","","","","","","",""
"","S2","","html-keyboard-response","49","157463","0.0-1.0-58.0","0","0","60727","","null","","","null","6","","NaN","","","","","","","","","","","","","",""
"","response","","html-keyboard-response","50","157683","0.0-1.0-59.0-0.0","0","0","60727","","215","","","75","6","","","1","6","training","adjacent","AB","1","2","L.jpg","P.jpg","1","1","1","",""
"","feedback","","html-keyboard-response","51","158695","0.0-1.0-60.0-0.0","0","0","60727","","null","","","null","6","","","","","","","","","","","","","","","",""
"","ITI","","html-keyboard-response","52","159709","0.0-1.0-63.0","0","0","60727","","null","","","null","6","","","","","","","","","","","","","","","NaN",""
"","S1","","html-keyboard-response","53","159975","0.0-1.0-65.0","0","0","60727","","null","","","null","7","","","","","","","","","","","","","","","",""
"","ISI","","html-keyboard-response","54","160992","0.0-1.0-66.0","0","0","60727","","null","","","null","7","NaN","","","","","","","","","","","","","","",""
"","S2","","html-keyboard-response","55","161255","0.0-1.0-67.0","0","0","60727","","null","","","null","7","","NaN","","","","","","","","","","","","","",""
"","response","","html-keyboard-response","56","161280","0.0-1.0-68.0-0.0","0","0","60727","","21","","","75","7","","","1","7","training","adjacent","ED","5","4","Q.jpg","R.jpg","1","0","0","",""
"","feedback","","html-keyboard-response","57","162296","0.0-1.0-69.0-0.0","0","0","60727","","null","","","null","7","","","","","","","","","","","","","","","",""
"","time_out","","html-keyboard-response","58","164311","0.0-1.0-71.0-0.0","0","0","60727","","null","","","null","7","","","","","","","","","","","","","","","",""
"","ITI","","html-keyboard-response","59","165324","0.0-1.0-72.0","0","0","60727","","null","","","null","7","","","","","","","","","","","","","","","NaN",""
"","S1","","html-keyboard-response","60","165590","0.0-1.0-74.0","0","0","60727","","null","","","null","8","","","","","","","","","","","","","","","",""
"","ISI","","html-keyboard-response","61","166597","0.0-1.0-75.0","0","0","60727","","null","","","null","8","NaN","","","","","","","","","","","","","","",""
"","S2","","html-keyboard-response","62","166859","0.0-1.0-76.0","0","0","60727","","null","","","null","8","","NaN","","","","","","","","","","","","","",""
"","response","","html-keyboard-response","63","167006","0.0-1.0-77.0-0.0","0","0","60727","","143","","","68","8","","","1","8","training","adjacent","DE","4","5","R.jpg","Q.jpg","0","1","0","",""
"","feedback","","html-keyboard-response","64","168015","0.0-1.0-78.0-0.0","0","0","60727","","null","","","null","8","","","","","","","","","","","","","","","",""
"","time_out","","html-keyboard-response","65","170027","0.0-1.0-80.0-0.0","0","0","60727","","null","","","null","8","","","","","","","","","","","","","","","",""
"","ITI","","html-keyboard-response","66","171039","0.0-1.0-81.0","0","0","60727","","null","","","null","8","","","","","","","","","","","","","","","NaN",""
"","S1","","html-keyboard-response","67","171302","0.0-1.0-83.0","0","0","60727","","null","","","null","9","","","","","","","","","","","","","","","",""
"","ISI","","html-keyboard-response","68","172316","0.0-1.0-84.0","0","0","60727","","null","","","null","9","NaN","","","","","","","","","","","","","","",""
"","S2","","html-keyboard-response","69","172582","0.0-1.0-85.0","0","0","60727","","null","","","null","9","","NaN","","","","","","","","","","","","","",""
"","response","","html-keyboard-response","70","172996","0.0-1.0-86.0-0.0","0","0","60727","","409","","","68","9","","","1","9","training","adjacent","BC","2","3","P.jpg","O.jpg","0","1","0","",""
"","feedback","","html-keyboard-response","71","174006","0.0-1.0-87.0-0.0","0","0","60727","","null","","","null","9","","","","","","","","","","","","","","","",""
"","time_out","","html-keyboard-response","72","176022","0.0-1.0-89.0-0.0","0","0","60727","","null","","","null","9","","","","","","","","","","","","","","","",""
"","ITI","","html-keyboard-response","73","177038","0.0-1.0-90.0","0","0","60727","","null","","","null","9","","","","","","","","","","","","","","","NaN",""
"","S1","","html-keyboard-response","74","177302","0.0-1.0-92.0","0","0","60727","","null","","","null","10","","","","","","","","","","","","","","","",""
"","ISI","","html-keyboard-response","75","178316","0.0-1.0-93.0","0","0","60727","","null","","","null","10","NaN","","","","","","","","","","","","","","",""
"","S2","","html-keyboard-response","76","178583","0.0-1.0-94.0","0","0","60727","","null","","","null","10","","NaN","","","","","","","","","","","","","",""
"","response","","html-keyboard-response","77","178735","0.0-1.0-95.0-0.0","0","0","60727","","147","","","75","10","","","1","10","training","adjacent","AB","1","2","L.jpg","P.jpg","1","1","1","",""
"","feedback","","html-keyboard-response","78","179750","0.0-1.0-96.0-0.0","0","0","60727","","null","","","null","10","","","","","","","","","","","","","","","",""
"","ITI","","html-keyboard-response","79","180764","0.0-1.0-99.0","0","0","60727","","null","","","null","10","","","","","","","","","","","","","","","NaN",""
"","S1","","html-keyboard-response","80","181030","0.0-1.0-101.0","0","0","60727","","null","","","null","11","","","","","","","","","","","","","","","",""
"","ISI","","html-keyboard-response","81","182046","0.0-1.0-102.0","0","0","60727","","null","","","null","11","NaN","","","","","","","","","","","","","","",""
"","S2","","html-keyboard-response","82","182310","0.0-1.0-103.0","0","0","60727","","null","","","null","11","","NaN","","","","","","","","","","","","","",""
"","response","","html-keyboard-response","83","182401","0.0-1.0-104.0-0.0","0","0","60727","","87","","","75","11","","","1","11","training","adjacent","FG","6","7","M.jpg","N.jpg","1","1","1","",""
"","feedback","","html-keyboard-response","84","183414","0.0-1.0-105.0-0.0","0","0","60727","","null","","","null","11","","","","","","","","","","","","","","","",""
"","ITI","","html-keyboard-response","85","184427","0.0-1.0-108.0","0","0","60727","","null","","","null","11","","","","","","","","","","","","","","","NaN",""
"","S1","","html-keyboard-response","86","184694","0.0-1.0-110.0","0","0","60727","","null","","","null","12","","","","","","","","","","","","","","","",""
"","ISI","","html-keyboard-response","87","185707","0.0-1.0-111.0","0","0","60727","","200","","","75","12","k","","","","","","","","","","","","","","",""
"","S2","","html-keyboard-response","88","185935","0.0-1.0-112.0","0","0","60727","","220","","","75","12","","k","1","12","training","adjacent","DC","4","3","R.jpg","O.jpg","1","0","0","",""
"","feedback","","html-keyboard-response","89","186950","0.0-1.0-114.0-0.0","0","0","60727","","null","","","null","12","","","","","","","","","","","","","","","",""
"","time_out","","html-keyboard-response","90","188966","0.0-1.0-116.0-0.0","0","0","60727","","null","","","null","12","","","","","","","","","","","","","","","",""
"","ITI","","html-keyboard-response","91","189979","0.0-1.0-117.0","0","0","60727","","null","","","null","12","","","","","","","","","","","","","","","NaN",""
"","S1","","html-keyboard-response","92","190246","0.0-1.0-119.0","0","0","60727","","null","","","null","13","","","","","","","","","","","","","","","",""
"","ISI","","html-keyboard-response","93","191259","0.0-1.0-120.0","0","0","60727","","null","","","null","13","NaN","","","","","","","","","","","","","","",""
"","S2","","html-keyboard-response","94","191526","0.0-1.0-121.0","0","0","60727","","null","","","null","13","","NaN","","","","","","","","","","","","","",""
"","response","","html-keyboard-response","95","191559","0.0-1.0-122.0-0.0","0","0","60727","","29","","","75","13","","","1","13","training","adjacent","EF","5","6","Q.jpg","M.jpg","1","1","1","",""
"","feedback","","html-keyboard-response","96","192571","0.0-1.0-123.0-0.0","0","0","60727","","null","","","null","13","","","","","","","","","","","","","","","",""
"","ITI","","html-keyboard-response","97","193578","0.0-1.0-126.0","0","0","60727","","null","","","null","13","","","","","","","","","","","","","","","NaN",""
"","S1","","html-keyboard-response","98","193846","0.0-1.0-128.0","0","0","60727","","null","","","null","14","","","","","","","","","","","","","","","",""
"","ISI","","html-keyboard-response","99","194862","0.0-1.0-129.0","0","0","60727","","null","","","null","14","NaN","","","","","","","","","","","","","","",""
"","S2","","html-keyboard-response","100","195125","0.0-1.0-130.0","0","0","60727","","null","","","null","14","","NaN","","","","","","","","","","","","","",""
"","response","","html-keyboard-response","101","195246","0.0-1.0-131.0-0.0","0","0","60727","","117","","","75","14","","","1","14","training","adjacent","BC","2","3","P.jpg","O.jpg","1","1","1","",""
"","feedback","","html-keyboard-response","102","196262","0.0-1.0-132.0-0.0","0","0","60727","","null","","","null","14","","","","","","","","","","","","","","","",""
"","ITI","","html-keyboard-response","103","197275","0.0-1.0-135.0","0","0","60727","","null","","","null","14","","","","","","","","","","","","","","","NaN",""
"","S1","","html-keyboard-response","104","197541","0.0-1.0-137.0","0","0","60727","","null","","","null","15","","","","","","","","","","","","","","","",""
"","ISI","","html-keyboard-response","105","198555","0.0-1.0-138.0","0","0","60727","","null","","","null","15","NaN","","","","","","","","","","","","","","",""
"","S2","","html-keyboard-response","106","198821","0.0-1.0-139.0","0","0","60727","","null","","","null","15","","NaN","","","","","","","","","","","","","",""
"","response","","html-keyboard-response","107","198824","0.0-1.0-140.0-0.0","0","0","60727","","0","","","68","15","","","1","15","training","adjacent","CB","3","2","O.jpg","P.jpg","0","0","1","",""
"","feedback","","html-keyboard-response","108","199837","0.0-1.0-141.0-0.0","0","0","60727","","null","","","null","15","","","","","","","","","","","","","","","",""
"","ITI","","html-keyboard-response","109","200853","0.0-1.0-144.0","0","0","60727","","null","","","null","15","","","","","","","","","","","","","","","NaN",""
"","S1","","html-keyboard-response","110","201115","0.0-1.0-146.0","0","0","60727","","null","","","null","16","","","","","","","","","","","","","","","",""
"","ISI","","html-keyboard-response","111","202123","0.0-1.0-147.0","0","0","60727","","null","","","null","16","NaN","","","","","","","","","","","","","","",""
"","S2","","html-keyboard-response","112","202389","0.0-1.0-148.0","0","0","60727","","null","","","null","16","","NaN","","","","","","","","","","","","","",""
"","response","","html-keyboard-response","113","202459","0.0-1.0-149.0-0.0","0","0","60727","","66","","","68","16","","","1","16","training","adjacent","CD","3","4","O.jpg","R.jpg","0","1","0","",""
"","feedback","","html-keyboard-response","114","203466","0.0-1.0-150.0-0.0","0","0","60727","","null","","","null","16","","","","","","","","","","","","","","","",""
"","time_out","","html-keyboard-response","115","205477","0.0-1.0-152.0-0.0","0","0","60727","","null","","","null","16","","","","","","","","","","","","","","","",""
"","ITI","","html-keyboard-response","116","206490","0.0-1.0-153.0","0","0","60727","","null","","","null","16","","","","","","","","","","","","","","","NaN",""
"","S1","","html-keyboard-response","117","206757","0.0-1.0-155.0","0","0","60727","","null","","","null","17","","","","","","","","","","","","","","","",""
"","ISI","","html-keyboard-response","118","207770","0.0-1.0-156.0","0","0","60727","","null","","","null","17","NaN","","","","","","","","","","","","","","",""
"","S2","","html-keyboard-response","119","208037","0.0-1.0-157.0","0","0","60727","","null","","","null","17","","NaN","","","","","","","","","","","","","",""
"","response","","html-keyboard-response","120","208123","0.0-1.0-158.0-0.0","0","0","60727","","81","","","68","17","","","1","17","training","adjacent","DE","4","5","R.jpg","Q.jpg","0","1","0","",""
"","feedback","","html-keyboard-response","121","209132","0.0-1.0-159.0-0.0","0","0","60727","","null","","","null","17","","","","","","","","","","","","","","","",""
"","time_out","","html-keyboard-response","122","211141","0.0-1.0-161.0-0.0","0","0","60727","","null","","","null","17","","","","","","","","","","","","","","","",""
"","ITI","","html-keyboard-response","123","212154","0.0-1.0-162.0","0","0","60727","","null","","","null","17","","","","","","","","","","","","","","","NaN",""
"","S1","","html-keyboard-response","124","212421","0.0-1.0-164.0","0","0","60727","","null","","","null","18","","","","","","","","","","","","","","","",""
"","ISI","","html-keyboard-response","125","213437","0.0-1.0-165.0","0","0","60727","","null","","","null","18","NaN","","","","","","","","","","","","","","",""
"","S2","","html-keyboard-response","126","213701","0.0-1.0-166.0","0","0","60727","","null","","","null","18","","NaN","","","","","","","","","","","","","",""
"","response","","html-keyboard-response","127","213763","0.0-1.0-167.0-0.0","0","0","60727","","58","","","75","18","","","1","18","training","adjacent","FE","6","5","M.jpg","Q.jpg","1","0","0","",""
"","feedback","","html-keyboard-response","128","214773","0.0-1.0-168.0-0.0","0","0","60727","","null","","","null","18","","","","","","","","","","","","","","","",""
"","time_out","","html-keyboard-response","129","216786","0.0-1.0-170.0-0.0","0","0","60727","","null","","","null","18","","","","","","","","","","","","","","","",""
"","ITI","","html-keyboard-response","130","217793","0.0-1.0-171.0","0","0","60727","","null","","","null","18","","","","","","","","","","","","","","","NaN",""
"","S1","","html-keyboard-response","131","218053","0.0-1.0-173.0","0","0","60727","","null","","","null","19","","","","","","","","","","","","","","","",""
"","ISI","","html-keyboard-response","132","219066","0.0-1.0-174.0","0","0","60727","","null","","","null","19","NaN","","","","","","","","","","","","","","",""
"","S2","","html-keyboard-response","133","219332","0.0-1.0-175.0","0","0","60727","","null","","","null","19","","NaN","","","","","","","","","","","","","",""
"","response","","html-keyboard-response","134","219354","0.0-1.0-176.0-0.0","0","0","60727","","19","","","75","19","","","1","19","training","adjacent","DC","4","3","R.jpg","O.jpg","1","0","0","",""
"","feedback","","html-keyboard-response","135","220365","0.0-1.0-177.0-0.0","0","0","60727","","null","","","null","19","","","","","","","","","","","","","","","",""
"","time_out","","html-keyboard-response","136","222378","0.0-1.0-179.0-0.0","0","0","60727","","null","","","null","19","","","","","","","","","","","","","","","",""
"","ITI","","html-keyboard-response","137","223387","0.0-1.0-180.0","0","0","60727","","null","","","null","19","","","","","","","","","","","","","","","NaN",""
"","S1","","html-keyboard-response","138","223653","0.0-1.0-182.0","0","0","60727","","null","","","null","20","","","","","","","","","","","","","","","",""
"","ISI","","html-keyboard-response","139","224665","0.0-1.0-183.0","0","0","60727","","null","","","null","20","NaN","","","","","","","","","","","","","","",""
"","S2","","html-keyboard-response","140","224932","0.0-1.0-184.0","0","0","60727","","null","","","null","20","","NaN","","","","","","","","","","","","","",""
"","response","","html-keyboard-response","141","224967","0.0-1.0-185.0-0.0","0","0","60727","","31","","","68","20","","","1","20","training","adjacent","FG","6","7","M.jpg","N.jpg","0","1","0","",""
"","feedback","","html-keyboard-response","142","225978","0.0-1.0-186.0-0.0","0","0","60727","","null","","","null","20","","","","","","","","","","","","","","","",""
"","time_out","","html-keyboard-response","143","227989","0.0-1.0-188.0-0.0","0","0","60727","","null","","","null","20","","","","","","","","","","","","","","","",""
"","ITI","","html-keyboard-response","144","229001","0.0-1.0-189.0","0","0","60727","","null","","","null","20","","","","","","","","","","","","","","","NaN",""
"","S1","","html-keyboard-response","145","229268","0.0-1.0-191.0","0","0","60727","","null","","","null","21","","","","","","","","","","","","","","","",""
"","ISI","","html-keyboard-response","146","230281","0.0-1.0-192.0","0","0","60727","","104","","","75","21","k","","","","","","","","","","","","","","",""
"","S2","","html-keyboard-response","147","230548","0.0-1.0-193.0","0","0","60727","","null","","","null","21","","NaN","","","","","","","","","","","","","",""
"","response","","html-keyboard-response","148","230645","0.0-1.0-194.0-0.0","0","0","60727","","92","","","75","21","","","1","21","training","adjacent","GF","7","6","N.jpg","M.jpg","1","0","0","",""
"","feedback","","html-keyboard-response","149","231657","0.0-1.0-195.0-0.0","0","0","60727","","null","","","null","21","","","","","","","","","","","","","","","",""
"","time_out","","html-keyboard-response","150","233668","0.0-1.0-197.0-0.0","0","0","60727","","null","","","null","21","","","","","","","","","","","","","","","",""
"","ITI","","html-keyboard-response","151","234681","0.0-1.0-198.0","0","0","60727","","null","","","null","21","","","","","","","","","","","","","","","NaN",""
"","S1","","html-keyboard-response","152","234948","0.0-1.0-200.0","0","0","60727","","null","","","null","22","","","","","","","","","","","","","","","",""
"","ISI","","html-keyboard-response","153","235963","0.0-1.0-201.0","0","0","60727","","null","","","null","22","NaN","","","","","","","","","","","","","","",""
"","S2","","html-keyboard-response","154","236205","0.0-1.0-202.0","0","0","60727","","237","","","75","22","","k","1","22","training","adjacent","ED","5","4","Q.jpg","R.jpg","1","0","0","",""
"","feedback","","html-keyboard-response","155","237220","0.0-1.0-204.0-0.0","0","0","60727","","null","","","null","22","","","","","","","","","","","","","","","",""
"","time_out","","html-keyboard-response","156","239236","0.0-1.0-206.0-0.0","0","0","60727","","null","","","null","22","","","","","","","","","","","","","","","",""
"","ITI","","html-keyboard-response","157","240252","0.0-1.0-207.0","0","0","60727","","null","","","null","22","","","","","","","","","","","","","","","NaN",""
"","S1","","html-keyboard-response","158","240515","0.0-1.0-209.0","0","0","60727","","null","","","null","23","","","","","","","","","","","","","","","",""
"","ISI","","html-keyboard-response","159","241529","0.0-1.0-210.0","0","0","60727","","null","","","null","23","NaN","","","","","","","","","","","","","","",""
"","S2","","html-keyboard-response","160","241776","0.0-1.0-211.0","0","0","60727","","242","","","68","23","","d","1","23","training","adjacent","AB","1","2","L.jpg","P.jpg","0","1","0","",""
"","feedback","","html-keyboard-response","161","242787","0.0-1.0-213.0-0.0","0","0","60727","","null","","","null","23","","","","","","","","","","","","","","","",""
"","time_out","","html-keyboard-response","162","244804","0.0-1.0-215.0-0.0","0","0","60727","","null","","","null","23","","","","","","","","","","","","","","","",""
"","ITI","","html-keyboard-response","163","245819","0.0-1.0-216.0","0","0","60727","","null","","","null","23","","","","","","","","","","","","","","","NaN",""
"","S1","","html-keyboard-response","164","246083","0.0-1.0-218.0","0","0","60727","","null","","","null","24","","","","","","","","","","","","","","","",""
"","ISI","","html-keyboard-response","165","247097","0.0-1.0-219.0","0","0","60727","","null","","","null","24","NaN","","","","","","","","","","","","","","",""
"","S2","","html-keyboard-response","166","247364","0.0-1.0-220.0","0","0","60727","","null","","","null","24","","NaN","","","","","","","","","","","","","",""
"","response","","html-keyboard-response","167","247523","0.0-1.0-221.0-0.0","0","0","60727","","155","","","75","24","","","1","24","training","adjacent","CD","3","4","O.jpg","R.jpg","1","1","1","",""
"","feedback","","html-keyboard-response","168","248536","0.0-1.0-222.0-0.0","0","0","60727","","null","","","null","24","","","","","","","","","","","","","","","",""
"","ITI","","html-keyboard-response","169","249546","0.0-1.0-225.0","0","0","60727","","null","","","null","24","","","","","","","","","","","","","","","NaN",""
"","S1","","html-keyboard-response","170","249811","0.0-1.0-227.0","0","0","60727","","null","","","null","25","","","","","","","","","","","","","","","",""
"","ISI","","html-keyboard-response","171","250824","0.0-1.0-228.0","0","0","60727","","null","","","null","25","NaN","","","","","","","","","","","","","","",""
"","S2","","html-keyboard-response","172","251091","0.0-1.0-229.0","0","0","60727","","null","","","null","25","","NaN","","","","","","","","","","","","","",""
"","response","","html-keyboard-response","173","251137","0.0-1.0-230.0-0.0","0","0","60727","","42","","","75","25","","","1","25","training","adjacent","DC","4","3","R.jpg","O.jpg","1","0","0","",""
"","feedback","","html-keyboard-response","174","252146","0.0-1.0-231.0-0.0","0","0","60727","","null","","","null","25","","","","","","","","","","","","","","","",""
"","time_out","","html-keyboard-response","175","254163","0.0-1.0-233.0-0.0","0","0","60727","","null","","","null","25","","","","","","","","","","","","","","","",""
"","ITI","","html-keyboard-response","176","255179","0.0-1.0-234.0","0","0","60727","","null","","","null","25","","","","","","","","","","","","","","","NaN",""
"","S1","","html-keyboard-response","177","255443","0.0-1.0-236.0","0","0","60727","","null","","","null","26","","","","","","","","","","","","","","","",""
"","ISI","","html-keyboard-response","178","256456","0.0-1.0-237.0","0","0","60727","","null","","","null","26","NaN","","","","","","","","","","","","","","",""
"","S2","","html-keyboard-response","179","256723","0.0-1.0-238.0","0","0","60727","","null","","","null","26","","NaN","","","","","","","","","","","","","",""
"","response","","html-keyboard-response","180","256725","0.0-1.0-239.0-0.0","0","0","60727","","0","","","75","26","","","1","26","training","adjacent","BA","2","1","P.jpg","L.jpg","1","0","0","",""
"","feedback","","html-keyboard-response","181","257737","0.0-1.0-240.0-0.0","0","0","60727","","null","","","null","26","","","","","","","","","","","","","","","",""
"","time_out","","html-keyboard-response","182","259746","0.0-1.0-242.0-0.0","0","0","60727","","null","","","null","26","","","","","","","","","","","","","","","",""
"","ITI","","html-keyboard-response","183","260760","0.0-1.0-243.0","0","0","60727","","null","","","null","26","","","","","","","","","","","","","","","NaN",""
"","S1","","html-keyboard-response","184","261027","0.0-1.0-245.0","0","0","60727","","null","","","null","27","","","","","","","","","","","","","","","",""
"","ISI","","html-keyboard-response","185","262043","0.0-1.0-246.0","0","0","60727","","null","","","null","27","NaN","","","","","","","","","","","","","","",""
"","S2","","html-keyboard-response","186","262288","0.0-1.0-247.0","0","0","60727","","239","","","68","27","","d","1","27","training","adjacent","CB","3","2","O.jpg","P.jpg","0","0","1","",""
"","feedback","","html-keyboard-response","187","263298","0.0-1.0-249.0-0.0","0","0","60727","","null","","","null","27","","","","","","","","","","","","","","","",""
"","ITI","","html-keyboard-response","188","264311","0.0-1.0-252.0","0","0","60727","","null","","","null","27","","","","","","","","","","","","","","","NaN",""
"","S1","","html-keyboard-response","189","264568","0.0-1.0-254.0","0","0","60727","","null","","","null","28","","","","","","","","","","","","","","","",""
"","ISI","","html-keyboard-response","190","265576","0.0-1.0-255.0","0","0","60727","","null","","","null","28","NaN","","","","","","","","","","","","","","",""
"","S2","","html-keyboard-response","191","265843","0.0-1.0-256.0","0","0","60727","","null","","","null","28","","NaN","","","","","","","","","","","","","",""
"","response","","html-keyboard-response","192","265885","0.0-1.0-257.0-0.0","0","0","60727","","38","","","75","28","","","1","28","training","adjacent","BC","2","3","P.jpg","O.jpg","1","1","1","",""
"","feedback","","html-keyboard-response","193","266899","0.0-1.0-258.0-0.0","0","0","60727","","null","","","null","28","","","","","","","","","","","","","","","",""
"","ITI","","html-keyboard-response","194","267913","0.0-1.0-261.0","0","0","60727","","null","","","null","28","","","","","","","","","","","","","","","NaN",""
"","S1","","html-keyboard-response","195","268178","0.0-1.0-263.0","0","0","60727","","null","","","null","29","","","","","","","","","","","","","","","",""
"","ISI","","html-keyboard-response","196","269195","0.0-1.0-264.0","0","0","60727","","null","","","null","29","NaN","","","","","","","","","","","","","","",""
"","S2","","html-keyboard-response","197","269458","0.0-1.0-265.0","0","0","60727","","null","","","null","29","","NaN","","","","","","","","","","","","","",""
"","response","","html-keyboard-response","198","269556","0.0-1.0-266.0-0.0","0","0","60727","","93","","","75","29","","","1","29","training","adjacent","FE","6","5","M.jpg","Q.jpg","1","0","0","",""
"","feedback","","html-keyboard-response","199","270568","0.0-1.0-267.0-0.0","0","0","60727","","null","","","null","29","","","","","","","","","","","","","","","",""
"","time_out","","html-keyboard-response","200","272578","0.0-1.0-269.0-0.0","0","0","60727","","null","","","null","29","","","","","","","","","","","","","","","",""
"","ITI","","html-keyboard-response","201","273593","0.0-1.0-270.0","0","0","60727","","null","","","null","29","","","","","","","","","","","","","","","NaN",""
"","S1","","html-keyboard-response","202","273858","0.0-1.0-272.0","0","0","60727","","null","","","null","30","","","","","","","","","","","","","","","",""
"","ISI","","html-keyboard-response","203","274872","0.0-1.0-273.0","0","0","60727","","null","","","null","30","NaN","","","","","","","","","","","","","","",""
"","S2","","html-keyboard-response","204","275137","0.0-1.0-274.0","0","0","60727","","null","","","null","30","","NaN","","","","","","","","","","","","","",""
"","response","","html-keyboard-response","205","275213","0.0-1.0-275.0-0.0","0","0","60727","","70","","","68","30","","","1","30","training","adjacent","FE","6","5","M.jpg","Q.jpg","0","0","1","",""
"","feedback","","html-keyboard-response","206","276225","0.0-1.0-276.0-0.0","0","0","60727","","null","","","null","30","","","","","","","","","","","","","","","",""
"","ITI","","html-keyboard-response","207","277239","0.0-1.0-279.0","0","0","60727","","null","","","null","30","","","","","","","","","","","","","","","NaN",""
"","S1","","html-keyboard-response","208","277506","0.0-1.0-281.0","0","0","60727","","null","","","null","31","","","","","","","","","","","","","","","",""
"","ISI","","html-keyboard-response","209","278519","0.0-1.0-282.0","0","0","60727","","null","","","null","31","NaN","","","","","","","","","","","","","","",""
"","S2","","html-keyboard-response","210","278786","0.0-1.0-283.0","0","0","60727","","null","","","null","31","","NaN","","","","","","","","","","","","","",""
"","response","","html-keyboard-response","211","278964","0.0-1.0-284.0-0.0","0","0","60727","","173","","","75","31","","","1","31","training","adjacent","AB","1","2","L.jpg","P.jpg","1","1","1","",""
"","feedback","","html-keyboard-response","212","279976","0.0-1.0-285.0-0.0","0","0","60727","","null","","","null","31","","","","","","","","","","","","","","","",""
"","ITI","","html-keyboard-response","213","280983","0.0-1.0-288.0","0","0","60727","","null","","","null","31","","","","","","","","","","","","","","","NaN",""
"","S1","","html-keyboard-response","214","281250","0.0-1.0-290.0","0","0","60727","","null","","","null","32","","","","","","","","","","","","","","","",""
"","ISI","","html-keyboard-response","215","282264","0.0-1.0-291.0","0","0","60727","","null","","","null","32","NaN","","","","","","","","","","","","","","",""
"","S2","","html-keyboard-response","216","282530","0.0-1.0-292.0","0","0","60727","","null","","","null","32","","NaN","","","","","","","","","","","","","",""
"","response","","html-keyboard-response","217","282619","0.0-1.0-293.0-0.0","0","0","60727","","85","","","75","32","","","1","32","training","adjacent","CB","3","2","O.jpg","P.jpg","1","0","0","",""
"","feedback","","html-keyboard-response","218","283634","0.0-1.0-294.0-0.0","0","0","60727","","null","","","null","32","","","","","","","","","","","","","","","",""
"","time_out","","html-keyboard-response","219","285649","0.0-1.0-296.0-0.0","0","0","60727","","null","","","null","32","","","","","","","","","","","","","","","",""
"","ITI","","html-keyboard-response","220","286663","0.0-1.0-297.0","0","0","60727","","null","","","null","32","","","","","","","","","","","","","","","NaN",""
"","S1","","html-keyboard-response","221","286929","0.0-1.0-299.0","0","0","60727","","null","","","null","33","","","","","","","","","","","","","","","",""
"","ISI","","html-keyboard-response","222","287943","0.0-1.0-300.0","0","0","60727","","null","","","null","33","NaN","","","","","","","","","","","","","","",""
"","S2","","html-keyboard-response","223","288209","0.0-1.0-301.0","0","0","60727","","null","","","null","33","","NaN","","","","","","","","","","","","","",""
"","response","","html-keyboard-response","224","288228","0.0-1.0-302.0-0.0","0","0","60727","","16","","","75","33","","","1","33","training","adjacent","ED","5","4","Q.jpg","R.jpg","1","0","0","",""
"","feedback","","html-keyboard-response","225","289239","0.0-1.0-303.0-0.0","0","0","60727","","null","","","null","33","","","","","","","","","","","","","","","",""
"","time_out","","html-keyboard-response","226","291249","0.0-1.0-305.0-0.0","0","0","60727","","null","","","null","33","","","","","","","","","","","","","","","",""
"","ITI","","html-keyboard-response","227","292262","0.0-1.0-306.0","0","0","60727","","null","","","null","33","","","","","","","","","","","","","","","NaN",""
"","S1","","html-keyboard-response","228","292521","0.0-1.0-308.0","0","0","60727","","null","","","null","34","","","","","","","","","","","","","","","",""
"","ISI","","html-keyboard-response","229","293538","0.0-1.0-309.0","0","0","60727","","null","","","null","34","NaN","","","","","","","","","","","","","","",""
"","S2","","html-keyboard-response","230","293798","0.0-1.0-310.0","0","0","60727","","null","","","null","34","","NaN","","","","","","","","","","","","","",""
"","response","","html-keyboard-response","231","293945","0.0-1.0-311.0-0.0","0","0","60727","","143","","","68","34","","","1","34","training","adjacent","EF","5","6","Q.jpg","M.jpg","0","1","0","",""
"","feedback","","html-keyboard-response","232","294962","0.0-1.0-312.0-0.0","0","0","60727","","null","","","null","34","","","","","","","","","","","","","","","",""
"","time_out","","html-keyboard-response","233","296977","0.0-1.0-314.0-0.0","0","0","60727","","null","","","null","34","","","","","","","","","","","","","","","",""
"","ITI","","html-keyboard-response","234","297992","0.0-1.0-315.0","0","0","60727","","null","","","null","34","","","","","","","","","","","","","","","NaN",""
"","S1","","html-keyboard-response","235","298256","0.0-1.0-317.0","0","0","60727","","null","","","null","35","","","","","","","","","","","","","","","",""
"","ISI","","html-keyboard-response","236","299265","0.0-1.0-318.0","0","0","60727","","null","","","null","35","NaN","","","","","","","","","","","","","","",""
"","S2","","html-keyboard-response","237","299527","0.0-1.0-319.0","0","0","60727","","null","","","null","35","","NaN","","","","","","","","","","","","","",""
"","response","","html-keyboard-response","238","299558","0.0-1.0-320.0-0.0","0","0","60727","","27","","","75","35","","","1","35","training","adjacent","GF","7","6","N.jpg","M.jpg","1","0","0","",""
"","feedback","","html-keyboard-response","239","300567","0.0-1.0-321.0-0.0","0","0","60727","","null","","","null","35","","","","","","","","","","","","","","","",""
"","time_out","","html-keyboard-response","240","302577","0.0-1.0-323.0-0.0","0","0","60727","","null","","","null","35","","","","","","","","","","","","","","","",""
"","ITI","","html-keyboard-response","241","303592","0.0-1.0-324.0","0","0","60727","","null","","","null","35","","","","","","","","","","","","","","","NaN",""
"","S1","","html-keyboard-response","242","303857","0.0-1.0-326.0","0","0","60727","","null","","","null","36","","","","","","","","","","","","","","","",""
"","ISI","","html-keyboard-response","243","304870","0.0-1.0-327.0","0","0","60727","","null","","","null","36","NaN","","","","","","","","","","","","","","",""
"","S2","","html-keyboard-response","244","305111","0.0-1.0-328.0","0","0","60727","","237","","","75","36","","k","1","36","training","adjacent","BA","2","1","P.jpg","L.jpg","1","0","0","",""
"","feedback","","html-keyboard-response","245","306120","0.0-1.0-330.0-0.0","0","0","60727","","null","","","null","36","","","","","","","","","","","","","","","",""
"","time_out","","html-keyboard-response","246","308134","0.0-1.0-332.0-0.0","0","0","60727","","null","","","null","36","","","","","","","","","","","","","","","",""
"","ITI","","html-keyboard-response","247","309142","0.0-1.0-333.0","0","0","60727","","null","","","null","36","","","","","","","","","","","","","","","NaN",""
"","S1","","html-keyboard-response","248","309409","0.0-1.0-335.0","0","0","60727","","null","","","null","37","","","","","","","","","","","","","","","",""
"","ISI","","html-keyboard-response","249","310422","0.0-1.0-336.0","0","0","60727","","null","","","null","37","NaN","","","","","","","","","","","","","","",""
"","S2","","html-keyboard-response","250","310689","0.0-1.0-337.0","0","0","60727","","null","","","null","37","","NaN","","","","","","","","","","","","","",""
"","response","","html-keyboard-response","251","310708","0.0-1.0-338.0-0.0","0","0","60727","","15","","","68","37","","","1","37","training","adjacent","BA","2","1","P.jpg","L.jpg","0","0","1","",""
"","feedback","","html-keyboard-response","252","311720","0.0-1.0-339.0-0.0","0","0","60727","","null","","","null","37","","","","","","","","","","","","","","","",""
"","ITI","","html-keyboard-response","253","312737","0.0-1.0-342.0","0","0","60727","","null","","","null","37","","","","","","","","","","","","","","","NaN",""
"","S1","","html-keyboard-response","254","312998","0.0-1.0-344.0","0","0","60727","","null","","","null","38","","","","","","","","","","","","","","","",""
"","ISI","","html-keyboard-response","255","314006","0.0-1.0-345.0","0","0","60727","","null","","","null","38","NaN","","","","","","","","","","","","","","",""
"","S2","","html-keyboard-response","256","314272","0.0-1.0-346.0","0","0","60727","","null","","","null","38","","NaN","","","","","","","","","","","","","",""
"","response","","html-keyboard-response","257","314295","0.0-1.0-347.0-0.0","0","0","60727","","19","","","68","38","","","1","38","training","adjacent","EF","5","6","Q.jpg","M.jpg","0","1","0","",""
"","feedback","","html-keyboard-response","258","315302","0.0-1.0-348.0-0.0","0","0","60727","","null","","","null","38","","","","","","","","","","","","","","","",""
"","time_out","","html-keyboard-response","259","317312","0.0-1.0-350.0-0.0","0","0","60727","","null","","","null","38","","","","","","","","","","","","","","","",""
"","ITI","","html-keyboard-response","260","318326","0.0-1.0-351.0","0","0","60727","","null","","","null","38","","","","","","","","","","","","","","","NaN",""
"","S1","","html-keyboard-response","261","318592","0.0-1.0-353.0","0","0","60727","","null","","","null","39","","","","","","","","","","","","","","","",""
"","ISI","","html-keyboard-response","262","319606","0.0-1.0-354.0","0","0","60727","","null","","","null","39","NaN","","","","","","","","","","","","","","",""
"","S2","","html-keyboard-response","263","319872","0.0-1.0-355.0","0","0","60727","","null","","","null","39","","NaN","","","","","","","","","","","","","",""
"","response","","html-keyboard-response","264","319889","0.0-1.0-356.0-0.0","0","0","60727","","15","","","68","39","","","1","39","training","adjacent","EF","5","6","Q.jpg","M.jpg","0","1","0","",""
"","feedback","","html-keyboard-response","265","320903","0.0-1.0-357.0-0.0","0","0","60727","","null","","","null","39","","","","","","","","","","","","","","","",""
"","time_out","","html-keyboard-response","266","322912","0.0-1.0-359.0-0.0","0","0","60727","","null","","","null","39","","","","","","","","","","","","","","","",""
"","ITI","","html-keyboard-response","267","323927","0.0-1.0-360.0","0","0","60727","","null","","","null","39","","","","","","","","","","","","","","","NaN",""
"","S1","","html-keyboard-response","268","324192","0.0-1.0-362.0","0","0","60727","","null","","","null","40","","","","","","","","","","","","","","","",""
"","ISI","","html-keyboard-response","269","325208","0.0-1.0-363.0","0","0","60727","","null","","","null","40","NaN","","","","","","","","","","","","","","",""
"","S2","","html-keyboard-response","270","325472","0.0-1.0-364.0","0","0","60727","","null","","","null","40","","NaN","","","","","","","","","","","","","",""
"","response","","html-keyboard-response","271","325474","0.0-1.0-365.0-0.0","0","0","60727","","0","","","68","40","","","1","40","training","adjacent","DE","4","5","R.jpg","Q.jpg","0","1","0","",""
"","feedback","","html-keyboard-response","272","326487","0.0-1.0-366.0-0.0","0","0","60727","","null","","","null","40","","","","","","","","","","","","","","","",""
"","time_out","","html-keyboard-response","273","328496","0.0-1.0-368.0-0.0","0","0","60727","","null","","","null","40","","","","","","","","","","","","","","","",""
"","ITI","","html-keyboard-response","274","329512","0.0-1.0-369.0","0","0","60727","","null","","","null","40","","","","","","","","","","","","","","","NaN",""
"","S1","","html-keyboard-response","275","329776","0.0-1.0-371.0","0","0","60727","","null","","","null","41","","","","","","","","","","","","","","","",""
"","ISI","","html-keyboard-response","276","330790","0.0-1.0-372.0","0","0","60727","","null","","","null","41","NaN","","","","","","","","","","","","","","",""
"","S2","","html-keyboard-response","277","331056","0.0-1.0-373.0","0","0","60727","","null","","","null","41","","NaN","","","","","","","","","","","","","",""
"","response","","html-keyboard-response","278","331060","0.0-1.0-374.0-0.0","0","0","60727","","1","","","75","41","","","1","41","training","adjacent","DE","4","5","R.jpg","Q.jpg","1","1","1","",""
"","feedback","","html-keyboard-response","279","332069","0.0-1.0-375.0-0.0","0","0","60727","","null","","","null","41","","","","","","","","","","","","","","","",""
"","ITI","","html-keyboard-response","280","333077","0.0-1.0-378.0","0","0","60727","","null","","","null","41","","","","","","","","","","","","","","","NaN",""
"","S1","","html-keyboard-response","281","333344","0.0-1.0-380.0","0","0","60727","","null","","","null","42","","","","","","","","","","","","","","","",""
"","ISI","","html-keyboard-response","282","334357","0.0-1.0-381.0","0","0","60727","","null","","","null","42","NaN","","","","","","","","","","","","","","",""
"","S2","","html-keyboard-response","283","334624","0.0-1.0-382.0","0","0","60727","","null","","","null","42","","NaN","","","","","","","","","","","","","",""
"","response","","html-keyboard-response","284","334810","0.0-1.0-383.0-0.0","0","0","60727","","182","","","68","42","","","1","42","training","adjacent","DC","4","3","R.jpg","O.jpg","0","0","1","",""
"","feedback","","html-keyboard-response","285","335824","0.0-1.0-384.0-0.0","0","0","60727","","null","","","null","42","","","","","","","","","","","","","","","",""
"","ITI","","html-keyboard-response","286","336837","0.0-1.0-387.0","0","0","60727","","null","","","null","42","","","","","","","","","","","","","","","NaN",""
"","S1","","html-keyboard-response","287","337104","0.0-1.0-389.0","0","0","60727","","null","","","null","43","","","","","","","","","","","","","","","",""
"","ISI","","html-keyboard-response","288","338120","0.0-1.0-390.0","0","0","60727","","null","","","null","43","NaN","","","","","","","","","","","","","","",""
"","S2","","html-keyboard-response","289","338383","0.0-1.0-391.0","0","0","60727","","null","","","null","43","","NaN","","","","","","","","","","","","","",""
"","response","","html-keyboard-response","290","338528","0.0-1.0-392.0-0.0","0","0","60727","","140","","","68","43","","","1","43","training","adjacent","FE","6","5","M.jpg","Q.jpg","0","0","1","",""
"","feedback","","html-keyboard-response","291","339540","0.0-1.0-393.0-0.0","0","0","60727","","null","","","null","43","","","","","","","","","","","","","","","",""
"","ITI","","html-keyboard-response","292","340549","0.0-1.0-396.0","0","0","60727","","null","","","null","43","","","","","","","","","","","","","","","NaN",""
"","S1","","html-keyboard-response","293","340816","0.0-1.0-398.0","0","0","60727","","null","","","null","44","","","","","","","","","","","","","","","",""
"","ISI","","html-keyboard-response","294","341831","0.0-1.0-399.0","0","0","60727","","null","","","null","44","NaN","","","","","","","","","","","","","","",""
"","S2","","html-keyboard-response","295","342095","0.0-1.0-400.0","0","0","60727","","null","","","null","44","","NaN","","","","","","","","","","","","","",""
"","response","","html-keyboard-response","296","342133","0.0-1.0-401.0-0.0","0","0","60727","","33","","","75","44","","","1","44","training","adjacent","FG","6","7","M.jpg","N.jpg","1","1","1","",""
"","feedback","","html-keyboard-response","297","343140","0.0-1.0-402.0-0.0","0","0","60727","","null","","","null","44","","","","","","","","","","","","","","","",""
"","ITI","","html-keyboard-response","298","344149","0.0-1.0-405.0","0","0","60727","","null","","","null","44","","","","","","","","","","","","","","","NaN",""
"","S1","","html-keyboard-response","299","344415","0.0-1.0-407.0","0","0","60727","","null","","","null","45","","","","","","","","","","","","","","","",""
"","ISI","","html-keyboard-response","300","345431","0.0-1.0-408.0","0","0","60727","","null","","","null","45","NaN","","","","","","","","","","","","","","",""
"","S2","","html-keyboard-response","301","345673","0.0-1.0-409.0","0","0","60727","","237","","","75","45","","k","1","45","training","adjacent","GF","7","6","N.jpg","M.jpg","1","0","0","",""
"","feedback","","html-keyboard-response","302","346687","0.0-1.0-411.0-0.0","0","0","60727","","null","","","null","45","","","","","","","","","","","","","","","",""
"","time_out","","html-keyboard-response","303","348703","0.0-1.0-413.0-0.0","0","0","60727","","null","","","null","45","","","","","","","","","","","","","","","",""
"","ITI","","html-keyboard-response","304","349716","0.0-1.0-414.0","0","0","60727","","null","","","null","45","","","","","","","","","","","","","","","NaN",""
"","S1","","html-keyboard-response","305","349983","0.0-1.0-416.0","0","0","60727","","null","","","null","46","","","","","","","","","","","","","","","",""
"","ISI","","html-keyboard-response","306","350996","0.0-1.0-417.0","0","0","60727","","null","","","null","46","NaN","","","","","","","","","","","","","","",""
"","S2","","html-keyboard-response","307","351263","0.0-1.0-418.0","0","0","60727","","null","","","null","46","","NaN","","","","","","","","","","","","","",""
"","response","","html-keyboard-response","308","351293","0.0-1.0-419.0-0.0","0","0","60727","","26","","","68","46","","","1","46","training","adjacent","CD","3","4","O.jpg","R.jpg","0","1","0","",""
"","feedback","","html-keyboard-response","309","352303","0.0-1.0-420.0-0.0","0","0","60727","","null","","","null","46","","","","","","","","","","","","","","","",""
"","time_out","","html-keyboard-response","310","354319","0.0-1.0-422.0-0.0","0","0","60727","","null","","","null","46","","","","","","","","","","","","","","","",""
"","ITI","","html-keyboard-response","311","355334","0.0-1.0-423.0","0","0","60727","","null","","","null","46","","","","","","","","","","","","","","","NaN",""
"","S1","","html-keyboard-response","312","355599","0.0-1.0-425.0","0","0","60727","","null","","","null","47","","","","","","","","","","","","","","","",""
"","ISI","","html-keyboard-response","313","356614","0.0-1.0-426.0","0","0","60727","","null","","","null","47","NaN","","","","","","","","","","","","","","",""
"","S2","","html-keyboard-response","314","356793","0.0-1.0-427.0","0","0","60727","","175","","","68","47","","d","1","47","training","adjacent","GF","7","6","N.jpg","M.jpg","0","0","1","",""
"","feedback","","html-keyboard-response","315","357806","0.0-1.0-429.0-0.0","0","0","60727","","null","","","null","47","","","","","","","","","","","","","","","",""
"","ITI","","html-keyboard-response","316","358819","0.0-1.0-432.0","0","0","60727","","null","","","null","47","","","","","","","","","","","","","","","NaN",""
"","block_over","","html-keyboard-response","317","368407","0.0-1.0-433.0-0.0","0","0","60727","","9581","","","32","47","","","","","","","","","","","","","","","",""
"","S1","","html-keyboard-response","318","368669","0.0-1.0-434.0","0","0","60727","","null","","","null","48","","","","","","","","","","","","","","","",""
"","ISI","","html-keyboard-response","319","369687","0.0-1.0-435.0","0","0","60727","","null","","","null","48","NaN","","","","","","","","","","","","","","",""
"","S2","","html-keyboard-response","320","369950","0.0-1.0-436.0","0","0","60727","","null","","","null","48","","NaN","","","","","","","","","","","","","",""
"","response","","html-keyboard-response","321","370000","0.0-1.0-437.0-0.0","0","0","60727","","46","","","68","48","","","2","48","training","adjacent","BA","2","1","P.jpg","L.jpg","0","0","1","",""
"","feedback","","html-keyboard-response","322","371011","0.0-1.0-438.0-0.0","0","0","60727","","null","","","null","48","","","","","","","","","","","","","","","",""
"","ITI","","html-keyboard-response","323","372019","0.0-1.0-441.0","0","0","60727","","null","","","null","48","","","","","","","","","","","","","","","NaN",""
"","S1","","html-keyboard-response","324","372286","0.0-1.0-443.0","0","0","60727","","null","","","null","49","","","","","","","","","","","","","","","",""
"","ISI","","html-keyboard-response","325","373299","0.0-1.0-444.0","0","0","60727","","null","","","null","49","NaN","","","","","","","","","","","","","","",""
"","S2","","html-keyboard-response","326","373503","0.0-1.0-445.0","0","0","60727","","200","","","75","49","","k","2","49","training","adjacent","AB","1","2","L.jpg","P.jpg","1","1","1","",""
"","feedback","","html-keyboard-response","327","374515","0.0-1.0-447.0-0.0","0","0","60727","","null","","","null","49","","","","","","","","","","","","","","","",""
"","ITI","","html-keyboard-response","328","375523","0.0-1.0-450.0","0","0","60727","","null","","","null","49","","","","","","","","","","","","","","","NaN",""
"","S1","","html-keyboard-response","329","375790","0.0-1.0-452.0","0","0","60727","","null","","","null","50","","","","","","","","","","","","","","","",""
"","ISI","","html-keyboard-response","330","376806","0.0-1.0-453.0","0","0","60727","","null","","","null","50","NaN","","","","","","","","","","","","","","",""
"","S2","","html-keyboard-response","331","377069","0.0-1.0-454.0","0","0","60727","","null","","","null","50","","NaN","","","","","","","","","","","","","",""
"","response","","html-keyboard-response","332","377072","0.0-1.0-455.0-0.0","0","0","60727","","0","","","68","50","","","2","50","training","adjacent","FG","6","7","M.jpg","N.jpg","0","1","0","",""
"","feedback","","html-keyboard-response","333","378083","0.0-1.0-456.0-0.0","0","0","60727","","null","","","null","50","","","","","","","","","","","","","","","",""
"","time_out","","html-keyboard-response","334","380095","0.0-1.0-458.0-0.0","0","0","60727","","null","","","null","50","","","","","","","","","","","","","","","",""
"","ITI","","html-keyboard-response","335","381109","0.0-1.0-459.0","0","0","60727","","null","","","null","50","","","","","","","","","","","","","","","NaN",""
"","S1","","html-keyboard-response","336","381373","0.0-1.0-461.0","0","0","60727","","null","","","null","51","","","","","","","","","","","","","","","",""
"","ISI","","html-keyboard-response","337","382388","0.0-1.0-462.0","0","0","60727","","null","","","null","51","NaN","","","","","","","","","","","","","","",""
"","S2","","html-keyboard-response","338","382653","0.0-1.0-463.0","0","0","60727","","null","","","null","51","","NaN","","","","","","","","","","","","","",""
"","response","","html-keyboard-response","339","382782","0.0-1.0-464.0-0.0","0","0","60727","","125","","","68","51","","","2","51","training","adjacent","DC","4","3","R.jpg","O.jpg","0","0","1","",""
"","feedback","","html-keyboard-response","340","383794","0.0-1.0-465.0-0.0","0","0","60727","","null","","","null","51","","","","","","","","","","","","","","","",""
"","ITI","","html-keyboard-response","341","384804","0.0-1.0-468.0","0","0","60727","","null","","","null","51","","","","","","","","","","","","","","","NaN",""
"","S1","","html-keyboard-response","342","385069","0.0-1.0-470.0","0","0","60727","","null","","","null","52","","","","","","","","","","","","","","","",""
"","ISI","","html-keyboard-response","343","386083","0.0-1.0-471.0","0","0","60727","","null","","","null","52","NaN","","","","","","","","","","","","","","",""
"","S2","","html-keyboard-response","344","386349","0.0-1.0-472.0","0","0","60727","","null","","","null","52","","NaN","","","","","","","","","","","","","",""
"","response","","html-keyboard-response","345","386352","0.0-1.0-473.0-0.0","0","0","60727","","0","","","75","52","","","2","52","training","adjacent","ED","5","4","Q.jpg","R.jpg","1","0","0","",""
"","feedback","","html-keyboard-response","346","387362","0.0-1.0-474.0-0.0","0","0","60727","","null","","","null","52","","","","","","","","","","","","","","","",""
"","time_out","","html-keyboard-response","347","389373","0.0-1.0-476.0-0.0","0","0","60727","","null","","","null","52","","","","","","","","","","","","","","","",""
"","ITI","","html-keyboard-response","348","390388","0.0-1.0-477.0","0","0","60727","","null","","","null","52","","","","","","","","","","","","","","","NaN",""
"","S1","","html-keyboard-response","349","390653","0.0-1.0-479.0","0","0","60727","","null","","","null","53","","","","","","","","","","","","","","","",""
"","ISI","","html-keyboard-response","350","391667","0.0-1.0-480.0","0","0","60727","","null","","","null","53","NaN","","","","","","","","","","","","","","",""
"","S2","","html-keyboard-response","351","391928","0.0-1.0-481.0","0","0","60727","","256","","","75","53","","k","2","53","training","adjacent","CD","3","4","O.jpg","R.jpg","1","1","1","",""
"","feedback","","html-keyboard-response","352","392941","0.0-1.0-483.0-0.0","0","0","60727","","null","","","null","53","","","","","","","","","","","","","","","",""
"","ITI","","html-keyboard-response","353","393954","0.0-1.0-486.0","0","0","60727","","null","","","null","53","","","","","","","","","","","","","","","NaN",""
"","S1","","html-keyboard-response","354","394221","0.0-1.0-488.0","0","0","60727","","null","","","null","54","","","","","","","","","","","","","","","",""
"","ISI","","html-keyboard-response","355","395234","0.0-1.0-489.0","0","0","60727","","null","","","null","54","NaN","","","","","","","","","","","","","","",""
"","S2","","html-keyboard-response","356","395501","0.0-1.0-490.0","0","0","60727","","null","","","null","54","","NaN","","","","","","","","","","","","","",""
"","response","","html-keyboard-response","357","395530","0.0-1.0-491.0-0.0","0","0","60727","","25","","","68","54","","","2","54","training","adjacent","CB","3","2","O.jpg","P.jpg","0","0","1","",""
"","feedback","","html-keyboard-response","358","396537","0.0-1.0-492.0-0.0","0","0","60727","","null","","","null","54","","","","","","","","","","","","","","","",""
"","ITI","","html-keyboard-response","359","397549","0.0-1.0-495.0","0","0","60727","","null","","","null","54","","","","","","","","","","","","","","","NaN",""
"","S1","","html-keyboard-response","360","397810","0.0-1.0-497.0","0","0","60727","","null","","","null","55","","","","","","","","","","","","","","","",""
"","ISI","","html-keyboard-response","361","398820","0.0-1.0-498.0","0","0","60727","","null","","","null","55","NaN","","","","","","","","","","","","","","",""
"","S2","","html-keyboard-response","362","399084","0.0-1.0-499.0","0","0","60727","","null","","","null","55","","NaN","","","","","","","","","","","","","",""
"","response","","html-keyboard-response","363","399141","0.0-1.0-500.0-0.0","0","0","60727","","53","","","68","55","","","2","55","training","adjacent","GF","7","6","N.jpg","M.jpg","0","0","1","",""
"","feedback","","html-keyboard-response","364","400157","0.0-1.0-501.0-0.0","0","0","60727","","null","","","null","55","","","","","","","","","","","","","","","",""
"","ITI","","html-keyboard-response","365","401172","0.0-1.0-504.0","0","0","60727","","null","","","null","55","","","","","","","","","","","","","","","NaN",""
"","S1","","html-keyboard-response","366","401437","0.0-1.0-506.0","0","0","60727","","null","","","null","56","","","","","","","","","","","","","","","",""
"","ISI","","html-keyboard-response","367","402453","0.0-1.0-507.0","0","0","60727","","null","","","null","56","NaN","","","","","","","","","","","","","","",""
"","S2","","html-keyboard-response","368","402717","0.0-1.0-508.0","0","0","60727","","null","","","null","56","","NaN","","","","","","","","","","","","","",""
"","response","","html-keyboard-response","369","402728","0.0-1.0-509.0-0.0","0","0","60727","","7","","","75","56","","","2","56","training","adjacent","FG","6","7","M.jpg","N.jpg","1","1","1","",""
"","feedback","","html-keyboard-response","370","403741","0.0-1.0-510.0-0.0","0","0","60727","","null","","","null","56","","","","","","","","","","","","","","","",""
"","ITI","","html-keyboard-response","371","404753","0.0-1.0-513.0","0","0","60727","","null","","","null","56","","","","","","","","","","","","","","","NaN",""
"","S1","","html-keyboard-response","372","405020","0.0-1.0-515.0","0","0","60727","","null","","","null","57","","","","","","","","","","","","","","","",""
"","ISI","","html-keyboard-response","373","406036","0.0-1.0-516.0","0","0","60727","","null","","","null","57","NaN","","","","","","","","","","","","","","",""
"","S2","","html-keyboard-response","374","406300","0.0-1.0-517.0","0","0","60727","","null","","","null","57","","NaN","","","","","","","","","","","","","",""
"","response","","html-keyboard-response","375","406357","0.0-1.0-518.0-0.0","0","0","60727","","53","","","75","57","","","2","57","training","adjacent","AB","1","2","L.jpg","P.jpg","1","1","1","",""
"","feedback","","html-keyboard-response","376","407372","0.0-1.0-519.0-0.0","0","0","60727","","null","","","null","57","","","","","","","","","","","","","","","",""
"","ITI","","html-keyboard-response","377","408387","0.0-1.0-522.0","0","0","60727","","null","","","null","57","","","","","","","","","","","","","","","NaN",""
"","S1","","html-keyboard-response","378","408653","0.0-1.0-524.0","0","0","60727","","null","","","null","58","","","","","","","","","","","","","","","",""
"","ISI","","html-keyboard-response","379","409667","0.0-1.0-525.0","0","0","60727","","null","","","null","58","NaN","","","","","","","","","","","","","","",""
"","S2","","html-keyboard-response","380","409931","0.0-1.0-526.0","0","0","60727","","null","","","null","58","","NaN","","","","","","","","","","","","","",""
"","response","","html-keyboard-response","381","409941","0.0-1.0-527.0-0.0","0","0","60727","","8","","","68","58","","","2","58","training","adjacent","CD","3","4","O.jpg","R.jpg","0","1","0","",""
"","feedback","","html-keyboard-response","382","410956","0.0-1.0-528.0-0.0","0","0","60727","","null","","","null","58","","","","","","","","","","","","","","","",""
"","time_out","","html-keyboard-response","383","412972","0.0-1.0-530.0-0.0","0","0","60727","","null","","","null","58","","","","","","","","","","","","","","","",""
"","ITI","","html-keyboard-response","384","413987","0.0-1.0-531.0","0","0","60727","","null","","","null","58","","","","","","","","","","","","","","","NaN",""
"","S1","","html-keyboard-response","385","414252","0.0-1.0-533.0","0","0","60727","","null","","","null","59","","","","","","","","","","","","","","","",""
"","ISI","","html-keyboard-response","386","415268","0.0-1.0-534.0","0","0","60727","","null","","","null","59","NaN","","","","","","","","","","","","","","",""
"","S2","","html-keyboard-response","387","415520","0.0-1.0-535.0","0","0","60727","","246","","","68","59","","d","2","59","training","adjacent","BC","2","3","P.jpg","O.jpg","0","1","0","",""
"","feedback","","html-keyboard-response","388","416529","0.0-1.0-537.0-0.0","0","0","60727","","null","","","null","59","","","","","","","","","","","","","","","",""
"","time_out","","html-keyboard-response","389","418540","0.0-1.0-539.0-0.0","0","0","60727","","null","","","null","59","","","","","","","","","","","","","","","",""
"","ITI","","html-keyboard-response","390","419553","0.0-1.0-540.0","0","0","60727","","null","","","null","59","","","","","","","","","","","","","","","NaN",""
"","S1","","html-keyboard-response","391","419820","0.0-1.0-542.0","0","0","60727","","null","","","null","60","","","","","","","","","","","","","","","",""
"","ISI","","html-keyboard-response","392","420837","0.0-1.0-543.0","0","0","60727","","null","","","null","60","NaN","","","","","","","","","","","","","","",""
"","S2","","html-keyboard-response","393","421100","0.0-1.0-544.0","0","0","60727","","null","","","null","60","","NaN","","","","","","","","","","","","","",""
"","response","","html-keyboard-response","394","421160","0.0-1.0-545.0-0.0","0","0","60727","","54","","","75","60","","","2","60","training","adjacent","DC","4","3","R.jpg","O.jpg","1","0","0","",""
"","feedback","","html-keyboard-response","395","422172","0.0-1.0-546.0-0.0","0","0","60727","","null","","","null","60","","","","","","","","","","","","","","","",""
"","time_out","","html-keyboard-response","396","424188","0.0-1.0-548.0-0.0","0","0","60727","","null","","","null","60","","","","","","","","","","","","","","","",""
"","ITI","","html-keyboard-response","397","425204","0.0-1.0-549.0","0","0","60727","","null","","","null","60","","","","","","","","","","","","","","","NaN",""
"","S1","","html-keyboard-response","398","425468","0.0-1.0-551.0","0","0","60727","","null","","","null","61","","","","","","","","","","","","","","","",""
"","ISI","","html-keyboard-response","399","426481","0.0-1.0-552.0","0","0","60727","","null","","","null","61","NaN","","","","","","","","","","","","","","",""
"","S2","","html-keyboard-response","400","426747","0.0-1.0-553.0","0","0","60727","","null","","","null","61","","NaN","","","","","","","","","","","","","",""
"","response","","html-keyboard-response","401","426860","0.0-1.0-554.0-0.0","0","0","60727","","108","","","68","61","","","2","61","training","adjacent","BC","2","3","P.jpg","O.jpg","0","1","0","",""
"","feedback","","html-keyboard-response","402","427874","0.0-1.0-555.0-0.0","0","0","60727","","null","","","null","61","","","","","","","","","","","","","","","",""
"","time_out","","html-keyboard-response","403","429884","0.0-1.0-557.0-0.0","0","0","60727","","null","","","null","61","","","","","","","","","","","","","","","",""
"","ITI","","html-keyboard-response","404","430897","0.0-1.0-558.0","0","0","60727","","null","","","null","61","","","","","","","","","","","","","","","NaN",""
"","S1","","html-keyboard-response","405","431164","0.0-1.0-560.0","0","0","60727","","null","","","null","62","","","","","","","","","","","","","","","",""
"","ISI","","html-keyboard-response","406","432177","0.0-1.0-561.0","0","0","60727","","null","","","null","62","NaN","","","","","","","","","","","","","","",""
"","S2","","html-keyboard-response","407","432264","0.0-1.0-562.0","0","0","60727","","82","","","75","62","","k","2","62","training","adjacent","EF","5","6","Q.jpg","M.jpg","1","1","1","",""
"","feedback","","html-keyboard-response","408","433275","0.0-1.0-564.0-0.0","0","0","60727","","null","","","null","62","","","","","","","","","","","","","","","",""
"","ITI","","html-keyboard-response","409","434291","0.0-1.0-567.0","0","0","60727","","null","","","null","62","","","","","","","","","","","","","","","NaN",""
"","S1","","html-keyboard-response","410","434555","0.0-1.0-569.0","0","0","60727","","null","","","null","63","","","","","","","","","","","","","","","",""
"","ISI","","html-keyboard-response","411","435569","0.0-1.0-570.0","0","0","60727","","null","","","null","63","NaN","","","","","","","","","","","","","","",""
"","S2","","html-keyboard-response","412","435835","0.0-1.0-571.0","0","0","60727","","null","","","null","63","","NaN","","","","","","","","","","","","","",""
"","response","","html-keyboard-response","413","435975","0.0-1.0-572.0-0.0","0","0","60727","","135","","","68","63","","","2","63","training","adjacent","ED","5","4","Q.jpg","R.jpg","0","0","1","",""
"","feedback","","html-keyboard-response","414","436987","0.0-1.0-573.0-0.0","0","0","60727","","null","","","null","63","","","","","","","","","","","","","","","",""
"","ITI","","html-keyboard-response","415","438002","0.0-1.0-576.0","0","0","60727","","null","","","null","63","","","","","","","","","","","","","","","NaN",""
"","S1","","html-keyboard-response","416","438268","0.0-1.0-578.0","0","0","60727","","null","","","null","64","","","","","","","","","","","","","","","",""
"","ISI","","html-keyboard-response","417","439280","0.0-1.0-579.0","0","0","60727","","null","","","null","64","NaN","","","","","","","","","","","","","","",""
"","S2","","html-keyboard-response","418","439547","0.0-1.0-580.0","0","0","60727","","null","","","null","64","","NaN","","","","","","","","","","","","","",""
"","response","","html-keyboard-response","419","439769","0.0-1.0-581.0-0.0","0","0","60727","","217","","","75","64","","","2","64","training","adjacent","EF","5","6","Q.jpg","M.jpg","1","1","1","",""
"","feedback","","html-keyboard-response","420","440779","0.0-1.0-582.0-0.0","0","0","60727","","null","","","null","64","","","","","","","","","","","","","","","",""
"","ITI","","html-keyboard-response","421","441794","0.0-1.0-585.0","0","0","60727","","null","","","null","64","","","","","","","","","","","","","","","NaN",""
"","S1","","html-keyboard-response","422","442059","0.0-1.0-587.0","0","0","60727","","null","","","null","65","","","","","","","","","","","","","","","",""
"","ISI","","html-keyboard-response","423","443072","0.0-1.0-588.0","0","0","60727","","null","","","null","65","NaN","","","","","","","","","","","","","","",""
"","S2","","html-keyboard-response","424","443339","0.0-1.0-589.0","0","0","60727","","null","","","null","65","","NaN","","","","","","","","","","","","","",""
"","response","","html-keyboard-response","425","443719","0.0-1.0-590.0-0.0","0","0","60727","","375","","","75","65","","","2","65","training","adjacent","DE","4","5","R.jpg","Q.jpg","1","1","1","",""
"","feedback","","html-keyboard-response","426","444731","0.0-1.0-591.0-0.0","0","0","60727","","null","","","null","65","","","","","","","","","","","","","","","",""
"","ITI","","html-keyboard-response","427","445744","0.0-1.0-594.0","0","0","60727","","null","","","null","65","","","","","","","","","","","","","","","NaN",""
"","S1","","html-keyboard-response","428","446010","0.0-1.0-596.0","0","0","60727","","null","","","null","66","","","","","","","","","","","","","","","",""
"","ISI","","html-keyboard-response","429","447028","0.0-1.0-597.0","0","0","60727","","null","","","null","66","NaN","","","","","","","","","","","","","","",""
"","S2","","html-keyboard-response","430","447261","0.0-1.0-598.0","0","0","60727","","228","","","68","66","","d","2","66","training","adjacent","CB","3","2","O.jpg","P.jpg","0","0","1","",""
"","feedback","","html-keyboard-response","431","448274","0.0-1.0-600.0-0.0","0","0","60727","","null","","","null","66","","","","","","","","","","","","","","","",""
"","ITI","","html-keyboard-response","432","449291","0.0-1.0-603.0","0","0","60727","","null","","","null","66","","","","","","","","","","","","","","","NaN",""
"","S1","","html-keyboard-response","433","449553","0.0-1.0-605.0","0","0","60727","","null","","","null","67","","","","","","","","","","","","","","","",""
"","ISI","","html-keyboard-response","434","450563","0.0-1.0-606.0","0","0","60727","","null","","","null","67","NaN","","","","","","","","","","","","","","",""
"","S2","","html-keyboard-response","435","450827","0.0-1.0-607.0","0","0","60727","","null","","","null","67","","NaN","","","","","","","","","","","","","",""
"","response","","html-keyboard-response","436","450836","0.0-1.0-608.0-0.0","0","0","60727","","6","","","68","67","","","2","67","training","adjacent","BA","2","1","P.jpg","L.jpg","0","0","1","",""
"","feedback","","html-keyboard-response","437","451850","0.0-1.0-609.0-0.0","0","0","60727","","null","","","null","67","","","","","","","","","","","","","","","",""
"","ITI","","html-keyboard-response","438","452863","0.0-1.0-612.0","0","0","60727","","null","","","null","67","","","","","","","","","","","","","","","NaN",""
"","S1","","html-keyboard-response","439","453120","0.0-1.0-614.0","0","0","60727","","null","","","null","68","","","","","","","","","","","","","","","",""
"","ISI","","html-keyboard-response","440","454128","0.0-1.0-615.0","0","0","60727","","null","","","null","68","NaN","","","","","","","","","","","","","","",""
"","S2","","html-keyboard-response","441","454394","0.0-1.0-616.0","0","0","60727","","null","","","null","68","","NaN","","","","","","","","","","","","","",""
"","response","","html-keyboard-response","442","454397","0.0-1.0-617.0-0.0","0","0","60727","","1","","","75","68","","","2","68","training","adjacent","FG","6","7","M.jpg","N.jpg","1","1","1","",""
"","feedback","","html-keyboard-response","443","455408","0.0-1.0-618.0-0.0","0","0","60727","","null","","","null","68","","","","","","","","","","","","","","","",""
"","ITI","","html-keyboard-response","444","456418","0.0-1.0-621.0","0","0","60727","","null","","","null","68","","","","","","","","","","","","","","","NaN",""
"","S1","","html-keyboard-response","445","456681","0.0-1.0-623.0","0","0","60727","","null","","","null","69","","","","","","","","","","","","","","","",""
"","ISI","","html-keyboard-response","446","457690","0.0-1.0-624.0","0","0","60727","","null","","","null","69","NaN","","","","","","","","","","","","","","",""
"","S2","","html-keyboard-response","447","457887","0.0-1.0-625.0","0","0","60727","","193","","","68","69","","d","2","69","training","adjacent","GF","7","6","N.jpg","M.jpg","0","0","1","",""
"","feedback","","html-keyboard-response","448","458895","0.0-1.0-627.0-0.0","0","0","60727","","null","","","null","69","","","","","","","","","","","","","","","",""
"","ITI","","html-keyboard-response","449","459904","0.0-1.0-630.0","0","0","60727","","null","","","null","69","","","","","","","","","","","","","","","NaN",""
"","S1","","html-keyboard-response","450","460170","0.0-1.0-632.0","0","0","60727","","null","","","null","70","","","","","","","","","","","","","","","",""
"","ISI","","html-keyboard-response","451","461187","0.0-1.0-633.0","0","0","60727","","null","","","null","70","NaN","","","","","","","","","","","","","","",""
"","S2","","html-keyboard-response","452","461449","0.0-1.0-634.0","0","0","60727","","null","","","null","70","","NaN","","","","","","","","","","","","","",""
"","response","","html-keyboard-response","453","461481","0.0-1.0-635.0-0.0","0","0","60727","","27","","","68","70","","","2","70","training","adjacent","CB","3","2","O.jpg","P.jpg","0","0","1","",""
"","feedback","","html-keyboard-response","454","462495","0.0-1.0-636.0-0.0","0","0","60727","","null","","","null","70","","","","","","","","","","","","","","","",""
"","ITI","","html-keyboard-response","455","463503","0.0-1.0-639.0","0","0","60727","","null","","","null","70","","","","","","","","","","","","","","","NaN",""
"","S1","","html-keyboard-response","456","463770","0.0-1.0-641.0","0","0","60727","","null","","","null","71","","","","","","","","","","","","","","","",""
"","ISI","","html-keyboard-response","457","464785","0.0-1.0-642.0","0","0","60727","","null","","","null","71","NaN","","","","","","","","","","","","","","",""
"","S2","","html-keyboard-response","458","465050","0.0-1.0-643.0","0","0","60727","","null","","","null","71","","NaN","","","","","","","","","","","","","",""
"","response","","html-keyboard-response","459","465123","0.0-1.0-644.0-0.0","0","0","60727","","69","","","68","71","","","2","71","training","adjacent","CB","3","2","O.jpg","P.jpg","0","0","1","",""
"","feedback","","html-keyboard-response","460","466138","0.0-1.0-645.0-0.0","0","0","60727","","null","","","null","71","","","","","","","","","","","","","","","",""
"","ITI","","html-keyboard-response","461","467151","0.0-1.0-648.0","0","0","60727","","null","","","null","71","","","","","","","","","","","","","","","NaN",""
"","S1","","html-keyboard-response","462","467418","0.0-1.0-650.0","0","0","60727","","null","","","null","72","","","","","","","","","","","","","","","",""
"","ISI","","html-keyboard-response","463","468431","0.0-1.0-651.0","0","0","60727","","null","","","null","72","NaN","","","","","","","","","","","","","","",""
"","S2","","html-keyboard-response","464","468698","0.0-1.0-652.0","0","0","60727","","null","","","null","72","","NaN","","","","","","","","","","","","","",""
"","response","","html-keyboard-response","465","468729","0.0-1.0-653.0-0.0","0","0","60727","","26","","","68","72","","","2","72","training","adjacent","EF","5","6","Q.jpg","M.jpg","0","1","0","",""
"","feedback","","html-keyboard-response","466","469746","0.0-1.0-654.0-0.0","0","0","60727","","null","","","null","72","","","","","","","","","","","","","","","",""
"","time_out","","html-keyboard-response","467","471761","0.0-1.0-656.0-0.0","0","0","60727","","null","","","null","72","","","","","","","","","","","","","","","",""
"","ITI","","html-keyboard-response","468","472778","0.0-1.0-657.0","0","0","60727","","null","","","null","72","","","","","","","","","","","","","","","NaN",""
"","S1","","html-keyboard-response","469","473042","0.0-1.0-659.0","0","0","60727","","null","","","null","73","","","","","","","","","","","","","","","",""
"","ISI","","html-keyboard-response","470","474058","0.0-1.0-660.0","0","0","60727","","null","","","null","73","NaN","","","","","","","","","","","","","","",""
"","S2","","html-keyboard-response","471","474319","0.0-1.0-661.0","0","0","60727","","null","","","null","73","","NaN","","","","","","","","","","","","","",""
"","response","","html-keyboard-response","472","474354","0.0-1.0-662.0-0.0","0","0","60727","","31","","","68","73","","","2","73","training","adjacent","CD","3","4","O.jpg","R.jpg","0","1","0","",""
"","feedback","","html-keyboard-response","473","475369","0.0-1.0-663.0-0.0","0","0","60727","","null","","","null","73","","","","","","","","","","","","","","","",""
"","time_out","","html-keyboard-response","474","477386","0.0-1.0-665.0-0.0","0","0","60727","","null","","","null","73","","","","","","","","","","","","","","","",""
"","ITI","","html-keyboard-response","475","478400","0.0-1.0-666.0","0","0","60727","","null","","","null","73","","","","","","","","","","","","","","","NaN",""
"","S1","","html-keyboard-response","476","478665","0.0-1.0-668.0","0","0","60727","","null","","","null","74","","","","","","","","","","","","","","","",""
"","ISI","","html-keyboard-response","477","479680","0.0-1.0-669.0","0","0","60727","","null","","","null","74","NaN","","","","","","","","","","","","","","",""
"","S2","","html-keyboard-response","478","479943","0.0-1.0-670.0","0","0","60727","","258","","","75","74","","k","2","74","training","adjacent","BA","2","1","P.jpg","L.jpg","1","0","0","",""
"","feedback","","html-keyboard-response","479","480953","0.0-1.0-672.0-0.0","0","0","60727","","null","","","null","74","","","","","","","","","","","","","","","",""
"","time_out","","html-keyboard-response","480","482969","0.0-1.0-674.0-0.0","0","0","60727","","null","","","null","74","","","","","","","","","","","","","","","",""
"","ITI","","html-keyboard-response","481","483984","0.0-1.0-675.0","0","0","60727","","null","","","null","74","","","","","","","","","","","","","","","NaN",""
"","S1","","html-keyboard-response","482","484249","0.0-1.0-677.0","0","0","60727","","null","","","null","75","","","","","","","","","","","","","","","",""
"","ISI","","html-keyboard-response","483","485264","0.0-1.0-678.0","0","0","60727","","null","","","null","75","NaN","","","","","","","","","","","","","","",""
"","S2","","html-keyboard-response","484","485529","0.0-1.0-679.0","0","0","60727","","null","","","null","75","","NaN","","","","","","","","","","","","","",""
"","response","","html-keyboard-response","485","485661","0.0-1.0-680.0-0.0","0","0","60727","","127","","","75","75","","","2","75","training","adjacent","DC","4","3","R.jpg","O.jpg","1","0","0","",""
"","feedback","","html-keyboard-response","486","486671","0.0-1.0-681.0-0.0","0","0","60727","","null","","","null","75","","","","","","","","","","","","","","","",""
"","time_out","","html-keyboard-response","487","488681","0.0-1.0-683.0-0.0","0","0","60727","","null","","","null","75","","","","","","","","","","","","","","","",""
"","ITI","","html-keyboard-response","488","489694","0.0-1.0-684.0","0","0","60727","","null","","","null","75","","","","","","","","","","","","","","","NaN",""
"","S1","","html-keyboard-response","489","489961","0.0-1.0-686.0","0","0","60727","","null","","","null","76","","","","","","","","","","","","","","","",""
"","ISI","","html-keyboard-response","490","490975","0.0-1.0-687.0","0","0","60727","","null","","","null","76","NaN","","","","","","","","","","","","","","",""
"","S2","","html-keyboard-response","491","491195","0.0-1.0-688.0","0","0","60727","","216","","","75","76","","k","2","76","training","adjacent","FE","6","5","M.jpg","Q.jpg","1","0","0","",""
"","feedback","","html-keyboard-response","492","492206","0.0-1.0-690.0-0.0","0","0","60727","","null","","","null","76","","","","","","","","","","","","","","","",""
"","time_out","","html-keyboard-response","493","494217","0.0-1.0-692.0-0.0","0","0","60727","","null","","","null","76","","","","","","","","","","","","","","","",""
"","ITI","","html-keyboard-response","494","495230","0.0-1.0-693.0","0","0","60727","","null","","","null","76","","","","","","","","","","","","","","","NaN",""
"","S1","","html-keyboard-response","495","495496","0.0-1.0-695.0","0","0","60727","","null","","","null","77","","","","","","","","","","","","","","","",""
"","ISI","","html-keyboard-response","496","496510","0.0-1.0-696.0","0","0","60727","","null","","","null","77","NaN","","","","","","","","","","","","","","",""
"","S2","","html-keyboard-response","497","496777","0.0-1.0-697.0","0","0","60727","","null","","","null","77","","NaN","","","","","","","","","","","","","",""
"","response","","html-keyboard-response","498","496870","0.0-1.0-698.0-0.0","0","0","60727","","90","","","68","77","","","2","77","training","adjacent","DE","4","5","R.jpg","Q.jpg","0","1","0","",""
"","feedback","","html-keyboard-response","499","497881","0.0-1.0-699.0-0.0","0","0","60727","","null","","","null","77","","","","","","","","","","","","","","","",""
"","time_out","","html-keyboard-response","500","499896","0.0-1.0-701.0-0.0","0","0","60727","","null","","","null","77","","","","","","","","","","","","","","","",""
"","ITI","","html-keyboard-response","501","500912","0.0-1.0-702.0","0","0","60727","","null","","","null","77","","","","","","","","","","","","","","","NaN",""
"","S1","","html-keyboard-response","502","501177","0.0-1.0-704.0","0","0","60727","","null","","","null","78","","","","","","","","","","","","","","","",""
"","ISI","","html-keyboard-response","503","502191","0.0-1.0-705.0","0","0","60727","","null","","","null","78","NaN","","","","","","","","","","","","","","",""
"","S2","","html-keyboard-response","504","502421","0.0-1.0-706.0","0","0","60727","","226","","","75","78","","k","2","78","training","adjacent","BA","2","1","P.jpg","L.jpg","1","0","0","",""
"","feedback","","html-keyboard-response","505","503432","0.0-1.0-708.0-0.0","0","0","60727","","null","","","null","78","","","","","","","","","","","","","","","",""
"","time_out","","html-keyboard-response","506","505448","0.0-1.0-710.0-0.0","0","0","60727","","null","","","null","78","","","","","","","","","","","","","","","",""
"","ITI","","html-keyboard-response","507","506462","0.0-1.0-711.0","0","0","60727","","null","","","null","78","","","","","","","","","","","","","","","NaN",""
"","S1","","html-keyboard-response","508","506728","0.0-1.0-713.0","0","0","60727","","null","","","null","79","","","","","","","","","","","","","","","",""
"","ISI","","html-keyboard-response","509","507743","0.0-1.0-714.0","0","0","60727","","null","","","null","79","NaN","","","","","","","","","","","","","","",""
"","S2","","html-keyboard-response","510","508008","0.0-1.0-715.0","0","0","60727","","null","","","null","79","","NaN","","","","","","","","","","","","","",""
"","response","","html-keyboard-response","511","508091","0.0-1.0-716.0-0.0","0","0","60727","","78","","","75","79","","","2","79","training","adjacent","DC","4","3","R.jpg","O.jpg","1","0","0","",""
"","feedback","","html-keyboard-response","512","509102","0.0-1.0-717.0-0.0","0","0","60727","","null","","","null","79","","","","","","","","","","","","","","","",""
"","time_out","","html-keyboard-response","513","511112","0.0-1.0-719.0-0.0","0","0","60727","","null","","","null","79","","","","","","","","","","","","","","","",""
"","ITI","","html-keyboard-response","514","512128","0.0-1.0-720.0","0","0","60727","","null","","","null","79","","","","","","","","","","","","","","","NaN",""
"","S1","","html-keyboard-response","515","512392","0.0-1.0-722.0","0","0","60727","","null","","","null","80","","","","","","","","","","","","","","","",""
"","ISI","","html-keyboard-response","516","513406","0.0-1.0-723.0","0","0","60727","","null","","","null","80","NaN","","","","","","","","","","","","","","",""
"","S2","","html-keyboard-response","517","513672","0.0-1.0-724.0","0","0","60727","","null","","","null","80","","NaN","","","","","","","","","","","","","",""
"","response","","html-keyboard-response","518","513827","0.0-1.0-725.0-0.0","0","0","60727","","151","","","68","80","","","2","80","training","adjacent","CD","3","4","O.jpg","R.jpg","0","1","0","",""
"","feedback","","html-keyboard-response","519","514842","0.0-1.0-726.0-0.0","0","0","60727","","null","","","null","80","","","","","","","","","","","","","","","",""
"","time_out","","html-keyboard-response","520","516855","0.0-1.0-728.0-0.0","0","0","60727","","null","","","null","80","","","","","","","","","","","","","","","",""
"","ITI","","html-keyboard-response","521","517869","0.0-1.0-729.0","0","0","60727","","null","","","null","80","","","","","","","","","","","","","","","NaN",""
"","S1","","html-keyboard-response","522","518136","0.0-1.0-731.0","0","0","60727","","null","","","null","81","","","","","","","","","","","","","","","",""
"","ISI","","html-keyboard-response","523","519148","0.0-1.0-732.0","0","0","60727","","null","","","null","81","NaN","","","","","","","","","","","","","","",""
"","S2","","html-keyboard-response","524","519416","0.0-1.0-733.0","0","0","60727","","null","","","null","81","","NaN","","","","","","","","","","","","","",""
"","response","","html-keyboard-response","525","519562","0.0-1.0-734.0-0.0","0","0","60727","","142","","","75","81","","","2","81","training","adjacent","EF","5","6","Q.jpg","M.jpg","1","1","1","",""
"","feedback","","html-keyboard-response","526","520573","0.0-1.0-735.0-0.0","0","0","60727","","null","","","null","81","","","","","","","","","","","","","","","",""
"","ITI","","html-keyboard-response","527","521582","0.0-1.0-738.0","0","0","60727","","null","","","null","81","","","","","","","","","","","","","","","NaN",""
"","S1","","html-keyboard-response","528","521848","0.0-1.0-740.0","0","0","60727","","null","","","null","82","","","","","","","","","","","","","","","",""
"","ISI","","html-keyboard-response","529","522862","0.0-1.0-741.0","0","0","60727","","null","","","null","82","NaN","","","","","","","","","","","","","","",""
"","S2","","html-keyboard-response","530","523127","0.0-1.0-742.0","0","0","60727","","null","","","null","82","","NaN","","","","","","","","","","","","","",""
"","response","","html-keyboard-response","531","523130","0.0-1.0-743.0-0.0","0","0","60727","","0","","","68","82","","","2","82","training","adjacent","ED","5","4","Q.jpg","R.jpg","0","0","1","",""
"","feedback","","html-keyboard-response","532","524143","0.0-1.0-744.0-0.0","0","0","60727","","null","","","null","82","","","","","","","","","","","","","","","",""
"","ITI","","html-keyboard-response","533","525159","0.0-1.0-747.0","0","0","60727","","null","","","null","82","","","","","","","","","","","","","","","NaN",""
"","S1","","html-keyboard-response","534","525423","0.0-1.0-749.0","0","0","60727","","null","","","null","83","","","","","","","","","","","","","","","",""
"","ISI","","html-keyboard-response","535","526439","0.0-1.0-750.0","0","0","60727","","null","","","null","83","NaN","","","","","","","","","","","","","","",""
"","S2","","html-keyboard-response","536","526675","0.0-1.0-751.0","0","0","60727","","231","","","75","83","","k","2","83","training","adjacent","FG","6","7","M.jpg","N.jpg","1","1","1","",""
"","feedback","","html-keyboard-response","537","527687","0.0-1.0-753.0-0.0","0","0","60727","","null","","","null","83","","","","","","","","","","","","","","","",""
"","ITI","","html-keyboard-response","538","528700","0.0-1.0-756.0","0","0","60727","","null","","","null","83","","","","","","","","","","","","","","","NaN",""
"","S1","","html-keyboard-response","539","528967","0.0-1.0-758.0","0","0","60727","","null","","","null","84","","","","","","","","","","","","","","","",""
"","ISI","","html-keyboard-response","540","529982","0.0-1.0-759.0","0","0","60727","","null","","","null","84","NaN","","","","","","","","","","","","","","",""
"","S2","","html-keyboard-response","541","530241","0.0-1.0-760.0","0","0","60727","","255","","","75","84","","k","2","84","training","adjacent","BC","2","3","P.jpg","O.jpg","1","1","1","",""
"","feedback","","html-keyboard-response","542","531255","0.0-1.0-762.0-0.0","0","0","60727","","null","","","null","84","","","","","","","","","","","","","","","",""
"","ITI","","html-keyboard-response","543","532268","0.0-1.0-765.0","0","0","60727","","null","","","null","84","","","","","","","","","","","","","","","NaN",""
"","S1","","html-keyboard-response","544","532534","0.0-1.0-767.0","0","0","60727","","null","","","null","85","","","","","","","","","","","","","","","",""
"","ISI","","html-keyboard-response","545","533551","0.0-1.0-768.0","0","0","60727","","null","","","null","85","NaN","","","","","","","","","","","","","","",""
"","S2","","html-keyboard-response","546","533815","0.0-1.0-769.0","0","0","60727","","null","","","null","85","","NaN","","","","","","","","","","","","","",""
"","response","","html-keyboard-response","547","533869","0.0-1.0-770.0-0.0","0","0","60727","","50","","","75","85","","","2","85","training","adjacent","BC","2","3","P.jpg","O.jpg","1","1","1","",""
"","feedback","","html-keyboard-response","548","534887","0.0-1.0-771.0-0.0","0","0","60727","","null","","","null","85","","","","","","","","","","","","","","","",""
"","ITI","","html-keyboard-response","549","535903","0.0-1.0-774.0","0","0","60727","","null","","","null","85","","","","","","","","","","","","","","","NaN",""
"","S1","","html-keyboard-response","550","536167","0.0-1.0-776.0","0","0","60727","","null","","","null","86","","","","","","","","","","","","","","","",""
"","ISI","","html-keyboard-response","551","537181","0.0-1.0-777.0","0","0","60727","","null","","","null","86","NaN","","","","","","","","","","","","","","",""
"","S2","","html-keyboard-response","552","537447","0.0-1.0-778.0","0","0","60727","","null","","","null","86","","NaN","","","","","","","","","","","","","",""
"","response","","html-keyboard-response","553","537493","0.0-1.0-779.0-0.0","0","0","60727","","42","","","75","86","","","2","86","training","adjacent","AB","1","2","L.jpg","P.jpg","1","1","1","",""
"","feedback","","html-keyboard-response","554","538502","0.0-1.0-780.0-0.0","0","0","60727","","null","","","null","86","","","","","","","","","","","","","","","",""
"","ITI","","html-keyboard-response","555","539516","0.0-1.0-783.0","0","0","60727","","null","","","null","86","","","","","","","","","","","","","","","NaN",""
"","S1","","html-keyboard-response","556","539782","0.0-1.0-785.0","0","0","60727","","null","","","null","87","","","","","","","","","","","","","","","",""
"","ISI","","html-keyboard-response","557","540796","0.0-1.0-786.0","0","0","60727","","null","","","null","87","NaN","","","","","","","","","","","","","","",""
"","S2","","html-keyboard-response","558","541062","0.0-1.0-787.0","0","0","60727","","null","","","null","87","","NaN","","","","","","","","","","","","","",""
"","response","","html-keyboard-response","559","541097","0.0-1.0-788.0-0.0","0","0","60727","","29","","","68","87","","","2","87","training","adjacent","FE","6","5","M.jpg","Q.jpg","0","0","1","",""
"","feedback","","html-keyboard-response","560","542110","0.0-1.0-789.0-0.0","0","0","60727","","null","","","null","87","","","","","","","","","","","","","","","",""
"","ITI","","html-keyboard-response","561","543126","0.0-1.0-792.0","0","0","60727","","null","","","null","87","","","","","","","","","","","","","","","NaN",""
"","S1","","html-keyboard-response","562","543387","0.0-1.0-794.0","0","0","60727","","null","","","null","88","","","","","","","","","","","","","","","",""
"","ISI","","html-keyboard-response","563","544396","0.0-1.0-795.0","0","0","60727","","null","","","null","88","NaN","","","","","","","","","","","","","","",""
"","S2","","html-keyboard-response","564","544598","0.0-1.0-796.0","0","0","60727","","197","","","75","88","","k","2","88","training","adjacent","GF","7","6","N.jpg","M.jpg","1","0","0","",""
"","feedback","","html-keyboard-response","565","545614","0.0-1.0-798.0-0.0","0","0","60727","","null","","","null","88","","","","","","","","","","","","","","","",""
"","time_out","","html-keyboard-response","566","547627","0.0-1.0-800.0-0.0","0","0","60727","","null","","","null","88","","","","","","","","","","","","","","","",""
"","ITI","","html-keyboard-response","567","548636","0.0-1.0-801.0","0","0","60727","","null","","","null","88","","","","","","","","","","","","","","","NaN",""
"","S1","","html-keyboard-response","568","548902","0.0-1.0-803.0","0","0","60727","","null","","","null","89","","","","","","","","","","","","","","","",""
"","ISI","","html-keyboard-response","569","549917","0.0-1.0-804.0","0","0","60727","","null","","","null","89","NaN","","","","","","","","","","","","","","",""
"","S2","","html-keyboard-response","570","550182","0.0-1.0-805.0","0","0","60727","","null","","","null","89","","NaN","","","","","","","","","","","","","",""
"","response","","html-keyboard-response","571","550232","0.0-1.0-806.0-0.0","0","0","60727","","46","","","68","89","","","2","89","training","adjacent","DE","4","5","R.jpg","Q.jpg","0","1","0","",""
"","feedback","","html-keyboard-response","572","551245","0.0-1.0-807.0-0.0","0","0","60727","","null","","","null","89","","","","","","","","","","","","","","","",""
"","time_out","","html-keyboard-response","573","553259","0.0-1.0-809.0-0.0","0","0","60727","","null","","","null","89","","","","","","","","","","","","","","","",""
"","ITI","","html-keyboard-response","574","554270","0.0-1.0-810.0","0","0","60727","","null","","","null","89","","","","","","","","","","","","","","","NaN",""
"","S1","","html-keyboard-response","575","554534","0.0-1.0-812.0","0","0","60727","","null","","","null","90","","","","","","","","","","","","","","","",""
"","ISI","","html-keyboard-response","576","555547","0.0-1.0-813.0","0","0","60727","","null","","","null","90","NaN","","","","","","","","","","","","","","",""
"","S2","","html-keyboard-response","577","555808","0.0-1.0-814.0","0","0","60727","","255","","","75","90","","k","2","90","training","adjacent","DE","4","5","R.jpg","Q.jpg","1","1","1","",""
"","feedback","","html-keyboard-response","578","556822","0.0-1.0-816.0-0.0","0","0","60727","","null","","","null","90","","","","","","","","","","","","","","","",""
"","ITI","","html-keyboard-response","579","557837","0.0-1.0-819.0","0","0","60727","","null","","","null","90","","","","","","","","","","","","","","","NaN",""
"","S1","","html-keyboard-response","580","558102","0.0-1.0-821.0","0","0","60727","","null","","","null","91","","","","","","","","","","","","","","","",""
"","ISI","","html-keyboard-response","581","559118","0.0-1.0-822.0","0","0","60727","","null","","","null","91","NaN","","","","","","","","","","","","","","",""
