"success","ttype","start_time","trial_type","trial_index","time_elapsed","internal_node_id","warning","missed_checkup","PID","view_history","rt","responses","repeat_instructions","key_press","index","keypress_isi","keypress_S2","block","trial_num","phase","group_type","pair_type","S1_stim","S2_stim","S1_img","S2_img","S1_chosen","S1_higher","accuracy","keypress_iti","total_bonus_tally"
"true","full_screen","d04132023hr1406","fullscreen","0","10138","0.0-0.0","0","0","14000","","","","","","","","","","","","","","","","","","","","","",""
"","instructions","","instructions","1","44224","0.0-1.0-0.0-0.0","0","0","14000","[{""page_index"":0,""viewing_time"":5213},{""page_index"":1,""viewing_time"":17937},{""page_index"":2,""viewing_time"":8808},{""page_index"":3,""viewing_time"":2127}]","34086","","","","","","","","","","","","","","","","","","","",""
"","comprehension_check","","survey-multi-choice","2","64353","0.0-1.0-0.0-1.0","0","0","14000","","20126","{""Q0"":""True"",""Q1"":""D"",""Q2"":""Only when the screen 'MAKE A CHOICE' is shown"",""Q3"":""Green mark"",""Q4"":""either D or K""}","1","","","","","","","","","","","","","","","","","",""
"","missed_instruction_checkup","","html-keyboard-response","3","66185","0.0-1.0-0.0-2.0-0.0","0","1","14000","","1830","","","32","","","","","","","","","","","","","","","","",""
"","instructions","","instructions","4","81680","0.0-1.0-0.1-0.1","0","0","14000","[{""page_index"":0,""viewing_time"":2342},{""page_index"":1,""viewing_time"":1104},{""page_index"":2,""viewing_time"":4888},{""page_index"":1,""viewing_time"":5897},{""page_index"":2,""viewing_time"":455},{""page_index"":3,""viewing_time"":808}]","15494","","","","","","","","","","","","","","","","","","","",""
"","comprehension_check","","survey-multi-choice","5","159153","0.0-1.0-0.1-1.1","0","0","14000","","77470","{""Q0"":""True"",""Q1"":""D"",""Q2"":""Once the second image appears and while the screen 'MAKE A CHOICE' is shown"",""Q3"":""Green mark"",""Q4"":""either D or K""}","0","","","","","","","","","","","","","","","","","",""
"","start_exp","","html-keyboard-response","6","165528","0.0-1.0-1.0","0","0","14000","","6374","","","32","","","","","","","","","","","","","","","","",""
"","S1","","html-keyboard-response","7","165781","0.0-1.0-2.0","0","0","14000","","null","","","null","0","","","","","","","","","","","","","","","",""
"","ISI","","html-keyboard-response","8","166783","0.0-1.0-3.0","0","0","14000","","null","","","null","0","NaN","","","","","","","","","","","","","","",""
"","S2","","html-keyboard-response","9","167036","0.0-1.0-4.0","0","0","14000","","null","","","null","0","","NaN","","","","","","","","","","","","","",""
"","response","","html-keyboard-response","10","167577","0.0-1.0-5.0-0.0","0","0","14000","","540","","","75","0","","","1","0","training","adjacent","GF","7","6","N.jpg","L.jpg","0","0","1","",""
"","feedback","","html-keyboard-response","11","168579","0.0-1.0-6.0-0.0","0","0","14000","","null","","","null","0","","","","","","","","","","","","","","","",""
"","ITI","","html-keyboard-response","12","169581","0.0-1.0-9.0","0","0","14000","","null","","","null","0","","","","","","","","","","","","","","","NaN",""
"","S1","","html-keyboard-response","13","169833","0.0-1.0-11.0","0","0","14000","","null","","","null","1","","","","","","","","","","","","","","","",""
"","ISI","","html-keyboard-response","14","170835","0.0-1.0-12.0","0","0","14000","","null","","","null","1","NaN","","","","","","","","","","","","","","",""
"","S2","","html-keyboard-response","15","171087","0.0-1.0-13.0","0","0","14000","","null","","","null","1","","NaN","","","","","","","","","","","","","",""
"","response","","html-keyboard-response","16","171465","0.0-1.0-14.0-0.0","0","0","14000","","377","","","75","1","","","1","1","training","adjacent","FG","6","7","L.jpg","N.jpg","0","1","0","",""
"","feedback","","html-keyboard-response","17","172468","0.0-1.0-15.0-0.0","0","0","14000","","null","","","null","1","","","","","","","","","","","","","","","",""
"","time_out","","html-keyboard-response","18","174469","0.0-1.0-17.0-0.0","0","0","14000","","null","","","null","1","","","","","","","","","","","","","","","",""
"","ITI","","html-keyboard-response","19","175471","0.0-1.0-18.0","0","0","14000","","null","","","null","1","","","","","","","","","","","","","","","NaN",""
"","S1","","html-keyboard-response","20","175723","0.0-1.0-20.0","0","0","14000","","null","","","null","2","","","","","","","","","","","","","","","",""
"","ISI","","html-keyboard-response","21","176725","0.0-1.0-21.0","0","0","14000","","null","","","null","2","NaN","","","","","","","","","","","","","","",""
"","S2","","html-keyboard-response","22","176978","0.0-1.0-22.0","0","0","14000","","null","","","null","2","","NaN","","","","","","","","","","","","","",""
"","response","","html-keyboard-response","23","177369","0.0-1.0-23.0-0.0","0","0","14000","","389","","","75","2","","","1","2","training","adjacent","DC","4","3","Q.jpg","P.jpg","0","0","1","",""
"","feedback","","html-keyboard-response","24","178374","0.0-1.0-24.0-0.0","0","0","14000","","null","","","null","2","","","","","","","","","","","","","","","",""
"","ITI","","html-keyboard-response","25","179376","0.0-1.0-27.0","0","0","14000","","null","","","null","2","","","","","","","","","","","","","","","NaN",""
"","S1","","html-keyboard-response","26","179630","0.0-1.0-29.0","0","0","14000","","null","","","null","3","","","","","","","","","","","","","","","",""
"","ISI","","html-keyboard-response","27","180632","0.0-1.0-30.0","0","0","14000","","null","","","null","3","NaN","","","","","","","","","","","","","","",""
"","S2","","html-keyboard-response","28","180884","0.0-1.0-31.0","0","0","14000","","null","","","null","3","","NaN","","","","","","","","","","","","","",""
"","response","","html-keyboard-response","29","181161","0.0-1.0-32.0-0.0","0","0","14000","","276","","","68","3","","","1","3","training","adjacent","GF","7","6","N.jpg","L.jpg","1","0","0","",""
"","feedback","","html-keyboard-response","30","182163","0.0-1.0-33.0-0.0","0","0","14000","","null","","","null","3","","","","","","","","","","","","","","","",""
"","time_out","","html-keyboard-response","31","184165","0.0-1.0-35.0-0.0","0","0","14000","","null","","","null","3","","","","","","","","","","","","","","","",""
"","ITI","","html-keyboard-response","32","185167","0.0-1.0-36.0","0","0","14000","","867","","","32","3","","","","","","","","","","","","","","","space",""
"","S1","","html-keyboard-response","33","185418","0.0-1.0-38.0","0","0","14000","","null","","","null","4","","","","","","","","","","","","","","","",""
"","ISI","","html-keyboard-response","34","186421","0.0-1.0-39.0","0","0","14000","","null","","","null","4","NaN","","","","","","","","","","","","","","",""
"","S2","","html-keyboard-response","35","186673","0.0-1.0-40.0","0","0","14000","","null","","","null","4","","NaN","","","","","","","","","","","","","",""
"","response","","html-keyboard-response","36","186937","0.0-1.0-41.0-0.0","0","0","14000","","263","","","75","4","","","1","4","training","adjacent","ED","5","4","R.jpg","Q.jpg","0","0","1","",""
"","feedback","","html-keyboard-response","37","187940","0.0-1.0-42.0-0.0","0","0","14000","","null","","","null","4","","","","","","","","","","","","","","","",""
"","ITI","","html-keyboard-response","38","188942","0.0-1.0-45.0","0","0","14000","","null","","","null","4","","","","","","","","","","","","","","","NaN",""
"","S1","","html-keyboard-response","39","189194","0.0-1.0-47.0","0","0","14000","","null","","","null","5","","","","","","","","","","","","","","","",""
"","ISI","","html-keyboard-response","40","190198","0.0-1.0-48.0","0","0","14000","","null","","","null","5","NaN","","","","","","","","","","","","","","",""
"","S2","","html-keyboard-response","41","190450","0.0-1.0-49.0","0","0","14000","","null","","","null","5","","NaN","","","","","","","","","","","","","",""
"","response","","html-keyboard-response","42","191081","0.0-1.0-50.0-0.0","0","0","14000","","630","","","68","5","","","1","5","training","adjacent","GF","7","6","N.jpg","L.jpg","1","0","0","",""
"","feedback","","html-keyboard-response","43","192083","0.0-1.0-51.0-0.0","0","0","14000","","null","","","null","5","","","","","","","","","","","","","","","",""
"","time_out","","html-keyboard-response","44","194085","0.0-1.0-53.0-0.0","0","0","14000","","null","","","null","5","","","","","","","","","","","","","","","",""
"","ITI","","html-keyboard-response","45","195086","0.0-1.0-54.0","0","0","14000","","null","","","null","5","","","","","","","","","","","","","","","NaN",""
"","S1","","html-keyboard-response","46","195338","0.0-1.0-56.0","0","0","14000","","null","","","null","6","","","","","","","","","","","","","","","",""
"","ISI","","html-keyboard-response","47","196341","0.0-1.0-57.0","0","0","14000","","null","","","null","6","NaN","","","","","","","","","","","","","","",""
"","S2","","html-keyboard-response","48","196593","0.0-1.0-58.0","0","0","14000","","null","","","null","6","","NaN","","","","","","","","","","","","","",""
"","response","","html-keyboard-response","49","197481","0.0-1.0-59.0-0.0","0","0","14000","","887","","","75","6","","","1","6","training","adjacent","CB","3","2","P.jpg","O.jpg","0","0","1","",""
"","feedback","","html-keyboard-response","50","198484","0.0-1.0-60.0-0.0","0","0","14000","","null","","","null","6","","","","","","","","","","","","","","","",""
"","ITI","","html-keyboard-response","51","199487","0.0-1.0-63.0","0","0","14000","","null","","","null","6","","","","","","","","","","","","","","","NaN",""
"","S1","","html-keyboard-response","52","199739","0.0-1.0-65.0","0","0","14000","","null","","","null","7","","","","","","","","","","","","","","","",""
"","ISI","","html-keyboard-response","53","200741","0.0-1.0-66.0","0","0","14000","","null","","","null","7","NaN","","","","","","","","","","","","","","",""
"","S2","","html-keyboard-response","54","200993","0.0-1.0-67.0","0","0","14000","","null","","","null","7","","NaN","","","","","","","","","","","","","",""
"","response","","html-keyboard-response","55","201337","0.0-1.0-68.0-0.0","0","0","14000","","343","","","68","7","","","1","7","training","adjacent","AB","1","2","M.jpg","O.jpg","1","1","1","",""
"","feedback","","html-keyboard-response","56","202339","0.0-1.0-69.0-0.0","0","0","14000","","null","","","null","7","","","","","","","","","","","","","","","",""
"","ITI","","html-keyboard-response","57","203340","0.0-1.0-72.0","0","0","14000","","null","","","null","7","","","","","","","","","","","","","","","NaN",""
"","S1","","html-keyboard-response","58","203592","0.0-1.0-74.0","0","0","14000","","null","","","null","8","","","","","","","","","","","","","","","",""
"","ISI","","html-keyboard-response","59","204594","0.0-1.0-75.0","0","0","14000","","null","","","null","8","NaN","","","","","","","","","","","","","","",""
"","S2","","html-keyboard-response","60","204846","0.0-1.0-76.0","0","0","14000","","null","","","null","8","","NaN","","","","","","","","","","","","","",""
"","response","","html-keyboard-response","61","205561","0.0-1.0-77.0-0.0","0","0","14000","","714","","","68","8","","","1","8","training","adjacent","AB","1","2","M.jpg","O.jpg","1","1","1","",""
"","feedback","","html-keyboard-response","62","206563","0.0-1.0-78.0-0.0","0","0","14000","","null","","","null","8","","","","","","","","","","","","","","","",""
"","ITI","","html-keyboard-response","63","207565","0.0-1.0-81.0","0","0","14000","","null","","","null","8","","","","","","","","","","","","","","","NaN",""
"","S1","","html-keyboard-response","64","207817","0.0-1.0-83.0","0","0","14000","","null","","","null","9","","","","","","","","","","","","","","","",""
"","ISI","","html-keyboard-response","65","208833","0.0-1.0-84.0","0","0","14000","","null","","","null","9","NaN","","","","","","","","","","","","","","",""
"","S2","","html-keyboard-response","66","209085","0.0-1.0-85.0","0","0","14000","","null","","","null","9","","NaN","","","","","","","","","","","","","",""
"","response","","html-keyboard-response","67","209497","0.0-1.0-86.0-0.0","0","0","14000","","411","","","75","9","","","1","9","training","adjacent","DC","4","3","Q.jpg","P.jpg","0","0","1","",""
"","feedback","","html-keyboard-response","68","210499","0.0-1.0-87.0-0.0","0","0","14000","","null","","","null","9","","","","","","","","","","","","","","","",""
"","ITI","","html-keyboard-response","69","211501","0.0-1.0-90.0","0","0","14000","","null","","","null","9","","","","","","","","","","","","","","","NaN",""
"","S1","","html-keyboard-response","70","211753","0.0-1.0-92.0","0","0","14000","","null","","","null","10","","","","","","","","","","","","","","","",""
"","ISI","","html-keyboard-response","71","212755","0.0-1.0-93.0","0","0","14000","","null","","","null","10","NaN","","","","","","","","","","","","","","",""
"","S2","","html-keyboard-response","72","213007","0.0-1.0-94.0","0","0","14000","","null","","","null","10","","NaN","","","","","","","","","","","","","",""
"","response","","html-keyboard-response","73","213705","0.0-1.0-95.0-0.0","0","0","14000","","697","","","68","10","","","1","10","training","adjacent","CD","3","4","P.jpg","Q.jpg","1","1","1","",""
"","feedback","","html-keyboard-response","74","214707","0.0-1.0-96.0-0.0","0","0","14000","","null","","","null","10","","","","","","","","","","","","","","","",""
"","ITI","","html-keyboard-response","75","215723","0.0-1.0-99.0","0","0","14000","","null","","","null","10","","","","","","","","","","","","","","","NaN",""
"","S1","","html-keyboard-response","76","215975","0.0-1.0-101.0","0","0","14000","","null","","","null","11","","","","","","","","","","","","","","","",""
"","ISI","","html-keyboard-response","77","216977","0.0-1.0-102.0","0","0","14000","","null","","","null","11","NaN","","","","","","","","","","","","","","",""
"","S2","","html-keyboard-response","78","217229","0.0-1.0-103.0","0","0","14000","","null","","","null","11","","NaN","","","","","","","","","","","","","",""
"","response","","html-keyboard-response","79","217897","0.0-1.0-104.0-0.0","0","0","14000","","666","","","68","11","","","1","11","training","adjacent","FE","6","5","L.jpg","R.jpg","1","0","0","",""
"","feedback","","html-keyboard-response","80","218900","0.0-1.0-105.0-0.0","0","0","14000","","null","","","null","11","","","","","","","","","","","","","","","",""
"","time_out","","html-keyboard-response","81","220902","0.0-1.0-107.0-0.0","0","0","14000","","null","","","null","11","","","","","","","","","","","","","","","",""
"","ITI","","html-keyboard-response","82","221904","0.0-1.0-108.0","0","0","14000","","null","","","null","11","","","","","","","","","","","","","","","NaN",""
"","S1","","html-keyboard-response","83","222157","0.0-1.0-110.0","0","0","14000","","null","","","null","12","","","","","","","","","","","","","","","",""
"","ISI","","html-keyboard-response","84","223159","0.0-1.0-111.0","0","0","14000","","null","","","null","12","NaN","","","","","","","","","","","","","","",""
"","S2","","html-keyboard-response","85","223411","0.0-1.0-112.0","0","0","14000","","null","","","null","12","","NaN","","","","","","","","","","","","","",""
"","response","","html-keyboard-response","86","223769","0.0-1.0-113.0-0.0","0","0","14000","","357","","","75","12","","","1","12","training","adjacent","GF","7","6","N.jpg","L.jpg","0","0","1","",""
"","feedback","","html-keyboard-response","87","224783","0.0-1.0-114.0-0.0","0","0","14000","","null","","","null","12","","","","","","","","","","","","","","","",""
"","ITI","","html-keyboard-response","88","225786","0.0-1.0-117.0","0","0","14000","","null","","","null","12","","","","","","","","","","","","","","","NaN",""
"","S1","","html-keyboard-response","89","226038","0.0-1.0-119.0","0","0","14000","","null","","","null","13","","","","","","","","","","","","","","","",""
"","ISI","","html-keyboard-response","90","227041","0.0-1.0-120.0","0","0","14000","","null","","","null","13","NaN","","","","","","","","","","","","","","",""
"","S2","","html-keyboard-response","91","227294","0.0-1.0-121.0","0","0","14000","","null","","","null","13","","NaN","","","","","","","","","","","","","",""
"","response","","html-keyboard-response","92","227705","0.0-1.0-122.0-0.0","0","0","14000","","410","","","68","13","","","1","13","training","adjacent","DE","4","5","Q.jpg","R.jpg","1","1","1","",""
"","feedback","","html-keyboard-response","93","228707","0.0-1.0-123.0-0.0","0","0","14000","","null","","","null","13","","","","","","","","","","","","","","","",""
"","ITI","","html-keyboard-response","94","229709","0.0-1.0-126.0","0","0","14000","","null","","","null","13","","","","","","","","","","","","","","","NaN",""
"","S1","","html-keyboard-response","95","229961","0.0-1.0-128.0","0","0","14000","","null","","","null","14","","","","","","","","","","","","","","","",""
"","ISI","","html-keyboard-response","96","230963","0.0-1.0-129.0","0","0","14000","","null","","","null","14","NaN","","","","","","","","","","","","","","",""
"","S2","","html-keyboard-response","97","231215","0.0-1.0-130.0","0","0","14000","","null","","","null","14","","NaN","","","","","","","","","","","","","",""
"","response","","html-keyboard-response","98","231545","0.0-1.0-131.0-0.0","0","0","14000","","329","","","75","14","","","1","14","training","adjacent","CD","3","4","P.jpg","Q.jpg","0","1","0","",""
"","feedback","","html-keyboard-response","99","232547","0.0-1.0-132.0-0.0","0","0","14000","","null","","","null","14","","","","","","","","","","","","","","","",""
"","time_out","","html-keyboard-response","100","234550","0.0-1.0-134.0-0.0","0","0","14000","","null","","","null","14","","","","","","","","","","","","","","","",""
"","ITI","","html-keyboard-response","101","235552","0.0-1.0-135.0","0","0","14000","","null","","","null","14","","","","","","","","","","","","","","","NaN",""
"","S1","","html-keyboard-response","102","235804","0.0-1.0-137.0","0","0","14000","","null","","","null","15","","","","","","","","","","","","","","","",""
"","ISI","","html-keyboard-response","103","236807","0.0-1.0-138.0","0","0","14000","","null","","","null","15","NaN","","","","","","","","","","","","","","",""
"","S2","","html-keyboard-response","104","237058","0.0-1.0-139.0","0","0","14000","","null","","","null","15","","NaN","","","","","","","","","","","","","",""
"","response","","html-keyboard-response","105","237497","0.0-1.0-140.0-0.0","0","0","14000","","438","","","75","15","","","1","15","training","adjacent","BC","2","3","O.jpg","P.jpg","0","1","0","",""
"","feedback","","html-keyboard-response","106","238499","0.0-1.0-141.0-0.0","0","0","14000","","null","","","null","15","","","","","","","","","","","","","","","",""
"","time_out","","html-keyboard-response","107","240501","0.0-1.0-143.0-0.0","0","0","14000","","null","","","null","15","","","","","","","","","","","","","","","",""
"","ITI","","html-keyboard-response","108","241502","0.0-1.0-144.0","0","0","14000","","null","","","null","15","","","","","","","","","","","","","","","NaN",""
"","S1","","html-keyboard-response","109","241754","0.0-1.0-146.0","0","0","14000","","null","","","null","16","","","","","","","","","","","","","","","",""
"","ISI","","html-keyboard-response","110","242756","0.0-1.0-147.0","0","0","14000","","null","","","null","16","NaN","","","","","","","","","","","","","","",""
"","S2","","html-keyboard-response","111","243008","0.0-1.0-148.0","0","0","14000","","null","","","null","16","","NaN","","","","","","","","","","","","","",""
"","response","","html-keyboard-response","112","243273","0.0-1.0-149.0-0.0","0","0","14000","","264","","","68","16","","","1","16","training","adjacent","DE","4","5","Q.jpg","R.jpg","1","1","1","",""
"","feedback","","html-keyboard-response","113","244275","0.0-1.0-150.0-0.0","0","0","14000","","null","","","null","16","","","","","","","","","","","","","","","",""
"","ITI","","html-keyboard-response","114","245277","0.0-1.0-153.0","0","0","14000","","null","","","null","16","","","","","","","","","","","","","","","NaN",""
"","S1","","html-keyboard-response","115","245530","0.0-1.0-155.0","0","0","14000","","null","","","null","17","","","","","","","","","","","","","","","",""
"","ISI","","html-keyboard-response","116","246531","0.0-1.0-156.0","0","0","14000","","null","","","null","17","NaN","","","","","","","","","","","","","","",""
"","S2","","html-keyboard-response","117","246783","0.0-1.0-157.0","0","0","14000","","null","","","null","17","","NaN","","","","","","","","","","","","","",""
"","response","","html-keyboard-response","118","247081","0.0-1.0-158.0-0.0","0","0","14000","","297","","","75","17","","","1","17","training","adjacent","BA","2","1","O.jpg","M.jpg","0","0","1","",""
"","feedback","","html-keyboard-response","119","248082","0.0-1.0-159.0-0.0","0","0","14000","","null","","","null","17","","","","","","","","","","","","","","","",""
"","ITI","","html-keyboard-response","120","249084","0.0-1.0-162.0","0","0","14000","","null","","","null","17","","","","","","","","","","","","","","","NaN",""
"","S1","","html-keyboard-response","121","249336","0.0-1.0-164.0","0","0","14000","","null","","","null","18","","","","","","","","","","","","","","","",""
"","ISI","","html-keyboard-response","122","250338","0.0-1.0-165.0","0","0","14000","","null","","","null","18","NaN","","","","","","","","","","","","","","",""
"","S2","","html-keyboard-response","123","250590","0.0-1.0-166.0","0","0","14000","","null","","","null","18","","NaN","","","","","","","","","","","","","",""
"","response","","html-keyboard-response","124","251193","0.0-1.0-167.0-0.0","0","0","14000","","602","","","68","18","","","1","18","training","adjacent","FE","6","5","L.jpg","R.jpg","1","0","0","",""
"","feedback","","html-keyboard-response","125","252195","0.0-1.0-168.0-0.0","0","0","14000","","null","","","null","18","","","","","","","","","","","","","","","",""
"","time_out","","html-keyboard-response","126","254197","0.0-1.0-170.0-0.0","0","0","14000","","null","","","null","18","","","","","","","","","","","","","","","",""
"","ITI","","html-keyboard-response","127","255198","0.0-1.0-171.0","0","0","14000","","null","","","null","18","","","","","","","","","","","","","","","NaN",""
"","S1","","html-keyboard-response","128","255450","0.0-1.0-173.0","0","0","14000","","null","","","null","19","","","","","","","","","","","","","","","",""
"","ISI","","html-keyboard-response","129","256452","0.0-1.0-174.0","0","0","14000","","null","","","null","19","NaN","","","","","","","","","","","","","","",""
"","S2","","html-keyboard-response","130","256704","0.0-1.0-175.0","0","0","14000","","null","","","null","19","","NaN","","","","","","","","","","","","","",""
"","response","","html-keyboard-response","131","257225","0.0-1.0-176.0-0.0","0","0","14000","","519","","","68","19","","","1","19","training","adjacent","FG","6","7","L.jpg","N.jpg","1","1","1","",""
"","feedback","","html-keyboard-response","132","258227","0.0-1.0-177.0-0.0","0","0","14000","","null","","","null","19","","","","","","","","","","","","","","","",""
"","ITI","","html-keyboard-response","133","259230","0.0-1.0-180.0","0","0","14000","","null","","","null","19","","","","","","","","","","","","","","","NaN",""
"","S1","","html-keyboard-response","134","259482","0.0-1.0-182.0","0","0","14000","","null","","","null","20","","","","","","","","","","","","","","","",""
"","ISI","","html-keyboard-response","135","260498","0.0-1.0-183.0","0","0","14000","","null","","","null","20","NaN","","","","","","","","","","","","","","",""
"","S2","","html-keyboard-response","136","260763","0.0-1.0-184.0","0","0","14000","","null","","","null","20","","NaN","","","","","","","","","","","","","",""
"","response","","html-keyboard-response","137","261385","0.0-1.0-185.0-0.0","0","0","14000","","621","","","75","20","","","1","20","training","adjacent","CB","3","2","P.jpg","O.jpg","0","0","1","",""
"","feedback","","html-keyboard-response","138","262387","0.0-1.0-186.0-0.0","0","0","14000","","null","","","null","20","","","","","","","","","","","","","","","",""
"","ITI","","html-keyboard-response","139","263389","0.0-1.0-189.0","0","0","14000","","null","","","null","20","","","","","","","","","","","","","","","NaN",""
"","S1","","html-keyboard-response","140","263642","0.0-1.0-191.0","0","0","14000","","null","","","null","21","","","","","","","","","","","","","","","",""
"","ISI","","html-keyboard-response","141","264644","0.0-1.0-192.0","0","0","14000","","null","","","null","21","NaN","","","","","","","","","","","","","","",""
"","S2","","html-keyboard-response","142","264896","0.0-1.0-193.0","0","0","14000","","null","","","null","21","","NaN","","","","","","","","","","","","","",""
"","response","","html-keyboard-response","143","265113","0.0-1.0-194.0-0.0","0","0","14000","","216","","","75","21","","","1","21","training","adjacent","EF","5","6","R.jpg","L.jpg","0","1","0","",""
"","feedback","","html-keyboard-response","144","266115","0.0-1.0-195.0-0.0","0","0","14000","","null","","","null","21","","","","","","","","","","","","","","","",""
"","time_out","","html-keyboard-response","145","268117","0.0-1.0-197.0-0.0","0","0","14000","","null","","","null","21","","","","","","","","","","","","","","","",""
"","ITI","","html-keyboard-response","146","269119","0.0-1.0-198.0","0","0","14000","","null","","","null","21","","","","","","","","","","","","","","","NaN",""
"","S1","","html-keyboard-response","147","269371","0.0-1.0-200.0","0","0","14000","","null","","","null","22","","","","","","","","","","","","","","","",""
"","ISI","","html-keyboard-response","148","270373","0.0-1.0-201.0","0","0","14000","","null","","","null","22","NaN","","","","","","","","","","","","","","",""
"","S2","","html-keyboard-response","149","270625","0.0-1.0-202.0","0","0","14000","","null","","","null","22","","NaN","","","","","","","","","","","","","",""
"","response","","html-keyboard-response","150","270857","0.0-1.0-203.0-0.0","0","0","14000","","231","","","68","22","","","1","22","training","adjacent","BA","2","1","O.jpg","M.jpg","1","0","0","",""
"","feedback","","html-keyboard-response","151","271858","0.0-1.0-204.0-0.0","0","0","14000","","null","","","null","22","","","","","","","","","","","","","","","",""
"","time_out","","html-keyboard-response","152","273861","0.0-1.0-206.0-0.0","0","0","14000","","null","","","null","22","","","","","","","","","","","","","","","",""
"","ITI","","html-keyboard-response","153","274863","0.0-1.0-207.0","0","0","14000","","null","","","null","22","","","","","","","","","","","","","","","NaN",""
"","S1","","html-keyboard-response","154","275115","0.0-1.0-209.0","0","0","14000","","null","","","null","23","","","","","","","","","","","","","","","",""
"","ISI","","html-keyboard-response","155","276117","0.0-1.0-210.0","0","0","14000","","null","","","null","23","NaN","","","","","","","","","","","","","","",""
"","S2","","html-keyboard-response","156","276380","0.0-1.0-211.0","0","0","14000","","null","","","null","23","","NaN","","","","","","","","","","","","","",""
"","response","","html-keyboard-response","157","276489","0.0-1.0-212.0-0.0","0","0","14000","","107","","","75","23","","","1","23","training","adjacent","ED","5","4","R.jpg","Q.jpg","0","0","1","",""
"","feedback","","html-keyboard-response","158","277505","0.0-1.0-213.0-0.0","0","0","14000","","null","","","null","23","","","","","","","","","","","","","","","",""
"","ITI","","html-keyboard-response","159","278507","0.0-1.0-216.0","0","0","14000","","null","","","null","23","","","","","","","","","","","","","","","NaN",""
"","S1","","html-keyboard-response","160","278758","0.0-1.0-218.0","0","0","14000","","null","","","null","24","","","","","","","","","","","","","","","",""
"","ISI","","html-keyboard-response","161","279760","0.0-1.0-219.0","0","0","14000","","null","","","null","24","NaN","","","","","","","","","","","","","","",""
"","S2","","html-keyboard-response","162","280012","0.0-1.0-220.0","0","0","14000","","null","","","null","24","","NaN","","","","","","","","","","","","","",""
"","response","","html-keyboard-response","163","280217","0.0-1.0-221.0-0.0","0","0","14000","","204","","","68","24","","","1","24","training","adjacent","DC","4","3","Q.jpg","P.jpg","1","0","0","",""
"","feedback","","html-keyboard-response","164","281219","0.0-1.0-222.0-0.0","0","0","14000","","null","","","null","24","","","","","","","","","","","","","","","",""
"","time_out","","html-keyboard-response","165","283221","0.0-1.0-224.0-0.0","0","0","14000","","null","","","null","24","","","","","","","","","","","","","","","",""
"","ITI","","html-keyboard-response","166","284227","0.0-1.0-225.0","0","0","14000","","null","","","null","24","","","","","","","","","","","","","","","NaN",""
"","S1","","html-keyboard-response","167","284493","0.0-1.0-227.0","0","0","14000","","null","","","null","25","","","","","","","","","","","","","","","",""
"","ISI","","html-keyboard-response","168","285495","0.0-1.0-228.0","0","0","14000","","null","","","null","25","NaN","","","","","","","","","","","","","","",""
"","S2","","html-keyboard-response","169","285747","0.0-1.0-229.0","0","0","14000","","null","","","null","25","","NaN","","","","","","","","","","","","","",""
"","response","","html-keyboard-response","170","285929","0.0-1.0-230.0-0.0","0","0","14000","","181","","","75","25","","","1","25","training","adjacent","BA","2","1","O.jpg","M.jpg","0","0","1","",""
"","feedback","","html-keyboard-response","171","286931","0.0-1.0-231.0-0.0","0","0","14000","","null","","","null","25","","","","","","","","","","","","","","","",""
"","ITI","","html-keyboard-response","172","287933","0.0-1.0-234.0","0","0","14000","","null","","","null","25","","","","","","","","","","","","","","","NaN",""
"","S1","","html-keyboard-response","173","288185","0.0-1.0-236.0","0","0","14000","","null","","","null","26","","","","","","","","","","","","","","","",""
"","ISI","","html-keyboard-response","174","289187","0.0-1.0-237.0","0","0","14000","","null","","","null","26","NaN","","","","","","","","","","","","","","",""
"","S2","","html-keyboard-response","175","289452","0.0-1.0-238.0","0","0","14000","","null","","","null","26","","NaN","","","","","","","","","","","","","",""
"","response","","html-keyboard-response","176","289609","0.0-1.0-239.0-0.0","0","0","14000","","156","","","75","26","","","1","26","training","adjacent","EF","5","6","R.jpg","L.jpg","0","1","0","",""
"","feedback","","html-keyboard-response","177","290611","0.0-1.0-240.0-0.0","0","0","14000","","null","","","null","26","","","","","","","","","","","","","","","",""
"","time_out","","html-keyboard-response","178","292614","0.0-1.0-242.0-0.0","0","0","14000","","null","","","null","26","","","","","","","","","","","","","","","",""
"","ITI","","html-keyboard-response","179","293616","0.0-1.0-243.0","0","0","14000","","null","","","null","26","","","","","","","","","","","","","","","NaN",""
"","S1","","html-keyboard-response","180","293869","0.0-1.0-245.0","0","0","14000","","null","","","null","27","","","","","","","","","","","","","","","",""
"","ISI","","html-keyboard-response","181","294871","0.0-1.0-246.0","0","0","14000","","null","","","null","27","NaN","","","","","","","","","","","","","","",""
"","S2","","html-keyboard-response","182","295123","0.0-1.0-247.0","0","0","14000","","null","","","null","27","","NaN","","","","","","","","","","","","","",""
"","response","","html-keyboard-response","183","295401","0.0-1.0-248.0-0.0","0","0","14000","","277","","","68","27","","","1","27","training","adjacent","BA","2","1","O.jpg","M.jpg","1","0","0","",""
"","feedback","","html-keyboard-response","184","296402","0.0-1.0-249.0-0.0","0","0","14000","","null","","","null","27","","","","","","","","","","","","","","","",""
"","time_out","","html-keyboard-response","185","298404","0.0-1.0-251.0-0.0","0","0","14000","","null","","","null","27","","","","","","","","","","","","","","","",""
"","ITI","","html-keyboard-response","186","299406","0.0-1.0-252.0","0","0","14000","","null","","","null","27","","","","","","","","","","","","","","","NaN",""
"","S1","","html-keyboard-response","187","299659","0.0-1.0-254.0","0","0","14000","","null","","","null","28","","","","","","","","","","","","","","","",""
"","ISI","","html-keyboard-response","188","300672","0.0-1.0-255.0","0","0","14000","","null","","","null","28","NaN","","","","","","","","","","","","","","",""
"","S2","","html-keyboard-response","189","300925","0.0-1.0-256.0","0","0","14000","","null","","","null","28","","NaN","","","","","","","","","","","","","",""
"","response","","html-keyboard-response","190","301273","0.0-1.0-257.0-0.0","0","0","14000","","347","","","75","28","","","1","28","training","adjacent","EF","5","6","R.jpg","L.jpg","0","1","0","",""
"","feedback","","html-keyboard-response","191","302275","0.0-1.0-258.0-0.0","0","0","14000","","null","","","null","28","","","","","","","","","","","","","","","",""
"","time_out","","html-keyboard-response","192","304277","0.0-1.0-260.0-0.0","0","0","14000","","null","","","null","28","","","","","","","","","","","","","","","",""
"","ITI","","html-keyboard-response","193","305279","0.0-1.0-261.0","0","0","14000","","null","","","null","28","","","","","","","","","","","","","","","NaN",""
"","S1","","html-keyboard-response","194","305547","0.0-1.0-263.0","0","0","14000","","null","","","null","29","","","","","","","","","","","","","","","",""
"","ISI","","html-keyboard-response","195","306548","0.0-1.0-264.0","0","0","14000","","null","","","null","29","NaN","","","","","","","","","","","","","","",""
"","S2","","html-keyboard-response","196","306802","0.0-1.0-265.0","0","0","14000","","null","","","null","29","","NaN","","","","","","","","","","","","","",""
"","response","","html-keyboard-response","197","306953","0.0-1.0-266.0-0.0","0","0","14000","","150","","","68","29","","","1","29","training","adjacent","BC","2","3","O.jpg","P.jpg","1","1","1","",""
"","feedback","","html-keyboard-response","198","307955","0.0-1.0-267.0-0.0","0","0","14000","","null","","","null","29","","","","","","","","","","","","","","","",""
"","ITI","","html-keyboard-response","199","308957","0.0-1.0-270.0","0","0","14000","","null","","","null","29","","","","","","","","","","","","","","","NaN",""
"","S1","","html-keyboard-response","200","309209","0.0-1.0-272.0","0","0","14000","","null","","","null","30","","","","","","","","","","","","","","","",""
"","ISI","","html-keyboard-response","201","310211","0.0-1.0-273.0","0","0","14000","","null","","","null","30","NaN","","","","","","","","","","","","","","",""
"","S2","","html-keyboard-response","202","310463","0.0-1.0-274.0","0","0","14000","","null","","","null","30","","NaN","","","","","","","","","","","","","",""
"","response","","html-keyboard-response","203","310697","0.0-1.0-275.0-0.0","0","0","14000","","232","","","68","30","","","1","30","training","adjacent","ED","5","4","R.jpg","Q.jpg","1","0","0","",""
"","feedback","","html-keyboard-response","204","311700","0.0-1.0-276.0-0.0","0","0","14000","","null","","","null","30","","","","","","","","","","","","","","","",""
"","time_out","","html-keyboard-response","205","313702","0.0-1.0-278.0-0.0","0","0","14000","","null","","","null","30","","","","","","","","","","","","","","","",""
"","ITI","","html-keyboard-response","206","314703","0.0-1.0-279.0","0","0","14000","","null","","","null","30","","","","","","","","","","","","","","","NaN",""
"","S1","","html-keyboard-response","207","314955","0.0-1.0-281.0","0","0","14000","","null","","","null","31","","","","","","","","","","","","","","","",""
"","ISI","","html-keyboard-response","208","315958","0.0-1.0-282.0","0","0","14000","","null","","","null","31","NaN","","","","","","","","","","","","","","",""
"","S2","","html-keyboard-response","209","316211","0.0-1.0-283.0","0","0","14000","","null","","","null","31","","NaN","","","","","","","","","","","","","",""
"","response","","html-keyboard-response","210","316473","0.0-1.0-284.0-0.0","0","0","14000","","261","","","75","31","","","1","31","training","adjacent","DC","4","3","Q.jpg","P.jpg","0","0","1","",""
"","feedback","","html-keyboard-response","211","317475","0.0-1.0-285.0-0.0","0","0","14000","","null","","","null","31","","","","","","","","","","","","","","","",""
"","ITI","","html-keyboard-response","212","318478","0.0-1.0-288.0","0","0","14000","","null","","","null","31","","","","","","","","","","","","","","","NaN",""
"","S1","","html-keyboard-response","213","318730","0.0-1.0-290.0","0","0","14000","","null","","","null","32","","","","","","","","","","","","","","","",""
"","ISI","","html-keyboard-response","214","319732","0.0-1.0-291.0","0","0","14000","","null","","","null","32","NaN","","","","","","","","","","","","","","",""
"","S2","","html-keyboard-response","215","319984","0.0-1.0-292.0","0","0","14000","","null","","","null","32","","NaN","","","","","","","","","","","","","",""
"","response","","html-keyboard-response","216","320393","0.0-1.0-293.0-0.0","0","0","14000","","408","","","68","32","","","1","32","training","adjacent","CD","3","4","P.jpg","Q.jpg","1","1","1","",""
"","feedback","","html-keyboard-response","217","321395","0.0-1.0-294.0-0.0","0","0","14000","","null","","","null","32","","","","","","","","","","","","","","","",""
"","ITI","","html-keyboard-response","218","322398","0.0-1.0-297.0","0","0","14000","","null","","","null","32","","","","","","","","","","","","","","","NaN",""
"","S1","","html-keyboard-response","219","322650","0.0-1.0-299.0","0","0","14000","","null","","","null","33","","","","","","","","","","","","","","","",""
"","ISI","","html-keyboard-response","220","323652","0.0-1.0-300.0","0","0","14000","","null","","","null","33","NaN","","","","","","","","","","","","","","",""
"","S2","","html-keyboard-response","221","323904","0.0-1.0-301.0","0","0","14000","","null","","","null","33","","NaN","","","","","","","","","","","","","",""
"","response","","html-keyboard-response","222","324217","0.0-1.0-302.0-0.0","0","0","14000","","312","","","75","33","","","1","33","training","adjacent","FG","6","7","L.jpg","N.jpg","0","1","0","",""
"","feedback","","html-keyboard-response","223","325218","0.0-1.0-303.0-0.0","0","0","14000","","null","","","null","33","","","","","","","","","","","","","","","",""
"","time_out","","html-keyboard-response","224","327220","0.0-1.0-305.0-0.0","0","0","14000","","null","","","null","33","","","","","","","","","","","","","","","",""
"","ITI","","html-keyboard-response","225","328222","0.0-1.0-306.0","0","0","14000","","null","","","null","33","","","","","","","","","","","","","","","NaN",""
"","S1","","html-keyboard-response","226","328474","0.0-1.0-308.0","0","0","14000","","null","","","null","34","","","","","","","","","","","","","","","",""
"","ISI","","html-keyboard-response","227","329476","0.0-1.0-309.0","0","0","14000","","null","","","null","34","NaN","","","","","","","","","","","","","","",""
"","S2","","html-keyboard-response","228","329728","0.0-1.0-310.0","0","0","14000","","null","","","null","34","","NaN","","","","","","","","","","","","","",""
"","response","","html-keyboard-response","229","329945","0.0-1.0-311.0-0.0","0","0","14000","","216","","","68","34","","","1","34","training","adjacent","CB","3","2","P.jpg","O.jpg","1","0","0","",""
"","feedback","","html-keyboard-response","230","330947","0.0-1.0-312.0-0.0","0","0","14000","","null","","","null","34","","","","","","","","","","","","","","","",""
"","time_out","","html-keyboard-response","231","332949","0.0-1.0-314.0-0.0","0","0","14000","","null","","","null","34","","","","","","","","","","","","","","","",""
"","ITI","","html-keyboard-response","232","333951","0.0-1.0-315.0","0","0","14000","","null","","","null","34","","","","","","","","","","","","","","","NaN",""
"","S1","","html-keyboard-response","233","334203","0.0-1.0-317.0","0","0","14000","","null","","","null","35","","","","","","","","","","","","","","","",""
"","ISI","","html-keyboard-response","234","335205","0.0-1.0-318.0","0","0","14000","","null","","","null","35","NaN","","","","","","","","","","","","","","",""
"","S2","","html-keyboard-response","235","335433","0.0-1.0-319.0","0","0","14000","","226","","","75","35","","k","1","35","training","adjacent","EF","5","6","R.jpg","L.jpg","0","1","0","",""
"","feedback","","html-keyboard-response","236","336436","0.0-1.0-321.0-0.0","0","0","14000","","null","","","null","35","","","","","","","","","","","","","","","",""
"","time_out","","html-keyboard-response","237","338438","0.0-1.0-323.0-0.0","0","0","14000","","null","","","null","35","","","","","","","","","","","","","","","",""
"","ITI","","html-keyboard-response","238","339440","0.0-1.0-324.0","0","0","14000","","null","","","null","35","","","","","","","","","","","","","","","NaN",""
"","S1","","html-keyboard-response","239","339691","0.0-1.0-326.0","0","0","14000","","null","","","null","36","","","","","","","","","","","","","","","",""
"","ISI","","html-keyboard-response","240","340692","0.0-1.0-327.0","0","0","14000","","null","","","null","36","NaN","","","","","","","","","","","","","","",""
"","S2","","html-keyboard-response","241","340944","0.0-1.0-328.0","0","0","14000","","null","","","null","36","","NaN","","","","","","","","","","","","","",""
"","response","","html-keyboard-response","242","340970","0.0-1.0-329.0-0.0","0","0","14000","","25","","","75","36","","","1","36","training","adjacent","CD","3","4","P.jpg","Q.jpg","0","1","0","",""
"","feedback","","html-keyboard-response","243","341984","0.0-1.0-330.0-0.0","0","0","14000","","null","","","null","36","","","","","","","","","","","","","","","",""
"","time_out","","html-keyboard-response","244","344001","0.0-1.0-332.0-0.0","0","0","14000","","null","","","null","36","","","","","","","","","","","","","","","",""
"","ITI","","html-keyboard-response","245","345002","0.0-1.0-333.0","0","0","14000","","null","","","null","36","","","","","","","","","","","","","","","NaN",""
"","S1","","html-keyboard-response","246","345254","0.0-1.0-335.0","0","0","14000","","null","","","null","37","","","","","","","","","","","","","","","",""
"","ISI","","html-keyboard-response","247","346255","0.0-1.0-336.0","0","0","14000","","null","","","null","37","NaN","","","","","","","","","","","","","","",""
"","S2","","html-keyboard-response","248","346507","0.0-1.0-337.0","0","0","14000","","null","","","null","37","","NaN","","","","","","","","","","","","","",""
"","response","","html-keyboard-response","249","346856","0.0-1.0-338.0-0.0","0","0","14000","","348","","","68","37","","","1","37","training","adjacent","FE","6","5","L.jpg","R.jpg","1","0","0","",""
"","feedback","","html-keyboard-response","250","347858","0.0-1.0-339.0-0.0","0","0","14000","","null","","","null","37","","","","","","","","","","","","","","","",""
"","time_out","","html-keyboard-response","251","349861","0.0-1.0-341.0-0.0","0","0","14000","","null","","","null","37","","","","","","","","","","","","","","","",""
"","ITI","","html-keyboard-response","252","350863","0.0-1.0-342.0","0","0","14000","","null","","","null","37","","","","","","","","","","","","","","","NaN",""
"","S1","","html-keyboard-response","253","351116","0.0-1.0-344.0","0","0","14000","","null","","","null","38","","","","","","","","","","","","","","","",""
"","ISI","","html-keyboard-response","254","352117","0.0-1.0-345.0","0","0","14000","","null","","","null","38","NaN","","","","","","","","","","","","","","",""
"","S2","","html-keyboard-response","255","352381","0.0-1.0-346.0","0","0","14000","","null","","","null","38","","NaN","","","","","","","","","","","","","",""
"","response","","html-keyboard-response","256","352505","0.0-1.0-347.0-0.0","0","0","14000","","123","","","75","38","","","1","38","training","adjacent","BC","2","3","O.jpg","P.jpg","0","1","0","",""
"","feedback","","html-keyboard-response","257","353507","0.0-1.0-348.0-0.0","0","0","14000","","null","","","null","38","","","","","","","","","","","","","","","",""
"","time_out","","html-keyboard-response","258","355510","0.0-1.0-350.0-0.0","0","0","14000","","null","","","null","38","","","","","","","","","","","","","","","",""
"","ITI","","html-keyboard-response","259","356512","0.0-1.0-351.0","0","0","14000","","null","","","null","38","","","","","","","","","","","","","","","NaN",""
"","S1","","html-keyboard-response","260","356764","0.0-1.0-353.0","0","0","14000","","null","","","null","39","","","","","","","","","","","","","","","",""
"","ISI","","html-keyboard-response","261","357767","0.0-1.0-354.0","0","0","14000","","null","","","null","39","NaN","","","","","","","","","","","","","","",""
"","S2","","html-keyboard-response","262","358020","0.0-1.0-355.0","0","0","14000","","null","","","null","39","","NaN","","","","","","","","","","","","","",""
"","response","","html-keyboard-response","263","358041","0.0-1.0-356.0-0.0","0","0","14000","","20","","","68","39","","","1","39","training","adjacent","AB","1","2","M.jpg","O.jpg","1","1","1","",""
"","feedback","","html-keyboard-response","264","359044","0.0-1.0-357.0-0.0","0","0","14000","","null","","","null","39","","","","","","","","","","","","","","","",""
"","ITI","","html-keyboard-response","265","360046","0.0-1.0-360.0","0","0","14000","","null","","","null","39","","","","","","","","","","","","","","","NaN",""
"","S1","","html-keyboard-response","266","360299","0.0-1.0-362.0","0","0","14000","","null","","","null","40","","","","","","","","","","","","","","","",""
"","ISI","","html-keyboard-response","267","361301","0.0-1.0-363.0","0","0","14000","","null","","","null","40","NaN","","","","","","","","","","","","","","",""
"","S2","","html-keyboard-response","268","361545","0.0-1.0-364.0","0","0","14000","","242","","","68","40","","d","1","40","training","adjacent","AB","1","2","M.jpg","O.jpg","1","1","1","",""
"","feedback","","html-keyboard-response","269","362547","0.0-1.0-366.0-0.0","0","0","14000","","null","","","null","40","","","","","","","","","","","","","","","",""
"","ITI","","html-keyboard-response","270","363549","0.0-1.0-369.0","0","0","14000","","null","","","null","40","","","","","","","","","","","","","","","NaN",""
"","S1","","html-keyboard-response","271","363801","0.0-1.0-371.0","0","0","14000","","null","","","null","41","","","","","","","","","","","","","","","",""
"","ISI","","html-keyboard-response","272","364803","0.0-1.0-372.0","0","0","14000","","832","","","68","41","d","","","","","","","","","","","","","","",""
"","S2","","html-keyboard-response","273","365055","0.0-1.0-373.0","0","0","14000","","null","","","null","41","","NaN","","","","","","","","","","","","","",""
"","response","","html-keyboard-response","274","365241","0.0-1.0-374.0-0.0","0","0","14000","","185","","","68","41","","","1","41","training","adjacent","DE","4","5","Q.jpg","R.jpg","1","1","1","",""
"","feedback","","html-keyboard-response","275","366243","0.0-1.0-375.0-0.0","0","0","14000","","null","","","null","41","","","","","","","","","","","","","","","",""
"","ITI","","html-keyboard-response","276","367245","0.0-1.0-378.0","0","0","14000","","null","","","null","41","","","","","","","","","","","","","","","NaN",""
"","S1","","html-keyboard-response","277","367497","0.0-1.0-380.0","0","0","14000","","null","","","null","42","","","","","","","","","","","","","","","",""
"","ISI","","html-keyboard-response","278","368498","0.0-1.0-381.0","0","0","14000","","null","","","null","42","NaN","","","","","","","","","","","","","","",""
"","S2","","html-keyboard-response","279","368536","0.0-1.0-382.0","0","0","14000","","36","","","68","42","","d","1","42","training","adjacent","DE","4","5","Q.jpg","R.jpg","1","1","1","",""
"","feedback","","html-keyboard-response","280","369538","0.0-1.0-384.0-0.0","0","0","14000","","null","","","null","42","","","","","","","","","","","","","","","",""
"","ITI","","html-keyboard-response","281","370541","0.0-1.0-387.0","0","0","14000","","null","","","null","42","","","","","","","","","","","","","","","NaN",""
"","S1","","html-keyboard-response","282","370793","0.0-1.0-389.0","0","0","14000","","null","","","null","43","","","","","","","","","","","","","","","",""
"","ISI","","html-keyboard-response","283","371795","0.0-1.0-390.0","0","0","14000","","null","","","null","43","NaN","","","","","","","","","","","","","","",""
"","S2","","html-keyboard-response","284","372025","0.0-1.0-391.0","0","0","14000","","229","","","68","43","","d","1","43","training","adjacent","BC","2","3","O.jpg","P.jpg","1","1","1","",""
"","feedback","","html-keyboard-response","285","373029","0.0-1.0-393.0-0.0","0","0","14000","","null","","","null","43","","","","","","","","","","","","","","","",""
"","ITI","","html-keyboard-response","286","374032","0.0-1.0-396.0","0","0","14000","","null","","","null","43","","","","","","","","","","","","","","","NaN",""
"","S1","","html-keyboard-response","287","374284","0.0-1.0-398.0","0","0","14000","","null","","","null","44","","","","","","","","","","","","","","","",""
"","ISI","","html-keyboard-response","288","375286","0.0-1.0-399.0","0","0","14000","","null","","","null","44","NaN","","","","","","","","","","","","","","",""
"","S2","","html-keyboard-response","289","375384","0.0-1.0-400.0","0","0","14000","","97","","","68","44","","d","1","44","training","adjacent","FG","6","7","L.jpg","N.jpg","1","1","1","",""
"","feedback","","html-keyboard-response","290","376388","0.0-1.0-402.0-0.0","0","0","14000","","null","","","null","44","","","","","","","","","","","","","","","",""
"","ITI","","html-keyboard-response","291","377389","0.0-1.0-405.0","0","0","14000","","null","","","null","44","","","","","","","","","","","","","","","NaN",""
"","S1","","html-keyboard-response","292","377641","0.0-1.0-407.0","0","0","14000","","null","","","null","45","","","","","","","","","","","","","","","",""
"","ISI","","html-keyboard-response","293","378644","0.0-1.0-408.0","0","0","14000","","606","","","68","45","d","","","","","","","","","","","","","","",""
"","S2","","html-keyboard-response","294","378761","0.0-1.0-409.0","0","0","14000","","115","","","68","45","","d","1","45","training","adjacent","ED","5","4","R.jpg","Q.jpg","1","0","0","",""
"","feedback","","html-keyboard-response","295","379762","0.0-1.0-411.0-0.0","0","0","14000","","null","","","null","45","","","","","","","","","","","","","","","",""
"","time_out","","html-keyboard-response","296","381764","0.0-1.0-413.0-0.0","0","0","14000","","null","","","null","45","","","","","","","","","","","","","","","",""
"","ITI","","html-keyboard-response","297","382766","0.0-1.0-414.0","0","0","14000","","null","","","null","45","","","","","","","","","","","","","","","NaN",""
"","S1","","html-keyboard-response","298","383018","0.0-1.0-416.0","0","0","14000","","null","","","null","46","","","","","","","","","","","","","","","",""
"","ISI","","html-keyboard-response","299","384021","0.0-1.0-417.0","0","0","14000","","null","","","null","46","NaN","","","","","","","","","","","","","","",""
"","S2","","html-keyboard-response","300","384273","0.0-1.0-418.0","0","0","14000","","null","","","null","46","","NaN","","","","","","","","","","","","","",""
"","response","","html-keyboard-response","301","384280","0.0-1.0-419.0-0.0","0","0","14000","","6","","","68","46","","","1","46","training","adjacent","FE","6","5","L.jpg","R.jpg","1","0","0","",""
"","feedback","","html-keyboard-response","302","385282","0.0-1.0-420.0-0.0","0","0","14000","","null","","","null","46","","","","","","","","","","","","","","","",""
"","time_out","","html-keyboard-response","303","387285","0.0-1.0-422.0-0.0","0","0","14000","","null","","","null","46","","","","","","","","","","","","","","","",""
"","ITI","","html-keyboard-response","304","388287","0.0-1.0-423.0","0","0","14000","","null","","","null","46","","","","","","","","","","","","","","","NaN",""
"","S1","","html-keyboard-response","305","388539","0.0-1.0-425.0","0","0","14000","","null","","","null","47","","","","","","","","","","","","","","","",""
"","ISI","","html-keyboard-response","306","389547","0.0-1.0-426.0","0","0","14000","","null","","","null","47","NaN","","","","","","","","","","","","","","",""
"","S2","","html-keyboard-response","307","389800","0.0-1.0-427.0","0","0","14000","","null","","","null","47","","NaN","","","","","","","","","","","","","",""
"","response","","html-keyboard-response","308","390073","0.0-1.0-428.0-0.0","0","0","14000","","271","","","75","47","","","1","47","training","adjacent","CB","3","2","P.jpg","O.jpg","0","0","1","",""
"","feedback","","html-keyboard-response","309","391075","0.0-1.0-429.0-0.0","0","0","14000","","null","","","null","47","","","","","","","","","","","","","","","",""
"","ITI","","html-keyboard-response","310","392077","0.0-1.0-432.0","0","0","14000","","null","","","null","47","","","","","","","","","","","","","","","NaN",""
"","block_over","","html-keyboard-response","311","399083","0.0-1.0-433.0-0.0","0","0","14000","","7004","","","32","47","","","","","","","","","","","","","","","",""
"","S1","","html-keyboard-response","312","399335","0.0-1.0-434.0","0","0","14000","","null","","","null","48","","","","","","","","","","","","","","","",""
"","ISI","","html-keyboard-response","313","400337","0.0-1.0-435.0","0","0","14000","","null","","","null","48","NaN","","","","","","","","","","","","","","",""
"","S2","","html-keyboard-response","314","400589","0.0-1.0-436.0","0","0","14000","","null","","","null","48","","NaN","","","","","","","","","","","","","",""
"","response","","html-keyboard-response","315","400601","0.0-1.0-437.0-0.0","0","0","14000","","10","","","75","48","","","2","48","training","adjacent","FE","6","5","L.jpg","R.jpg","0","0","1","",""
"","feedback","","html-keyboard-response","316","401603","0.0-1.0-438.0-0.0","0","0","14000","","null","","","null","48","","","","","","","","","","","","","","","",""
"","ITI","","html-keyboard-response","317","402605","0.0-1.0-441.0","0","0","14000","","null","","","null","48","","","","","","","","","","","","","","","NaN",""
"","S1","","html-keyboard-response","318","402857","0.0-1.0-443.0","0","0","14000","","null","","","null","49","","","","","","","","","","","","","","","",""
"","ISI","","html-keyboard-response","319","403859","0.0-1.0-444.0","0","0","14000","","null","","","null","49","NaN","","","","","","","","","","","","","","",""
"","S2","","html-keyboard-response","320","404111","0.0-1.0-445.0","0","0","14000","","null","","","null","49","","NaN","","","","","","","","","","","","","",""
"","response","","html-keyboard-response","321","404362","0.0-1.0-446.0-0.0","0","0","14000","","249","","","75","49","","","2","49","training","adjacent","FG","6","7","L.jpg","N.jpg","0","1","0","",""
"","feedback","","html-keyboard-response","322","405364","0.0-1.0-447.0-0.0","0","0","14000","","null","","","null","49","","","","","","","","","","","","","","","",""
"","time_out","","html-keyboard-response","323","407367","0.0-1.0-449.0-0.0","0","0","14000","","null","","","null","49","","","","","","","","","","","","","","","",""
"","ITI","","html-keyboard-response","324","408369","0.0-1.0-450.0","0","0","14000","","null","","","null","49","","","","","","","","","","","","","","","NaN",""
"","S1","","html-keyboard-response","325","408621","0.0-1.0-452.0","0","0","14000","","null","","","null","50","","","","","","","","","","","","","","","",""
"","ISI","","html-keyboard-response","326","409624","0.0-1.0-453.0","0","0","14000","","null","","","null","50","NaN","","","","","","","","","","","","","","",""
"","S2","","html-keyboard-response","327","409674","0.0-1.0-454.0","0","0","14000","","48","","","68","50","","d","2","50","training","adjacent","DE","4","5","Q.jpg","R.jpg","1","1","1","",""
"","feedback","","html-keyboard-response","328","410676","0.0-1.0-456.0-0.0","0","0","14000","","null","","","null","50","","","","","","","","","","","","","","","",""
"","ITI","","html-keyboard-response","329","411678","0.0-1.0-459.0","0","0","14000","","null","","","null","50","","","","","","","","","","","","","","","NaN",""
"","S1","","html-keyboard-response","330","411931","0.0-1.0-461.0","0","0","14000","","null","","","null","51","","","","","","","","","","","","","","","",""
"","ISI","","html-keyboard-response","331","412933","0.0-1.0-462.0","0","0","14000","","null","","","null","51","NaN","","","","","","","","","","","","","","",""
"","S2","","html-keyboard-response","332","413185","0.0-1.0-463.0","0","0","14000","","null","","","null","51","","NaN","","","","","","","","","","","","","",""
"","response","","html-keyboard-response","333","413434","0.0-1.0-464.0-0.0","0","0","14000","","248","","","68","51","","","2","51","training","adjacent","BC","2","3","O.jpg","P.jpg","1","1","1","",""
"","feedback","","html-keyboard-response","334","414435","0.0-1.0-465.0-0.0","0","0","14000","","null","","","null","51","","","","","","","","","","","","","","","",""
"","ITI","","html-keyboard-response","335","415437","0.0-1.0-468.0","0","0","14000","","null","","","null","51","","","","","","","","","","","","","","","NaN",""
"","S1","","html-keyboard-response","336","415689","0.0-1.0-470.0","0","0","14000","","null","","","null","52","","","","","","","","","","","","","","","",""
"","ISI","","html-keyboard-response","337","416691","0.0-1.0-471.0","0","0","14000","","991","","","68","52","d","","","","","","","","","","","","","","",""
"","S2","","html-keyboard-response","338","416943","0.0-1.0-472.0","0","0","14000","","null","","","null","52","","NaN","","","","","","","","","","","","","",""
"","response","","html-keyboard-response","339","417146","0.0-1.0-473.0-0.0","0","0","14000","","201","","","68","52","","","2","52","training","adjacent","CD","3","4","P.jpg","Q.jpg","1","1","1","",""
"","feedback","","html-keyboard-response","340","418148","0.0-1.0-474.0-0.0","0","0","14000","","null","","","null","52","","","","","","","","","","","","","","","",""
"","ITI","","html-keyboard-response","341","419151","0.0-1.0-477.0","0","0","14000","","null","","","null","52","","","","","","","","","","","","","","","NaN",""
"","S1","","html-keyboard-response","342","419403","0.0-1.0-479.0","0","0","14000","","null","","","null","53","","","","","","","","","","","","","","","",""
"","ISI","","html-keyboard-response","343","420404","0.0-1.0-480.0","0","0","14000","","null","","","null","53","NaN","","","","","","","","","","","","","","",""
"","S2","","html-keyboard-response","344","420656","0.0-1.0-481.0","0","0","14000","","null","","","null","53","","NaN","","","","","","","","","","","","","",""
"","response","","html-keyboard-response","345","421241","0.0-1.0-482.0-0.0","0","0","14000","","584","","","75","53","","","2","53","training","adjacent","DE","4","5","Q.jpg","R.jpg","0","1","0","",""
"","feedback","","html-keyboard-response","346","422244","0.0-1.0-483.0-0.0","0","0","14000","","null","","","null","53","","","","","","","","","","","","","","","",""
"","time_out","","html-keyboard-response","347","424245","0.0-1.0-485.0-0.0","0","0","14000","","null","","","null","53","","","","","","","","","","","","","","","",""
"","ITI","","html-keyboard-response","348","425247","0.0-1.0-486.0","0","0","14000","","null","","","null","53","","","","","","","","","","","","","","","NaN",""
"","S1","","html-keyboard-response","349","425500","0.0-1.0-488.0","0","0","14000","","null","","","null","54","","","","","","","","","","","","","","","",""
"","ISI","","html-keyboard-response","350","426502","0.0-1.0-489.0","0","0","14000","","null","","","null","54","NaN","","","","","","","","","","","","","","",""
"","S2","","html-keyboard-response","351","426755","0.0-1.0-490.0","0","0","14000","","null","","","null","54","","NaN","","","","","","","","","","","","","",""
"","response","","html-keyboard-response","352","427161","0.0-1.0-491.0-0.0","0","0","14000","","405","","","68","54","","","2","54","training","adjacent","DC","4","3","Q.jpg","P.jpg","1","0","0","",""
"","feedback","","html-keyboard-response","353","428163","0.0-1.0-492.0-0.0","0","0","14000","","null","","","null","54","","","","","","","","","","","","","","","",""
"","time_out","","html-keyboard-response","354","430167","0.0-1.0-494.0-0.0","0","0","14000","","null","","","null","54","","","","","","","","","","","","","","","",""
"","ITI","","html-keyboard-response","355","431168","0.0-1.0-495.0","0","0","14000","","null","","","null","54","","","","","","","","","","","","","","","NaN",""
"","S1","","html-keyboard-response","356","431435","0.0-1.0-497.0","0","0","14000","","null","","","null","55","","","","","","","","","","","","","","","",""
"","ISI","","html-keyboard-response","357","432437","0.0-1.0-498.0","0","0","14000","","null","","","null","55","NaN","","","","","","","","","","","","","","",""
"","S2","","html-keyboard-response","358","432689","0.0-1.0-499.0","0","0","14000","","null","","","null","55","","NaN","","","","","","","","","","","","","",""
"","response","","html-keyboard-response","359","433017","0.0-1.0-500.0-0.0","0","0","14000","","327","","","75","55","","","2","55","training","adjacent","EF","5","6","R.jpg","L.jpg","0","1","0","",""
"","feedback","","html-keyboard-response","360","434020","0.0-1.0-501.0-0.0","0","0","14000","","null","","","null","55","","","","","","","","","","","","","","","",""
"","time_out","","html-keyboard-response","361","436022","0.0-1.0-503.0-0.0","0","0","14000","","null","","","null","55","","","","","","","","","","","","","","","",""
"","ITI","","html-keyboard-response","362","437023","0.0-1.0-504.0","0","0","14000","","null","","","null","55","","","","","","","","","","","","","","","NaN",""
"","S1","","html-keyboard-response","363","437275","0.0-1.0-506.0","0","0","14000","","null","","","null","56","","","","","","","","","","","","","","","",""
"","ISI","","html-keyboard-response","364","438277","0.0-1.0-507.0","0","0","14000","","null","","","null","56","NaN","","","","","","","","","","","","","","",""
"","S2","","html-keyboard-response","365","438530","0.0-1.0-508.0","0","0","14000","","null","","","null","56","","NaN","","","","","","","","","","","","","",""
"","response","","html-keyboard-response","366","438746","0.0-1.0-509.0-0.0","0","0","14000","","215","","","68","56","","","2","56","training","adjacent","EF","5","6","R.jpg","L.jpg","1","1","1","",""
"","feedback","","html-keyboard-response","367","439749","0.0-1.0-510.0-0.0","0","0","14000","","null","","","null","56","","","","","","","","","","","","","","","",""
"","ITI","","html-keyboard-response","368","440751","0.0-1.0-513.0","0","0","14000","","null","","","null","56","","","","","","","","","","","","","","","NaN",""
"","S1","","html-keyboard-response","369","441003","0.0-1.0-515.0","0","0","14000","","null","","","null","57","","","","","","","","","","","","","","","",""
"","ISI","","html-keyboard-response","370","442005","0.0-1.0-516.0","0","0","14000","","null","","","null","57","NaN","","","","","","","","","","","","","","",""
"","S2","","html-keyboard-response","371","442257","0.0-1.0-517.0","0","0","14000","","null","","","null","57","","NaN","","","","","","","","","","","","","",""
"","response","","html-keyboard-response","372","442298","0.0-1.0-518.0-0.0","0","0","14000","","40","","","68","57","","","2","57","training","adjacent","CB","3","2","P.jpg","O.jpg","1","0","0","",""
"","feedback","","html-keyboard-response","373","443301","0.0-1.0-519.0-0.0","0","0","14000","","null","","","null","57","","","","","","","","","","","","","","","",""
"","time_out","","html-keyboard-response","374","445302","0.0-1.0-521.0-0.0","0","0","14000","","null","","","null","57","","","","","","","","","","","","","","","",""
"","ITI","","html-keyboard-response","375","446304","0.0-1.0-522.0","0","0","14000","","null","","","null","57","","","","","","","","","","","","","","","NaN",""
"","S1","","html-keyboard-response","376","446557","0.0-1.0-524.0","0","0","14000","","null","","","null","58","","","","","","","","","","","","","","","",""
"","ISI","","html-keyboard-response","377","447559","0.0-1.0-525.0","0","0","14000","","null","","","null","58","NaN","","","","","","","","","","","","","","",""
"","S2","","html-keyboard-response","378","447811","0.0-1.0-526.0","0","0","14000","","null","","","null","58","","NaN","","","","","","","","","","","","","",""
"","response","","html-keyboard-response","379","448137","0.0-1.0-527.0-0.0","0","0","14000","","325","","","75","58","","","2","58","training","adjacent","AB","1","2","M.jpg","O.jpg","0","1","0","",""
"","feedback","","html-keyboard-response","380","449140","0.0-1.0-528.0-0.0","0","0","14000","","null","","","null","58","","","","","","","","","","","","","","","",""
"","time_out","","html-keyboard-response","381","451142","0.0-1.0-530.0-0.0","0","0","14000","","null","","","null","58","","","","","","","","","","","","","","","",""
"","ITI","","html-keyboard-response","382","452144","0.0-1.0-531.0","0","0","14000","","null","","","null","58","","","","","","","","","","","","","","","NaN",""
"","S1","","html-keyboard-response","383","452396","0.0-1.0-533.0","0","0","14000","","null","","","null","59","","","","","","","","","","","","","","","",""
"","ISI","","html-keyboard-response","384","453397","0.0-1.0-534.0","0","0","14000","","null","","","null","59","NaN","","","","","","","","","","","","","","",""
"","S2","","html-keyboard-response","385","453650","0.0-1.0-535.0","0","0","14000","","null","","","null","59","","NaN","","","","","","","","","","","","","",""
"","response","","html-keyboard-response","386","453785","0.0-1.0-536.0-0.0","0","0","14000","","134","","","68","59","","","2","59","training","adjacent","FG","6","7","L.jpg","N.jpg","1","1","1","",""
"","feedback","","html-keyboard-response","387","454788","0.0-1.0-537.0-0.0","0","0","14000","","null","","","null","59","","","","","","","","","","","","","","","",""
"","ITI","","html-keyboard-response","388","455789","0.0-1.0-540.0","0","0","14000","","null","","","null","59","","","","","","","","","","","","","","","NaN",""
"","S1","","html-keyboard-response","389","456041","0.0-1.0-542.0","0","0","14000","","null","","","null","60","","","","","","","","","","","","","","","",""
"","ISI","","html-keyboard-response","390","457043","0.0-1.0-543.0","0","0","14000","","null","","","null","60","NaN","","","","","","","","","","","","","","",""
"","S2","","html-keyboard-response","391","457296","0.0-1.0-544.0","0","0","14000","","null","","","null","60","","NaN","","","","","","","","","","","","","",""
"","response","","html-keyboard-response","392","457753","0.0-1.0-545.0-0.0","0","0","14000","","456","","","75","60","","","2","60","training","adjacent","DE","4","5","Q.jpg","R.jpg","0","1","0","",""
"","feedback","","html-keyboard-response","393","458755","0.0-1.0-546.0-0.0","0","0","14000","","null","","","null","60","","","","","","","","","","","","","","","",""
"","time_out","","html-keyboard-response","394","460756","0.0-1.0-548.0-0.0","0","0","14000","","null","","","null","60","","","","","","","","","","","","","","","",""
"","ITI","","html-keyboard-response","395","461758","0.0-1.0-549.0","0","0","14000","","null","","","null","60","","","","","","","","","","","","","","","NaN",""
"","S1","","html-keyboard-response","396","462011","0.0-1.0-551.0","0","0","14000","","null","","","null","61","","","","","","","","","","","","","","","",""
"","ISI","","html-keyboard-response","397","463020","0.0-1.0-552.0","0","0","14000","","null","","","null","61","NaN","","","","","","","","","","","","","","",""
"","S2","","html-keyboard-response","398","463272","0.0-1.0-553.0","0","0","14000","","null","","","null","61","","NaN","","","","","","","","","","","","","",""
"","response","","html-keyboard-response","399","463674","0.0-1.0-554.0-0.0","0","0","14000","","401","","","68","61","","","2","61","training","adjacent","GF","7","6","N.jpg","L.jpg","1","0","0","",""
"","feedback","","html-keyboard-response","400","464677","0.0-1.0-555.0-0.0","0","0","14000","","null","","","null","61","","","","","","","","","","","","","","","",""
"","time_out","","html-keyboard-response","401","466679","0.0-1.0-557.0-0.0","0","0","14000","","null","","","null","61","","","","","","","","","","","","","","","",""
"","ITI","","html-keyboard-response","402","467681","0.0-1.0-558.0","0","0","14000","","null","","","null","61","","","","","","","","","","","","","","","NaN",""
"","S1","","html-keyboard-response","403","467934","0.0-1.0-560.0","0","0","14000","","null","","","null","62","","","","","","","","","","","","","","","",""
"","ISI","","html-keyboard-response","404","468935","0.0-1.0-561.0","0","0","14000","","null","","","null","62","NaN","","","","","","","","","","","","","","",""
"","S2","","html-keyboard-response","405","469188","0.0-1.0-562.0","0","0","14000","","null","","","null","62","","NaN","","","","","","","","","","","","","",""
"","response","","html-keyboard-response","406","469225","0.0-1.0-563.0-0.0","0","0","14000","","37","","","68","62","","","2","62","training","adjacent","BA","2","1","O.jpg","M.jpg","1","0","0","",""
"","feedback","","html-keyboard-response","407","470227","0.0-1.0-564.0-0.0","0","0","14000","","null","","","null","62","","","","","","","","","","","","","","","",""
"","time_out","","html-keyboard-response","408","472229","0.0-1.0-566.0-0.0","0","0","14000","","null","","","null","62","","","","","","","","","","","","","","","",""
"","ITI","","html-keyboard-response","409","473231","0.0-1.0-567.0","0","0","14000","","null","","","null","62","","","","","","","","","","","","","","","NaN",""
"","S1","","html-keyboard-response","410","473483","0.0-1.0-569.0","0","0","14000","","null","","","null","63","","","","","","","","","","","","","","","",""
"","ISI","","html-keyboard-response","411","474486","0.0-1.0-570.0","0","0","14000","","null","","","null","63","NaN","","","","","","","","","","","","","","",""
"","S2","","html-keyboard-response","412","474649","0.0-1.0-571.0","0","0","14000","","162","","","75","63","","k","2","63","training","adjacent","GF","7","6","N.jpg","L.jpg","0","0","1","",""
"","feedback","","html-keyboard-response","413","475652","0.0-1.0-573.0-0.0","0","0","14000","","null","","","null","63","","","","","","","","","","","","","","","",""
"","ITI","","html-keyboard-response","414","476654","0.0-1.0-576.0","0","0","14000","","null","","","null","63","","","","","","","","","","","","","","","NaN",""
"","S1","","html-keyboard-response","415","476906","0.0-1.0-578.0","0","0","14000","","null","","","null","64","","","","","","","","","","","","","","","",""
"","ISI","","html-keyboard-response","416","477908","0.0-1.0-579.0","0","0","14000","","null","","","null","64","NaN","","","","","","","","","","","","","","",""
"","S2","","html-keyboard-response","417","478159","0.0-1.0-580.0","0","0","14000","","null","","","null","64","","NaN","","","","","","","","","","","","","",""
"","response","","html-keyboard-response","418","478169","0.0-1.0-581.0-0.0","0","0","14000","","9","","","68","64","","","2","64","training","adjacent","DC","4","3","Q.jpg","P.jpg","1","0","0","",""
"","feedback","","html-keyboard-response","419","479186","0.0-1.0-582.0-0.0","0","0","14000","","null","","","null","64","","","","","","","","","","","","","","","",""
"","time_out","","html-keyboard-response","420","481188","0.0-1.0-584.0-0.0","0","0","14000","","null","","","null","64","","","","","","","","","","","","","","","",""
"","ITI","","html-keyboard-response","421","482189","0.0-1.0-585.0","0","0","14000","","null","","","null","64","","","","","","","","","","","","","","","NaN",""
"","S1","","html-keyboard-response","422","482442","0.0-1.0-587.0","0","0","14000","","null","","","null","65","","","","","","","","","","","","","","","",""
"","ISI","","html-keyboard-response","423","483445","0.0-1.0-588.0","0","0","14000","","null","","","null","65","NaN","","","","","","","","","","","","","","",""
"","S2","","html-keyboard-response","424","483698","0.0-1.0-589.0","0","0","14000","","null","","","null","65","","NaN","","","","","","","","","","","","","",""
"","response","","html-keyboard-response","425","484042","0.0-1.0-590.0-0.0","0","0","14000","","343","","","75","65","","","2","65","training","adjacent","CD","3","4","P.jpg","Q.jpg","0","1","0","",""
"","feedback","","html-keyboard-response","426","485043","0.0-1.0-591.0-0.0","0","0","14000","","null","","","null","65","","","","","","","","","","","","","","","",""
"","time_out","","html-keyboard-response","427","487046","0.0-1.0-593.0-0.0","0","0","14000","","null","","","null","65","","","","","","","","","","","","","","","",""
"","ITI","","html-keyboard-response","428","488048","0.0-1.0-594.0","0","0","14000","","null","","","null","65","","","","","","","","","","","","","","","NaN",""
"","S1","","html-keyboard-response","429","488300","0.0-1.0-596.0","0","0","14000","","null","","","null","66","","","","","","","","","","","","","","","",""
"","ISI","","html-keyboard-response","430","489317","0.0-1.0-597.0","0","0","14000","","null","","","null","66","NaN","","","","","","","","","","","","","","",""
"","S2","","html-keyboard-response","431","489569","0.0-1.0-598.0","0","0","14000","","null","","","null","66","","NaN","","","","","","","","","","","","","",""
"","response","","html-keyboard-response","432","489690","0.0-1.0-599.0-0.0","0","0","14000","","120","","","68","66","","","2","66","training","adjacent","FG","6","7","L.jpg","N.jpg","1","1","1","",""
"","feedback","","html-keyboard-response","433","490691","0.0-1.0-600.0-0.0","0","0","14000","","null","","","null","66","","","","","","","","","","","","","","","",""
"","ITI","","html-keyboard-response","434","491694","0.0-1.0-603.0","0","0","14000","","null","","","null","66","","","","","","","","","","","","","","","NaN",""
"","S1","","html-keyboard-response","435","491947","0.0-1.0-605.0","0","0","14000","","null","","","null","67","","","","","","","","","","","","","","","",""
"","ISI","","html-keyboard-response","436","492949","0.0-1.0-606.0","0","0","14000","","null","","","null","67","NaN","","","","","","","","","","","","","","",""
"","S2","","html-keyboard-response","437","493201","0.0-1.0-607.0","0","0","14000","","null","","","null","67","","NaN","","","","","","","","","","","","","",""
"","response","","html-keyboard-response","438","493546","0.0-1.0-608.0-0.0","0","0","14000","","343","","","75","67","","","2","67","training","adjacent","CD","3","4","P.jpg","Q.jpg","0","1","0","",""
"","feedback","","html-keyboard-response","439","494548","0.0-1.0-609.0-0.0","0","0","14000","","null","","","null","67","","","","","","","","","","","","","","","",""
"","time_out","","html-keyboard-response","440","496550","0.0-1.0-611.0-0.0","0","0","14000","","null","","","null","67","","","","","","","","","","","","","","","",""
"","ITI","","html-keyboard-response","441","497551","0.0-1.0-612.0","0","0","14000","","null","","","null","67","","","","","","","","","","","","","","","NaN",""
"","S1","","html-keyboard-response","442","497805","0.0-1.0-614.0","0","0","14000","","null","","","null","68","","","","","","","","","","","","","","","",""
"","ISI","","html-keyboard-response","443","498807","0.0-1.0-615.0","0","0","14000","","null","","","null","68","NaN","","","","","","","","","","","","","","",""
"","S2","","html-keyboard-response","444","499058","0.0-1.0-616.0","0","0","14000","","null","","","null","68","","NaN","","","","","","","","","","","","","",""
"","response","","html-keyboard-response","445","499514","0.0-1.0-617.0-0.0","0","0","14000","","454","","","75","68","","","2","68","training","adjacent","ED","5","4","R.jpg","Q.jpg","0","0","1","",""
"","feedback","","html-keyboard-response","446","500517","0.0-1.0-618.0-0.0","0","0","14000","","null","","","null","68","","","","","","","","","","","","","","","",""
"","ITI","","html-keyboard-response","447","501519","0.0-1.0-621.0","0","0","14000","","null","","","null","68","","","","","","","","","","","","","","","NaN",""
"","S1","","html-keyboard-response","448","501772","0.0-1.0-623.0","0","0","14000","","null","","","null","69","","","","","","","","","","","","","","","",""
"","ISI","","html-keyboard-response","449","502774","0.0-1.0-624.0","0","0","14000","","null","","","null","69","NaN","","","","","","","","","","","","","","",""
"","S2","","html-keyboard-response","450","503025","0.0-1.0-625.0","0","0","14000","","null","","","null","69","","NaN","","","","","","","","","","","","","",""
"","response","","html-keyboard-response","451","503386","0.0-1.0-626.0-0.0","0","0","14000","","359","","","68","69","","","2","69","training","adjacent","ED","5","4","R.jpg","Q.jpg","1","0","0","",""
"","feedback","","html-keyboard-response","452","504387","0.0-1.0-627.0-0.0","0","0","14000","","null","","","null","69","","","","","","","","","","","","","","","",""
"","time_out","","html-keyboard-response","453","506391","0.0-1.0-629.0-0.0","0","0","14000","","null","","","null","69","","","","","","","","","","","","","","","",""
"","ITI","","html-keyboard-response","454","507393","0.0-1.0-630.0","0","0","14000","","null","","","null","69","","","","","","","","","","","","","","","NaN",""
"","S1","","html-keyboard-response","455","507645","0.0-1.0-632.0","0","0","14000","","null","","","null","70","","","","","","","","","","","","","","","",""
"","ISI","","html-keyboard-response","456","508648","0.0-1.0-633.0","0","0","14000","","null","","","null","70","NaN","","","","","","","","","","","","","","",""
"","S2","","html-keyboard-response","457","508900","0.0-1.0-634.0","0","0","14000","","null","","","null","70","","NaN","","","","","","","","","","","","","",""
"","response","","html-keyboard-response","458","509017","0.0-1.0-635.0-0.0","0","0","14000","","116","","","75","70","","","2","70","training","adjacent","AB","1","2","M.jpg","O.jpg","0","1","0","",""
"","feedback","","html-keyboard-response","459","510020","0.0-1.0-636.0-0.0","0","0","14000","","null","","","null","70","","","","","","","","","","","","","","","",""
"","time_out","","html-keyboard-response","460","512022","0.0-1.0-638.0-0.0","0","0","14000","","null","","","null","70","","","","","","","","","","","","","","","",""
"","ITI","","html-keyboard-response","461","513025","0.0-1.0-639.0","0","0","14000","","null","","","null","70","","","","","","","","","","","","","","","NaN",""
"","S1","","html-keyboard-response","462","513277","0.0-1.0-641.0","0","0","14000","","null","","","null","71","","","","","","","","","","","","","","","",""
"","ISI","","html-keyboard-response","463","514279","0.0-1.0-642.0","0","0","14000","","null","","","null","71","NaN","","","","","","","","","","","","","","",""
"","S2","","html-keyboard-response","464","514531","0.0-1.0-643.0","0","0","14000","","null","","","null","71","","NaN","","","","","","","","","","","","","",""
"","response","","html-keyboard-response","465","514554","0.0-1.0-644.0-0.0","0","0","14000","","22","","","68","71","","","2","71","training","adjacent","GF","7","6","N.jpg","L.jpg","1","0","0","",""
"","feedback","","html-keyboard-response","466","515556","0.0-1.0-645.0-0.0","0","0","14000","","null","","","null","71","","","","","","","","","","","","","","","",""
"","time_out","","html-keyboard-response","467","517558","0.0-1.0-647.0-0.0","0","0","14000","","null","","","null","71","","","","","","","","","","","","","","","",""
"","ITI","","html-keyboard-response","468","518561","0.0-1.0-648.0","0","0","14000","","null","","","null","71","","","","","","","","","","","","","","","NaN",""
"","S1","","html-keyboard-response","469","518812","0.0-1.0-650.0","0","0","14000","","null","","","null","72","","","","","","","","","","","","","","","",""
"","ISI","","html-keyboard-response","470","519826","0.0-1.0-651.0","0","0","14000","","null","","","null","72","NaN","","","","","","","","","","","","","","",""
"","S2","","html-keyboard-response","471","519994","0.0-1.0-652.0","0","0","14000","","166","","","75","72","","k","2","72","training","adjacent","FE","6","5","L.jpg","R.jpg","0","0","1","",""
"","feedback","","html-keyboard-response","472","520996","0.0-1.0-654.0-0.0","0","0","14000","","null","","","null","72","","","","","","","","","","","","","","","",""
"","ITI","","html-keyboard-response","473","521998","0.0-1.0-657.0","0","0","14000","","null","","","null","72","","","","","","","","","","","","","","","NaN",""
"","S1","","html-keyboard-response","474","522251","0.0-1.0-659.0","0","0","14000","","null","","","null","73","","","","","","","","","","","","","","","",""
"","ISI","","html-keyboard-response","475","523253","0.0-1.0-660.0","0","0","14000","","null","","","null","73","NaN","","","","","","","","","","","","","","",""
"","S2","","html-keyboard-response","476","523505","0.0-1.0-661.0","0","0","14000","","null","","","null","73","","NaN","","","","","","","","","","","","","",""
"","response","","html-keyboard-response","477","523817","0.0-1.0-662.0-0.0","0","0","14000","","311","","","75","73","","","2","73","training","adjacent","DE","4","5","Q.jpg","R.jpg","0","1","0","",""
"","feedback","","html-keyboard-response","478","524819","0.0-1.0-663.0-0.0","0","0","14000","","null","","","null","73","","","","","","","","","","","","","","","",""
"","time_out","","html-keyboard-response","479","526822","0.0-1.0-665.0-0.0","0","0","14000","","null","","","null","73","","","","","","","","","","","","","","","",""
"","ITI","","html-keyboard-response","480","527824","0.0-1.0-666.0","0","0","14000","","null","","","null","73","","","","","","","","","","","","","","","NaN",""
"","S1","","html-keyboard-response","481","528076","0.0-1.0-668.0","0","0","14000","","null","","","null","74","","","","","","","","","","","","","","","",""
"","ISI","","html-keyboard-response","482","529078","0.0-1.0-669.0","0","0","14000","","null","","","null","74","NaN","","","","","","","","","","","","","","",""
"","S2","","html-keyboard-response","483","529336","0.0-1.0-670.0","0","0","14000","","null","","","null","74","","NaN","","","","","","","","","","","","","",""
"","response","","html-keyboard-response","484","529737","0.0-1.0-671.0-0.0","0","0","14000","","400","","","68","74","","","2","74","training","adjacent","CD","3","4","P.jpg","Q.jpg","1","1","1","",""
"","feedback","","html-keyboard-response","485","530740","0.0-1.0-672.0-0.0","0","0","14000","","null","","","null","74","","","","","","","","","","","","","","","",""
"","ITI","","html-keyboard-response","486","531748","0.0-1.0-675.0","0","0","14000","","null","","","null","74","","","","","","","","","","","","","","","NaN",""
"","S1","","html-keyboard-response","487","532001","0.0-1.0-677.0","0","0","14000","","null","","","null","75","","","","","","","","","","","","","","","",""
"","ISI","","html-keyboard-response","488","533004","0.0-1.0-678.0","0","0","14000","","null","","","null","75","NaN","","","","","","","","","","","","","","",""
"","S2","","html-keyboard-response","489","533256","0.0-1.0-679.0","0","0","14000","","null","","","null","75","","NaN","","","","","","","","","","","","","",""
"","response","","html-keyboard-response","490","534105","0.0-1.0-680.0-0.0","0","0","14000","","848","","","75","75","","","2","75","training","adjacent","CB","3","2","P.jpg","O.jpg","0","0","1","",""
"","feedback","","html-keyboard-response","491","535107","0.0-1.0-681.0-0.0","0","0","14000","","null","","","null","75","","","","","","","","","","","","","","","",""
"","ITI","","html-keyboard-response","492","536109","0.0-1.0-684.0","0","0","14000","","null","","","null","75","","","","","","","","","","","","","","","NaN",""
"","S1","","html-keyboard-response","493","536361","0.0-1.0-686.0","0","0","14000","","null","","","null","76","","","","","","","","","","","","","","","",""
"","ISI","","html-keyboard-response","494","537363","0.0-1.0-687.0","0","0","14000","","null","","","null","76","NaN","","","","","","","","","","","","","","",""
"","S2","","html-keyboard-response","495","537615","0.0-1.0-688.0","0","0","14000","","null","","","null","76","","NaN","","","","","","","","","","","","","",""
"","response","","html-keyboard-response","496","537770","0.0-1.0-689.0-0.0","0","0","14000","","153","","","68","76","","","2","76","training","adjacent","BA","2","1","O.jpg","M.jpg","1","0","0","",""
"","feedback","","html-keyboard-response","497","538776","0.0-1.0-690.0-0.0","0","0","14000","","null","","","null","76","","","","","","","","","","","","","","","",""
"","time_out","","html-keyboard-response","498","540778","0.0-1.0-692.0-0.0","0","0","14000","","null","","","null","76","","","","","","","","","","","","","","","",""
"","ITI","","html-keyboard-response","499","541780","0.0-1.0-693.0","0","0","14000","","null","","","null","76","","","","","","","","","","","","","","","NaN",""
"","S1","","html-keyboard-response","500","542045","0.0-1.0-695.0","0","0","14000","","null","","","null","77","","","","","","","","","","","","","","","",""
"","ISI","","html-keyboard-response","501","543047","0.0-1.0-696.0","0","0","14000","","null","","","null","77","NaN","","","","","","","","","","","","","","",""
"","S2","","html-keyboard-response","502","543299","0.0-1.0-697.0","0","0","14000","","null","","","null","77","","NaN","","","","","","","","","","","","","",""
"","response","","html-keyboard-response","503","543513","0.0-1.0-698.0-0.0","0","0","14000","","213","","","75","77","","","2","77","training","adjacent","BA","2","1","O.jpg","M.jpg","0","0","1","",""
"","feedback","","html-keyboard-response","504","544516","0.0-1.0-699.0-0.0","0","0","14000","","null","","","null","77","","","","","","","","","","","","","","","",""
"","ITI","","html-keyboard-response","505","545519","0.0-1.0-702.0","0","0","14000","","null","","","null","77","","","","","","","","","","","","","","","NaN",""
"","S1","","html-keyboard-response","506","545772","0.0-1.0-704.0","0","0","14000","","null","","","null","78","","","","","","","","","","","","","","","",""
"","ISI","","html-keyboard-response","507","546774","0.0-1.0-705.0","0","0","14000","","null","","","null","78","NaN","","","","","","","","","","","","","","",""
"","S2","","html-keyboard-response","508","547026","0.0-1.0-706.0","0","0","14000","","null","","","null","78","","NaN","","","","","","","","","","","","","",""
"","response","","html-keyboard-response","509","547994","0.0-1.0-707.0-0.0","0","0","14000","","967","","","75","78","","","2","78","training","adjacent","CB","3","2","P.jpg","O.jpg","0","0","1","",""
"","feedback","","html-keyboard-response","510","548996","0.0-1.0-708.0-0.0","0","0","14000","","null","","","null","78","","","","","","","","","","","","","","","",""
"","ITI","","html-keyboard-response","511","549998","0.0-1.0-711.0","0","0","14000","","null","","","null","78","","","","","","","","","","","","","","","NaN",""
"","S1","","html-keyboard-response","512","550251","0.0-1.0-713.0","0","0","14000","","null","","","null","79","","","","","","","","","","","","","","","",""
"","ISI","","html-keyboard-response","513","551253","0.0-1.0-714.0","0","0","14000","","null","","","null","79","NaN","","","","","","","","","","","","","","",""
"","S2","","html-keyboard-response","514","551505","0.0-1.0-715.0","0","0","14000","","null","","","null","79","","NaN","","","","","","","","","","","","","",""
"","response","","html-keyboard-response","515","552570","0.0-1.0-716.0-0.0","0","0","14000","","1063","","","68","79","","","2","79","training","adjacent","EF","5","6","R.jpg","L.jpg","1","1","1","",""
"","feedback","","html-keyboard-response","516","553572","0.0-1.0-717.0-0.0","0","0","14000","","null","","","null","79","","","","","","","","","","","","","","","",""
"","ITI","","html-keyboard-response","517","554575","0.0-1.0-720.0","0","0","14000","","null","","","null","79","","","","","","","","","","","","","","","NaN",""
"","S1","","html-keyboard-response","518","554828","0.0-1.0-722.0","0","0","14000","","null","","","null","80","","","","","","","","","","","","","","","",""
"","ISI","","html-keyboard-response","519","555830","0.0-1.0-723.0","0","0","14000","","null","","","null","80","NaN","","","","","","","","","","","","","","",""
"","S2","","html-keyboard-response","520","556082","0.0-1.0-724.0","0","0","14000","","null","","","null","80","","NaN","","","","","","","","","","","","","",""
"","response","","html-keyboard-response","521","556793","0.0-1.0-725.0-0.0","0","0","14000","","709","","","68","80","","","2","80","training","adjacent","FE","6","5","L.jpg","R.jpg","1","0","0","",""
"","feedback","","html-keyboard-response","522","557796","0.0-1.0-726.0-0.0","0","0","14000","","null","","","null","80","","","","","","","","","","","","","","","",""
"","time_out","","html-keyboard-response","523","559798","0.0-1.0-728.0-0.0","0","0","14000","","null","","","null","80","","","","","","","","","","","","","","","",""
"","ITI","","html-keyboard-response","524","560800","0.0-1.0-729.0","0","0","14000","","null","","","null","80","","","","","","","","","","","","","","","NaN",""
"","S1","","html-keyboard-response","525","561053","0.0-1.0-731.0","0","0","14000","","null","","","null","81","","","","","","","","","","","","","","","",""
"","ISI","","html-keyboard-response","526","562055","0.0-1.0-732.0","0","0","14000","","null","","","null","81","NaN","","","","","","","","","","","","","","",""
"","S2","","html-keyboard-response","527","562307","0.0-1.0-733.0","0","0","14000","","null","","","null","81","","NaN","","","","","","","","","","","","","",""
"","response","","html-keyboard-response","528","562458","0.0-1.0-734.0-0.0","0","0","14000","","149","","","75","81","","","2","81","training","adjacent","BA","2","1","O.jpg","M.jpg","0","0","1","",""
"","feedback","","html-keyboard-response","529","563461","0.0-1.0-735.0-0.0","0","0","14000","","null","","","null","81","","","","","","","","","","","","","","","",""
"","ITI","","html-keyboard-response","530","564464","0.0-1.0-738.0","0","0","14000","","null","","","null","81","","","","","","","","","","","","","","","NaN",""
"","S1","","html-keyboard-response","531","564715","0.0-1.0-740.0","0","0","14000","","null","","","null","82","","","","","","","","","","","","","","","",""
"","ISI","","html-keyboard-response","532","565717","0.0-1.0-741.0","0","0","14000","","null","","","null","82","NaN","","","","","","","","","","","","","","",""
"","S2","","html-keyboard-response","533","565970","0.0-1.0-742.0","0","0","14000","","null","","","null","82","","NaN","","","","","","","","","","","","","",""
"","response","","html-keyboard-response","534","566106","0.0-1.0-743.0-0.0","0","0","14000","","133","","","68","82","","","2","82","training","adjacent","BC","2","3","O.jpg","P.jpg","1","1","1","",""
"","feedback","","html-keyboard-response","535","567108","0.0-1.0-744.0-0.0","0","0","14000","","null","","","null","82","","","","","","","","","","","","","","","",""
"","ITI","","html-keyboard-response","536","568111","0.0-1.0-747.0","0","0","14000","","null","","","null","82","","","","","","","","","","","","","","","NaN",""
"","S1","","html-keyboard-response","537","568363","0.0-1.0-749.0","0","0","14000","","null","","","null","83","","","","","","","","","","","","","","","",""
"","ISI","","html-keyboard-response","538","569364","0.0-1.0-750.0","0","0","14000","","null","","","null","83","NaN","","","","","","","","","","","","","","",""
"","S2","","html-keyboard-response","539","569617","0.0-1.0-751.0","0","0","14000","","null","","","null","83","","NaN","","","","","","","","","","","","","",""
"","response","","html-keyboard-response","540","570362","0.0-1.0-752.0-0.0","0","0","14000","","744","","","68","83","","","2","83","training","adjacent","ED","5","4","R.jpg","Q.jpg","1","0","0","",""
"","feedback","","html-keyboard-response","541","571364","0.0-1.0-753.0-0.0","0","0","14000","","null","","","null","83","","","","","","","","","","","","","","","",""
"","time_out","","html-keyboard-response","542","573365","0.0-1.0-755.0-0.0","0","0","14000","","null","","","null","83","","","","","","","","","","","","","","","",""
"","ITI","","html-keyboard-response","543","574368","0.0-1.0-756.0","0","0","14000","","null","","","null","83","","","","","","","","","","","","","","","NaN",""
"","S1","","html-keyboard-response","544","574622","0.0-1.0-758.0","0","0","14000","","null","","","null","84","","","","","","","","","","","","","","","",""
"","ISI","","html-keyboard-response","545","575623","0.0-1.0-759.0","0","0","14000","","null","","","null","84","NaN","","","","","","","","","","","","","","",""
"","S2","","html-keyboard-response","546","575875","0.0-1.0-760.0","0","0","14000","","null","","","null","84","","NaN","","","","","","","","","","","","","",""
"","response","","html-keyboard-response","547","576554","0.0-1.0-761.0-0.0","0","0","14000","","677","","","68","84","","","2","84","training","adjacent","CB","3","2","P.jpg","O.jpg","1","0","0","",""
"","feedback","","html-keyboard-response","548","577556","0.0-1.0-762.0-0.0","0","0","14000","","null","","","null","84","","","","","","","","","","","","","","","",""
"","time_out","","html-keyboard-response","549","579558","0.0-1.0-764.0-0.0","0","0","14000","","null","","","null","84","","","","","","","","","","","","","","","",""
"","ITI","","html-keyboard-response","550","580561","0.0-1.0-765.0","0","0","14000","","null","","","null","84","","","","","","","","","","","","","","","NaN",""
"","S1","","html-keyboard-response","551","580813","0.0-1.0-767.0","0","0","14000","","null","","","null","85","","","","","","","","","","","","","","","",""
"","ISI","","html-keyboard-response","552","581815","0.0-1.0-768.0","0","0","14000","","null","","","null","85","NaN","","","","","","","","","","","","","","",""
"","S2","","html-keyboard-response","553","582068","0.0-1.0-769.0","0","0","14000","","null","","","null","85","","NaN","","","","","","","","","","","","","",""
"","response","","html-keyboard-response","554","582266","0.0-1.0-770.0-0.0","0","0","14000","","197","","","75","85","","","2","85","training","adjacent","DC","4","3","Q.jpg","P.jpg","0","0","1","",""
"","feedback","","html-keyboard-response","555","583268","0.0-1.0-771.0-0.0","0","0","14000","","null","","","null","85","","","","","","","","","","","","","","","",""
"","ITI","","html-keyboard-response","556","584270","0.0-1.0-774.0","0","0","14000","","null","","","null","85","","","","","","","","","","","","","","","NaN",""
"","S1","","html-keyboard-response","557","584523","0.0-1.0-776.0","0","0","14000","","null","","","null","86","","","","","","","","","","","","","","","",""
"","ISI","","html-keyboard-response","558","585526","0.0-1.0-777.0","0","0","14000","","null","","","null","86","NaN","","","","","","","","","","","","","","",""
"","S2","","html-keyboard-response","559","585778","0.0-1.0-778.0","0","0","14000","","null","","","null","86","","NaN","","","","","","","","","","","","","",""
"","response","","html-keyboard-response","560","585930","0.0-1.0-779.0-0.0","0","0","14000","","151","","","75","86","","","2","86","training","adjacent","GF","7","6","N.jpg","L.jpg","0","0","1","",""
"","feedback","","html-keyboard-response","561","586932","0.0-1.0-780.0-0.0","0","0","14000","","null","","","null","86","","","","","","","","","","","","","","","",""
"","ITI","","html-keyboard-response","562","587935","0.0-1.0-783.0","0","0","14000","","null","","","null","86","","","","","","","","","","","","","","","NaN",""
"","S1","","html-keyboard-response","563","588187","0.0-1.0-785.0","0","0","14000","","null","","","null","87","","","","","","","","","","","","","","","",""
"","ISI","","html-keyboard-response","564","589189","0.0-1.0-786.0","0","0","14000","","null","","","null","87","NaN","","","","","","","","","","","","","","",""
"","S2","","html-keyboard-response","565","589442","0.0-1.0-787.0","0","0","14000","","null","","","null","87","","NaN","","","","","","","","","","","","","",""
"","response","","html-keyboard-response","566","589482","0.0-1.0-788.0-0.0","0","0","14000","","38","","","68","87","","","2","87","training","adjacent","FE","6","5","L.jpg","R.jpg","1","0","0","",""
"","feedback","","html-keyboard-response","567","590485","0.0-1.0-789.0-0.0","0","0","14000","","null","","","null","87","","","","","","","","","","","","","","","",""
"","time_out","","html-keyboard-response","568","592487","0.0-1.0-791.0-0.0","0","0","14000","","null","","","null","87","","","","","","","","","","","","","","","",""
"","ITI","","html-keyboard-response","569","593488","0.0-1.0-792.0","0","0","14000","","null","","","null","87","","","","","","","","","","","","","","","NaN",""
"","S1","","html-keyboard-response","570","593741","0.0-1.0-794.0","0","0","14000","","null","","","null","88","","","","","","","","","","","","","","","",""
"","ISI","","html-keyboard-response","571","594744","0.0-1.0-795.0","0","0","14000","","null","","","null","88","NaN","","","","","","","","","","","","","","",""
"","S2","","html-keyboard-response","572","594997","0.0-1.0-796.0","0","0","14000","","null","","","null","88","","NaN","","","","","","","","","","","","","",""
"","response","","html-keyboard-response","573","595178","0.0-1.0-797.0-0.0","0","0","14000","","179","","","68","88","","","2","88","training","adjacent","AB","1","2","M.jpg","O.jpg","1","1","1","",""
"","feedback","","html-keyboard-response","574","596180","0.0-1.0-798.0-0.0","0","0","14000","","null","","","null","88","","","","","","","","","","","","","","","",""
"","ITI","","html-keyboard-response","575","597183","0.0-1.0-801.0","0","0","14000","","null","","","null","88","","","","","","","","","","","","","","","NaN",""
"","S1","","html-keyboard-response","576","597435","0.0-1.0-803.0","0","0","14000","","null","","","null","89","","","","","","","","","","","","","","","",""
"","ISI","","html-keyboard-response","577","598437","0.0-1.0-804.0","0","0","14000","","null","","","null","89","NaN","","","","","","","","","","","","","","",""
"","S2","","html-keyboard-response","578","598689","0.0-1.0-805.0","0","0","14000","","null","","","null","89","","NaN","","","","","","","","","","","","","",""
"","response","","html-keyboard-response","579","598810","0.0-1.0-806.0-0.0","0","0","14000","","120","","","75","89","","","2","89","training","adjacent","DC","4","3","Q.jpg","P.jpg","0","0","1","",""
"","feedback","","html-keyboard-response","580","599813","0.0-1.0-807.0-0.0","0","0","14000","","null","","","null","89","","","","","","","","","","","","","","","",""
