"success","ttype","start_time","trial_type","trial_index","time_elapsed","internal_node_id","warning","missed_checkup","PID","view_history","rt","responses","repeat_instructions","key_press","index","keypress_isi","keypress_S2","block","trial_num","phase","group_type","pair_type","S1_stim","S2_stim","S1_img","S2_img","S1_chosen","S1_higher","accuracy","keypress_iti","total_bonus_tally"
"true","full_screen","d04132023hr1737","fullscreen","0","2228","0.0-0.0","0","0","99925","","","","","","","","","","","","","","","","","","","","","",""
"","instructions","","instructions","1","38771","0.0-1.0-0.0-0.0","0","0","99925","[{""page_index"":0,""viewing_time"":3539},{""page_index"":1,""viewing_time"":14708},{""page_index"":2,""viewing_time"":5818},{""page_index"":3,""viewing_time"":12463}]","36531","","","","","","","","","","","","","","","","","","","",""
"","comprehension_check","","survey-multi-choice","2","55470","0.0-1.0-0.0-1.0","0","0","99925","","16676","{""Q0"":""True"",""Q1"":""K"",""Q2"":""Once the second image appears and while the screen 'MAKE A CHOICE' is shown"",""Q3"":""Green mark"",""Q4"":""either D or K""}","0","","","","","","","","","","","","","","","","","",""
"","start_exp","","html-keyboard-response","3","57322","0.0-1.0-1.0","0","0","99925","","1830","","","32","","","","","","","","","","","","","","","","",""
"","S1","","html-keyboard-response","4","57586","0.0-1.0-2.0","0","0","99925","","null","","","null","0","","","","","","","","","","","","","","","",""
"","ISI","","html-keyboard-response","5","58597","0.0-1.0-3.0","0","0","99925","","null","","","null","0","NaN","","","","","","","","","","","","","","",""
"","S2","","html-keyboard-response","6","58859","0.0-1.0-4.0","0","0","99925","","null","","","null","0","","NaN","","","","","","","","","","","","","",""
"","response","","html-keyboard-response","7","59325","0.0-1.0-5.0-0.0","0","0","99925","","455","","","75","0","","","1","0","training","adjacent","CB","3","2","Q.jpg","P.jpg","1","0","0","",""
"","feedback","","html-keyboard-response","8","60335","0.0-1.0-6.0-0.0","0","0","99925","","null","","","null","0","","","","","","","","","","","","","","","",""
"","time_out","","html-keyboard-response","9","62350","0.0-1.0-8.0-0.0","0","0","99925","","null","","","null","0","","","","","","","","","","","","","","","",""
"","ITI","","html-keyboard-response","10","63361","0.0-1.0-9.0","0","0","99925","","null","","","null","0","","","","","","","","","","","","","","","NaN",""
"","S1","","html-keyboard-response","11","63622","0.0-1.0-11.0","0","0","99925","","null","","","null","1","","","","","","","","","","","","","","","",""
"","ISI","","html-keyboard-response","12","64631","0.0-1.0-12.0","0","0","99925","","422","","","75","1","k","","","","","","","","","","","","","","",""
"","S2","","html-keyboard-response","13","64896","0.0-1.0-13.0","0","0","99925","","null","","","null","1","","NaN","","","","","","","","","","","","","",""
"","response","","html-keyboard-response","14","65214","0.0-1.0-14.0-0.0","0","0","99925","","310","","","75","1","","","1","1","training","adjacent","FG","6","7","R.jpg","L.jpg","1","1","1","",""
"","feedback","","html-keyboard-response","15","66226","0.0-1.0-15.0-0.0","0","0","99925","","null","","","null","1","","","","","","","","","","","","","","","",""
"","ITI","","html-keyboard-response","16","67237","0.0-1.0-18.0","0","0","99925","","null","","","null","1","","","","","","","","","","","","","","","NaN",""
"","S1","","html-keyboard-response","17","67497","0.0-1.0-20.0","0","0","99925","","null","","","null","2","","","","","","","","","","","","","","","",""
"","ISI","","html-keyboard-response","18","68510","0.0-1.0-21.0","0","0","99925","","null","","","null","2","NaN","","","","","","","","","","","","","","",""
"","S2","","html-keyboard-response","19","68773","0.0-1.0-22.0","0","0","99925","","null","","","null","2","","NaN","","","","","","","","","","","","","",""
"","response","","html-keyboard-response","20","68850","0.0-1.0-23.0-0.0","0","0","99925","","66","","","75","2","","","1","2","training","adjacent","EF","5","6","N.jpg","R.jpg","1","1","1","",""
"","feedback","","html-keyboard-response","21","69859","0.0-1.0-24.0-0.0","0","0","99925","","null","","","null","2","","","","","","","","","","","","","","","",""
"","ITI","","html-keyboard-response","22","70869","0.0-1.0-27.0","0","0","99925","","null","","","null","2","","","","","","","","","","","","","","","NaN",""
"","S1","","html-keyboard-response","23","71131","0.0-1.0-29.0","0","0","99925","","null","","","null","3","","","","","","","","","","","","","","","",""
"","ISI","","html-keyboard-response","24","72144","0.0-1.0-30.0","0","0","99925","","null","","","null","3","NaN","","","","","","","","","","","","","","",""
"","S2","","html-keyboard-response","25","72408","0.0-1.0-31.0","0","0","99925","","null","","","null","3","","NaN","","","","","","","","","","","","","",""
"","response","","html-keyboard-response","26","73476","0.0-1.0-32.0-0.0","0","0","99925","","1059","","","75","3","","","1","3","training","adjacent","FE","6","5","R.jpg","N.jpg","1","0","0","",""
"","feedback","","html-keyboard-response","27","74489","0.0-1.0-33.0-0.0","0","0","99925","","null","","","null","3","","","","","","","","","","","","","","","",""
"","time_out","","html-keyboard-response","28","76500","0.0-1.0-35.0-0.0","0","0","99925","","null","","","null","3","","","","","","","","","","","","","","","",""
"","ITI","","html-keyboard-response","29","77509","0.0-1.0-36.0","0","0","99925","","null","","","null","3","","","","","","","","","","","","","","","NaN",""
"","S1","","html-keyboard-response","30","77774","0.0-1.0-38.0","0","0","99925","","null","","","null","4","","","","","","","","","","","","","","","",""
"","ISI","","html-keyboard-response","31","78788","0.0-1.0-39.0","0","0","99925","","null","","","null","4","NaN","","","","","","","","","","","","","","",""
"","S2","","html-keyboard-response","32","78901","0.0-1.0-40.0","0","0","99925","","101","","","75","4","","k","1","4","training","adjacent","DE","4","5","O.jpg","N.jpg","1","1","1","",""
"","feedback","","html-keyboard-response","33","79916","0.0-1.0-42.0-0.0","0","0","99925","","null","","","null","4","","","","","","","","","","","","","","","",""
"","ITI","","html-keyboard-response","34","80928","0.0-1.0-45.0","0","0","99925","","null","","","null","4","","","","","","","","","","","","","","","NaN",""
"","S1","","html-keyboard-response","35","81188","0.0-1.0-47.0","0","0","99925","","null","","","null","5","","","","","","","","","","","","","","","",""
"","ISI","","html-keyboard-response","36","82199","0.0-1.0-48.0","0","0","99925","","null","","","null","5","NaN","","","","","","","","","","","","","","",""
"","S2","","html-keyboard-response","37","82460","0.0-1.0-49.0","0","0","99925","","null","","","null","5","","NaN","","","","","","","","","","","","","",""
"","response","","html-keyboard-response","38","82593","0.0-1.0-50.0-0.0","0","0","99925","","123","","","75","5","","","1","5","training","adjacent","EF","5","6","N.jpg","R.jpg","1","1","1","",""
"","feedback","","html-keyboard-response","39","83605","0.0-1.0-51.0-0.0","0","0","99925","","null","","","null","5","","","","","","","","","","","","","","","",""
"","ITI","","html-keyboard-response","40","84614","0.0-1.0-54.0","0","0","99925","","null","","","null","5","","","","","","","","","","","","","","","NaN",""
"","S1","","html-keyboard-response","41","84873","0.0-1.0-56.0","0","0","99925","","null","","","null","6","","","","","","","","","","","","","","","",""
"","ISI","","html-keyboard-response","42","85883","0.0-1.0-57.0","0","0","99925","","null","","","null","6","NaN","","","","","","","","","","","","","","",""
"","S2","","html-keyboard-response","43","86147","0.0-1.0-58.0","0","0","99925","","null","","","null","6","","NaN","","","","","","","","","","","","","",""
"","response","","html-keyboard-response","44","86381","0.0-1.0-59.0-0.0","0","0","99925","","226","","","75","6","","","1","6","training","adjacent","CB","3","2","Q.jpg","P.jpg","1","0","0","",""
"","feedback","","html-keyboard-response","45","87393","0.0-1.0-60.0-0.0","0","0","99925","","null","","","null","6","","","","","","","","","","","","","","","",""
"","time_out","","html-keyboard-response","46","89403","0.0-1.0-62.0-0.0","0","0","99925","","null","","","null","6","","","","","","","","","","","","","","","",""
"","ITI","","html-keyboard-response","47","90413","0.0-1.0-63.0","0","0","99925","","null","","","null","6","","","","","","","","","","","","","","","NaN",""
"","S1","","html-keyboard-response","48","90674","0.0-1.0-65.0","0","0","99925","","null","","","null","7","","","","","","","","","","","","","","","",""
"","ISI","","html-keyboard-response","49","91684","0.0-1.0-66.0","0","0","99925","","null","","","null","7","NaN","","","","","","","","","","","","","","",""
"","S2","","html-keyboard-response","50","91943","0.0-1.0-67.0","0","0","99925","","null","","","null","7","","NaN","","","","","","","","","","","","","",""
"","response","","html-keyboard-response","51","92372","0.0-1.0-68.0-0.0","0","0","99925","","416","","","75","7","","","1","7","training","adjacent","ED","5","4","N.jpg","O.jpg","1","0","0","",""
"","feedback","","html-keyboard-response","52","93380","0.0-1.0-69.0-0.0","0","0","99925","","null","","","null","7","","","","","","","","","","","","","","","",""
"","time_out","","html-keyboard-response","53","95393","0.0-1.0-71.0-0.0","0","0","99925","","null","","","null","7","","","","","","","","","","","","","","","",""
"","ITI","","html-keyboard-response","54","96402","0.0-1.0-72.0","0","0","99925","","null","","","null","7","","","","","","","","","","","","","","","NaN",""
"","S1","","html-keyboard-response","55","96664","0.0-1.0-74.0","0","0","99925","","null","","","null","8","","","","","","","","","","","","","","","",""
"","ISI","","html-keyboard-response","56","97674","0.0-1.0-75.0","0","0","99925","","null","","","null","8","NaN","","","","","","","","","","","","","","",""
"","S2","","html-keyboard-response","57","97907","0.0-1.0-76.0","0","0","99925","","222","","","68","8","","d","1","8","training","adjacent","GF","7","6","L.jpg","R.jpg","0","0","1","",""
"","feedback","","html-keyboard-response","58","98920","0.0-1.0-78.0-0.0","0","0","99925","","null","","","null","8","","","","","","","","","","","","","","","",""
"","ITI","","html-keyboard-response","59","99930","0.0-1.0-81.0","0","0","99925","","null","","","null","8","","","","","","","","","","","","","","","NaN",""
"","S1","","html-keyboard-response","60","100193","0.0-1.0-83.0","0","0","99925","","null","","","null","9","","","","","","","","","","","","","","","",""
"","ISI","","html-keyboard-response","61","101207","0.0-1.0-84.0","0","0","99925","","53","","","68","9","d","","","","","","","","","","","","","","",""
"","S2","","html-keyboard-response","62","101459","0.0-1.0-85.0","0","0","99925","","242","","","68","9","","d","1","9","training","adjacent","BC","2","3","P.jpg","Q.jpg","0","1","0","",""
"","feedback","","html-keyboard-response","63","102469","0.0-1.0-87.0-0.0","0","0","99925","","null","","","null","9","","","","","","","","","","","","","","","",""
"","time_out","","html-keyboard-response","64","104478","0.0-1.0-89.0-0.0","0","0","99925","","null","","","null","9","","","","","","","","","","","","","","","",""
"","ITI","","html-keyboard-response","65","105487","0.0-1.0-90.0","0","0","99925","","null","","","null","9","","","","","","","","","","","","","","","NaN",""
"","S1","","html-keyboard-response","66","105747","0.0-1.0-92.0","0","0","99925","","null","","","null","10","","","","","","","","","","","","","","","",""
"","ISI","","html-keyboard-response","67","106756","0.0-1.0-93.0","0","0","99925","","175","","","68","10","d","","","","","","","","","","","","","","",""
"","S2","","html-keyboard-response","68","107020","0.0-1.0-94.0","0","0","99925","","null","","","null","10","","NaN","","","","","","","","","","","","","",""
"","response","","html-keyboard-response","69","107084","0.0-1.0-95.0-0.0","0","0","99925","","52","","","68","10","","","1","10","training","adjacent","BC","2","3","P.jpg","Q.jpg","0","1","0","",""
"","feedback","","html-keyboard-response","70","108094","0.0-1.0-96.0-0.0","0","0","99925","","null","","","null","10","","","","","","","","","","","","","","","",""
"","time_out","","html-keyboard-response","71","110107","0.0-1.0-98.0-0.0","0","0","99925","","null","","","null","10","","","","","","","","","","","","","","","",""
"","ITI","","html-keyboard-response","72","111119","0.0-1.0-99.0","0","0","99925","","137","","","68","10","","","","","","","","","","","","","","","d",""
"","S1","","html-keyboard-response","73","111380","0.0-1.0-101.0","0","0","99925","","null","","","null","11","","","","","","","","","","","","","","","",""
"","ISI","","html-keyboard-response","74","112387","0.0-1.0-102.0","0","0","99925","","313","","","68","11","d","","","","","","","","","","","","","","",""
"","S2","","html-keyboard-response","75","112653","0.0-1.0-103.0","0","0","99925","","null","","","null","11","","NaN","","","","","","","","","","","","","",""
"","response","","html-keyboard-response","76","112751","0.0-1.0-104.0-0.0","0","0","99925","","87","","","68","11","","","1","11","training","adjacent","DE","4","5","O.jpg","N.jpg","0","1","0","",""
"","feedback","","html-keyboard-response","77","113760","0.0-1.0-105.0-0.0","0","0","99925","","null","","","null","11","","","","","","","","","","","","","","","",""
"","time_out","","html-keyboard-response","78","115768","0.0-1.0-107.0-0.0","0","0","99925","","null","","","null","11","","","","","","","","","","","","","","","",""
"","ITI","","html-keyboard-response","79","116780","0.0-1.0-108.0","0","0","99925","","617","","","68","11","","","","","","","","","","","","","","","d",""
"","S1","","html-keyboard-response","80","117039","0.0-1.0-110.0","0","0","99925","","null","","","null","12","","","","","","","","","","","","","","","",""
"","ISI","","html-keyboard-response","81","118050","0.0-1.0-111.0","0","0","99925","","401","","","68","12","d","","","","","","","","","","","","","","",""
"","S2","","html-keyboard-response","82","118311","0.0-1.0-112.0","0","0","99925","","null","","","null","12","","NaN","","","","","","","","","","","","","",""
"","response","","html-keyboard-response","83","120072","0.0-1.0-113.0-0.0","0","0","99925","","null","","","null","12","","","1","12","training","adjacent","DE","4","5","O.jpg","N.jpg","NaN","1","0","",""
"","too_slow_prompt","","html-keyboard-response","84","121082","0.0-1.0-115.0-0.0","1","0","99925","","null","","","null","","","","","","","","","","","","","","","","",""
"","time_out","","html-keyboard-response","85","123096","0.0-1.0-116.0-0.0","0","0","99925","","null","","","null","12","","","","","","","","","","","","","","","",""
"","ITI","","html-keyboard-response","86","124106","0.0-1.0-117.0","0","0","99925","","650","","","75","12","","","","","","","","","","","","","","","k",""
"","S1","","html-keyboard-response","87","124365","0.0-1.0-119.0","0","0","99925","","null","","","null","13","","","","","","","","","","","","","","","",""
"","ISI","","html-keyboard-response","88","125376","0.0-1.0-120.0","0","0","99925","","474","","","75","13","k","","","","","","","","","","","","","","",""
"","S2","","html-keyboard-response","89","125639","0.0-1.0-121.0","0","0","99925","","null","","","null","13","","NaN","","","","","","","","","","","","","",""
"","response","","html-keyboard-response","90","125849","0.0-1.0-122.0-0.0","0","0","99925","","201","","","75","13","","","1","13","training","adjacent","FE","6","5","R.jpg","N.jpg","1","0","0","",""
"","feedback","","html-keyboard-response","91","126860","0.0-1.0-123.0-0.0","0","0","99925","","null","","","null","13","","","","","","","","","","","","","","","",""
"","time_out","","html-keyboard-response","92","128873","0.0-1.0-125.0-0.0","0","0","99925","","null","","","null","13","","","","","","","","","","","","","","","",""
"","ITI","","html-keyboard-response","93","129880","0.0-1.0-126.0","0","0","99925","","116","","","75","13","","","","","","","","","","","","","","","k",""
"","S1","","html-keyboard-response","94","130143","0.0-1.0-128.0","0","0","99925","","null","","","null","14","","","","","","","","","","","","","","","",""
"","ISI","","html-keyboard-response","95","131152","0.0-1.0-129.0","0","0","99925","","550","","","75","14","k","","","","","","","","","","","","","","",""
"","S2","","html-keyboard-response","96","131412","0.0-1.0-130.0","0","0","99925","","null","","","null","14","","NaN","","","","","","","","","","","","","",""
"","response","","html-keyboard-response","97","131587","0.0-1.0-131.0-0.0","0","0","99925","","165","","","75","14","","","1","14","training","adjacent","BA","2","1","P.jpg","M.jpg","1","0","0","",""
"","feedback","","html-keyboard-response","98","132596","0.0-1.0-132.0-0.0","0","0","99925","","null","","","null","14","","","","","","","","","","","","","","","",""
"","time_out","","html-keyboard-response","99","134609","0.0-1.0-134.0-0.0","0","0","99925","","null","","","null","14","","","","","","","","","","","","","","","",""
"","ITI","","html-keyboard-response","100","135622","0.0-1.0-135.0","0","0","99925","","824","","","75","14","","","","","","","","","","","","","","","k",""
"","S1","","html-keyboard-response","101","135883","0.0-1.0-137.0","0","0","99925","","null","","","null","15","","","","","","","","","","","","","","","",""
"","ISI","","html-keyboard-response","102","136894","0.0-1.0-138.0","0","0","99925","","null","","","null","15","NaN","","","","","","","","","","","","","","",""
"","S2","","html-keyboard-response","103","136904","0.0-1.0-139.0","0","0","99925","","1","","","75","15","","k","1","15","training","adjacent","DC","4","3","O.jpg","Q.jpg","1","0","0","",""
"","feedback","","html-keyboard-response","104","137915","0.0-1.0-141.0-0.0","0","0","99925","","null","","","null","15","","","","","","","","","","","","","","","",""
"","time_out","","html-keyboard-response","105","139925","0.0-1.0-143.0-0.0","0","0","99925","","null","","","null","15","","","","","","","","","","","","","","","",""
"","ITI","","html-keyboard-response","106","140938","0.0-1.0-144.0","0","0","99925","","390","","","75","15","","","","","","","","","","","","","","","k",""
"","S1","","html-keyboard-response","107","141200","0.0-1.0-146.0","0","0","99925","","null","","","null","16","","","","","","","","","","","","","","","",""
"","ISI","","html-keyboard-response","108","142212","0.0-1.0-147.0","0","0","99925","","241","","","75","16","k","","","","","","","","","","","","","","",""
"","S2","","html-keyboard-response","109","142221","0.0-1.0-148.0","0","0","99925","","0","","","75","16","","k","1","16","training","adjacent","EF","5","6","N.jpg","R.jpg","1","1","1","",""
"","feedback","","html-keyboard-response","110","143232","0.0-1.0-150.0-0.0","0","0","99925","","null","","","null","16","","","","","","","","","","","","","","","",""
"","ITI","","html-keyboard-response","111","144244","0.0-1.0-153.0","0","0","99925","","null","","","null","16","","","","","","","","","","","","","","","NaN",""
"","S1","","html-keyboard-response","112","144504","0.0-1.0-155.0","0","0","99925","","null","","","null","17","","","","","","","","","","","","","","","",""
"","ISI","","html-keyboard-response","113","145515","0.0-1.0-156.0","0","0","99925","","333","","","75","17","k","","","","","","","","","","","","","","",""
"","S2","","html-keyboard-response","114","145779","0.0-1.0-157.0","0","0","99925","","null","","","null","17","","NaN","","","","","","","","","","","","","",""
"","response","","html-keyboard-response","115","146518","0.0-1.0-158.0-0.0","0","0","99925","","730","","","75","17","","","1","17","training","adjacent","DC","4","3","O.jpg","Q.jpg","1","0","0","",""
"","feedback","","html-keyboard-response","116","147532","0.0-1.0-159.0-0.0","0","0","99925","","null","","","null","17","","","","","","","","","","","","","","","",""
"","time_out","","html-keyboard-response","117","149542","0.0-1.0-161.0-0.0","0","0","99925","","null","","","null","17","","","","","","","","","","","","","","","",""
"","ITI","","html-keyboard-response","118","150552","0.0-1.0-162.0","0","0","99925","","8","","","68","17","","","","","","","","","","","","","","","d",""
"","S1","","html-keyboard-response","119","150813","0.0-1.0-164.0","0","0","99925","","null","","","null","18","","","","","","","","","","","","","","","",""
"","ISI","","html-keyboard-response","120","151823","0.0-1.0-165.0","0","0","99925","","212","","","68","18","d","","","","","","","","","","","","","","",""
"","S2","","html-keyboard-response","121","152083","0.0-1.0-166.0","0","0","99925","","null","","","null","18","","NaN","","","","","","","","","","","","","",""
"","response","","html-keyboard-response","122","152092","0.0-1.0-167.0-0.0","0","0","99925","","1","","","68","18","","","1","18","training","adjacent","FG","6","7","R.jpg","L.jpg","0","1","0","",""
"","feedback","","html-keyboard-response","123","153101","0.0-1.0-168.0-0.0","0","0","99925","","null","","","null","18","","","","","","","","","","","","","","","",""
"","time_out","","html-keyboard-response","124","155110","0.0-1.0-170.0-0.0","0","0","99925","","null","","","null","18","","","","","","","","","","","","","","","",""
"","ITI","","html-keyboard-response","125","156120","0.0-1.0-171.0","0","0","99925","","288","","","68","18","","","","","","","","","","","","","","","d",""
"","S1","","html-keyboard-response","126","156381","0.0-1.0-173.0","0","0","99925","","null","","","null","19","","","","","","","","","","","","","","","",""
"","ISI","","html-keyboard-response","127","157393","0.0-1.0-174.0","0","0","99925","","385","","","68","19","d","","","","","","","","","","","","","","",""
"","S2","","html-keyboard-response","128","157657","0.0-1.0-175.0","0","0","99925","","null","","","null","19","","NaN","","","","","","","","","","","","","",""
"","response","","html-keyboard-response","129","157709","0.0-1.0-176.0-0.0","0","0","99925","","40","","","68","19","","","1","19","training","adjacent","DE","4","5","O.jpg","N.jpg","0","1","0","",""
"","feedback","","html-keyboard-response","130","158721","0.0-1.0-177.0-0.0","0","0","99925","","null","","","null","19","","","","","","","","","","","","","","","",""
"","time_out","","html-keyboard-response","131","160729","0.0-1.0-179.0-0.0","0","0","99925","","null","","","null","19","","","","","","","","","","","","","","","",""
"","ITI","","html-keyboard-response","132","161744","0.0-1.0-180.0","0","0","99925","","null","","","null","19","","","","","","","","","","","","","","","NaN",""
"","S1","","html-keyboard-response","133","162007","0.0-1.0-182.0","0","0","99925","","null","","","null","20","","","","","","","","","","","","","","","",""
"","ISI","","html-keyboard-response","134","163016","0.0-1.0-183.0","0","0","99925","","100","","","75","20","k","","","","","","","","","","","","","","",""
"","S2","","html-keyboard-response","135","163278","0.0-1.0-184.0","0","0","99925","","null","","","null","20","","NaN","","","","","","","","","","","","","",""
"","response","","html-keyboard-response","136","164725","0.0-1.0-185.0-0.0","0","0","99925","","1437","","","75","20","","","1","20","training","adjacent","GF","7","6","L.jpg","R.jpg","1","0","0","",""
"","feedback","","html-keyboard-response","137","165735","0.0-1.0-186.0-0.0","0","0","99925","","null","","","null","20","","","","","","","","","","","","","","","",""
"","time_out","","html-keyboard-response","138","167744","0.0-1.0-188.0-0.0","0","0","99925","","null","","","null","20","","","","","","","","","","","","","","","",""
"","ITI","","html-keyboard-response","139","168756","0.0-1.0-189.0","0","0","99925","","null","","","null","20","","","","","","","","","","","","","","","NaN",""
"","S1","","html-keyboard-response","140","169017","0.0-1.0-191.0","0","0","99925","","null","","","null","21","","","","","","","","","","","","","","","",""
"","ISI","","html-keyboard-response","141","170027","0.0-1.0-192.0","0","0","99925","","380","","","75","21","k","","","","","","","","","","","","","","",""
"","S2","","html-keyboard-response","142","170290","0.0-1.0-193.0","0","0","99925","","null","","","null","21","","NaN","","","","","","","","","","","","","",""
"","response","","html-keyboard-response","143","170853","0.0-1.0-194.0-0.0","0","0","99925","","555","","","75","21","","","1","21","training","adjacent","BA","2","1","P.jpg","M.jpg","1","0","0","",""
"","feedback","","html-keyboard-response","144","171866","0.0-1.0-195.0-0.0","0","0","99925","","null","","","null","21","","","","","","","","","","","","","","","",""
"","time_out","","html-keyboard-response","145","173875","0.0-1.0-197.0-0.0","0","0","99925","","null","","","null","21","","","","","","","","","","","","","","","",""
"","ITI","","html-keyboard-response","146","174883","0.0-1.0-198.0","0","0","99925","","608","","","75","21","","","","","","","","","","","","","","","k",""
"","S1","","html-keyboard-response","147","175143","0.0-1.0-200.0","0","0","99925","","null","","","null","22","","","","","","","","","","","","","","","",""
"","ISI","","html-keyboard-response","148","176150","0.0-1.0-201.0","0","0","99925","","521","","","75","22","k","","","","","","","","","","","","","","",""
"","S2","","html-keyboard-response","149","176413","0.0-1.0-202.0","0","0","99925","","null","","","null","22","","NaN","","","","","","","","","","","","","",""
"","response","","html-keyboard-response","150","177040","0.0-1.0-203.0-0.0","0","0","99925","","614","","","75","22","","","1","22","training","adjacent","CB","3","2","Q.jpg","P.jpg","1","0","0","",""
"","feedback","","html-keyboard-response","151","178051","0.0-1.0-204.0-0.0","0","0","99925","","null","","","null","22","","","","","","","","","","","","","","","",""
"","time_out","","html-keyboard-response","152","180060","0.0-1.0-206.0-0.0","0","0","99925","","null","","","null","22","","","","","","","","","","","","","","","",""
"","ITI","","html-keyboard-response","153","181070","0.0-1.0-207.0","0","0","99925","","489","","","75","22","","","","","","","","","","","","","","","k",""
"","S1","","html-keyboard-response","154","181331","0.0-1.0-209.0","0","0","99925","","null","","","null","23","","","","","","","","","","","","","","","",""
"","ISI","","html-keyboard-response","155","182343","0.0-1.0-210.0","0","0","99925","","45","","","75","23","k","","","","","","","","","","","","","","",""
"","S2","","html-keyboard-response","156","182529","0.0-1.0-211.0","0","0","99925","","170","","","75","23","","k","1","23","training","adjacent","FG","6","7","R.jpg","L.jpg","1","1","1","",""
"","feedback","","html-keyboard-response","157","183540","0.0-1.0-213.0-0.0","0","0","99925","","null","","","null","23","","","","","","","","","","","","","","","",""
"","ITI","","html-keyboard-response","158","184550","0.0-1.0-216.0","0","0","99925","","null","","","null","23","","","","","","","","","","","","","","","NaN",""
"","S1","","html-keyboard-response","159","184810","0.0-1.0-218.0","0","0","99925","","null","","","null","24","","","","","","","","","","","","","","","",""
"","ISI","","html-keyboard-response","160","185819","0.0-1.0-219.0","0","0","99925","","103","","","75","24","k","","","","","","","","","","","","","","",""
"","S2","","html-keyboard-response","161","186083","0.0-1.0-220.0","0","0","99925","","null","","","null","24","","NaN","","","","","","","","","","","","","",""
"","response","","html-keyboard-response","162","186611","0.0-1.0-221.0-0.0","0","0","99925","","519","","","75","24","","","1","24","training","adjacent","AB","1","2","M.jpg","P.jpg","1","1","1","",""
"","feedback","","html-keyboard-response","163","187625","0.0-1.0-222.0-0.0","0","0","99925","","null","","","null","24","","","","","","","","","","","","","","","",""
"","ITI","","html-keyboard-response","164","188638","0.0-1.0-225.0","0","0","99925","","456","","","75","24","","","","","","","","","","","","","","","k",""
"","S1","","html-keyboard-response","165","188903","0.0-1.0-227.0","0","0","99925","","null","","","null","25","","","","","","","","","","","","","","","",""
"","ISI","","html-keyboard-response","166","189911","0.0-1.0-228.0","0","0","99925","","65","","","75","25","k","","","","","","","","","","","","","","",""
"","S2","","html-keyboard-response","167","190173","0.0-1.0-229.0","0","0","99925","","null","","","null","25","","NaN","","","","","","","","","","","","","",""
"","response","","html-keyboard-response","168","190220","0.0-1.0-230.0-0.0","0","0","99925","","37","","","75","25","","","1","25","training","adjacent","CB","3","2","Q.jpg","P.jpg","1","0","0","",""
"","feedback","","html-keyboard-response","169","191232","0.0-1.0-231.0-0.0","0","0","99925","","null","","","null","25","","","","","","","","","","","","","","","",""
"","time_out","","html-keyboard-response","170","193245","0.0-1.0-233.0-0.0","0","0","99925","","null","","","null","25","","","","","","","","","","","","","","","",""
"","ITI","","html-keyboard-response","171","194259","0.0-1.0-234.0","0","0","99925","","373","","","68","25","","","","","","","","","","","","","","","d",""
"","S1","","html-keyboard-response","172","194523","0.0-1.0-236.0","0","0","99925","","null","","","null","26","","","","","","","","","","","","","","","",""
"","ISI","","html-keyboard-response","173","195533","0.0-1.0-237.0","0","0","99925","","85","","","68","26","d","","","","","","","","","","","","","","",""
"","S2","","html-keyboard-response","174","195751","0.0-1.0-238.0","0","0","99925","","209","","","68","26","","d","1","26","training","adjacent","AB","1","2","M.jpg","P.jpg","0","1","0","",""
"","feedback","","html-keyboard-response","175","196761","0.0-1.0-240.0-0.0","0","0","99925","","null","","","null","26","","","","","","","","","","","","","","","",""
"","time_out","","html-keyboard-response","176","198769","0.0-1.0-242.0-0.0","0","0","99925","","null","","","null","26","","","","","","","","","","","","","","","",""
"","ITI","","html-keyboard-response","177","199777","0.0-1.0-243.0","0","0","99925","","292","","","68","26","","","","","","","","","","","","","","","d",""
"","S1","","html-keyboard-response","178","200039","0.0-1.0-245.0","0","0","99925","","null","","","null","27","","","","","","","","","","","","","","","",""
"","ISI","","html-keyboard-response","179","201049","0.0-1.0-246.0","0","0","99925","","454","","","68","27","d","","","","","","","","","","","","","","",""
"","S2","","html-keyboard-response","180","201295","0.0-1.0-247.0","0","0","99925","","237","","","68","27","","d","1","27","training","adjacent","BC","2","3","P.jpg","Q.jpg","0","1","0","",""
"","feedback","","html-keyboard-response","181","202308","0.0-1.0-249.0-0.0","0","0","99925","","null","","","null","27","","","","","","","","","","","","","","","",""
"","time_out","","html-keyboard-response","182","204320","0.0-1.0-251.0-0.0","0","0","99925","","null","","","null","27","","","","","","","","","","","","","","","",""
"","ITI","","html-keyboard-response","183","205332","0.0-1.0-252.0","0","0","99925","","324","","","75","27","","","","","","","","","","","","","","","k",""
"","S1","","html-keyboard-response","184","205596","0.0-1.0-254.0","0","0","99925","","null","","","null","28","","","","","","","","","","","","","","","",""
"","ISI","","html-keyboard-response","185","206606","0.0-1.0-255.0","0","0","99925","","311","","","75","28","k","","","","","","","","","","","","","","",""
"","S2","","html-keyboard-response","186","206865","0.0-1.0-256.0","0","0","99925","","null","","","null","28","","NaN","","","","","","","","","","","","","",""
"","response","","html-keyboard-response","187","207583","0.0-1.0-257.0-0.0","0","0","99925","","708","","","75","28","","","1","28","training","adjacent","EF","5","6","N.jpg","R.jpg","1","1","1","",""
"","feedback","","html-keyboard-response","188","208596","0.0-1.0-258.0-0.0","0","0","99925","","null","","","null","28","","","","","","","","","","","","","","","",""
"","ITI","","html-keyboard-response","189","209609","0.0-1.0-261.0","0","0","99925","","641","","","75","28","","","","","","","","","","","","","","","k",""
"","S1","","html-keyboard-response","190","209872","0.0-1.0-263.0","0","0","99925","","null","","","null","29","","","","","","","","","","","","","","","",""
"","ISI","","html-keyboard-response","191","210884","0.0-1.0-264.0","0","0","99925","","null","","","null","29","NaN","","","","","","","","","","","","","","",""
"","S2","","html-keyboard-response","192","211151","0.0-1.0-265.0","0","0","99925","","null","","","null","29","","NaN","","","","","","","","","","","","","",""
"","response","","html-keyboard-response","193","211525","0.0-1.0-266.0-0.0","0","0","99925","","361","","","75","29","","","1","29","training","adjacent","AB","1","2","M.jpg","P.jpg","1","1","1","",""
"","feedback","","html-keyboard-response","194","212533","0.0-1.0-267.0-0.0","0","0","99925","","null","","","null","29","","","","","","","","","","","","","","","",""
"","ITI","","html-keyboard-response","195","213541","0.0-1.0-270.0","0","0","99925","","null","","","null","29","","","","","","","","","","","","","","","NaN",""
"","S1","","html-keyboard-response","196","213800","0.0-1.0-272.0","0","0","99925","","null","","","null","30","","","","","","","","","","","","","","","",""
"","ISI","","html-keyboard-response","197","214809","0.0-1.0-273.0","0","0","99925","","834","","","75","30","k","","","","","","","","","","","","","","",""
"","S2","","html-keyboard-response","198","215072","0.0-1.0-274.0","0","0","99925","","null","","","null","30","","NaN","","","","","","","","","","","","","",""
"","response","","html-keyboard-response","199","216073","0.0-1.0-275.0-0.0","0","0","99925","","993","","","75","30","","","1","30","training","adjacent","GF","7","6","L.jpg","R.jpg","1","0","0","",""
"","feedback","","html-keyboard-response","200","217082","0.0-1.0-276.0-0.0","0","0","99925","","null","","","null","30","","","","","","","","","","","","","","","",""
"","time_out","","html-keyboard-response","201","219090","0.0-1.0-278.0-0.0","0","0","99925","","null","","","null","30","","","","","","","","","","","","","","","",""
"","ITI","","html-keyboard-response","202","220102","0.0-1.0-279.0","0","0","99925","","185","","","68","30","","","","","","","","","","","","","","","d",""
"","S1","","html-keyboard-response","203","220364","0.0-1.0-281.0","0","0","99925","","null","","","null","31","","","","","","","","","","","","","","","",""
"","ISI","","html-keyboard-response","204","221374","0.0-1.0-282.0","0","0","99925","","null","","","null","31","NaN","","","","","","","","","","","","","","",""
"","S2","","html-keyboard-response","205","221622","0.0-1.0-283.0","0","0","99925","","238","","","68","31","","d","1","31","training","adjacent","DC","4","3","O.jpg","Q.jpg","0","0","1","",""
"","feedback","","html-keyboard-response","206","222632","0.0-1.0-285.0-0.0","0","0","99925","","null","","","null","31","","","","","","","","","","","","","","","",""
"","ITI","","html-keyboard-response","207","223641","0.0-1.0-288.0","0","0","99925","","494","","","68","31","","","","","","","","","","","","","","","d",""
"","S1","","html-keyboard-response","208","223902","0.0-1.0-290.0","0","0","99925","","null","","","null","32","","","","","","","","","","","","","","","",""
"","ISI","","html-keyboard-response","209","224911","0.0-1.0-291.0","0","0","99925","","392","","","68","32","d","","","","","","","","","","","","","","",""
"","S2","","html-keyboard-response","210","225173","0.0-1.0-292.0","0","0","99925","","null","","","null","32","","NaN","","","","","","","","","","","","","",""
"","response","","html-keyboard-response","211","225399","0.0-1.0-293.0-0.0","0","0","99925","","215","","","68","32","","","1","32","training","adjacent","ED","5","4","N.jpg","O.jpg","0","0","1","",""
"","feedback","","html-keyboard-response","212","226410","0.0-1.0-294.0-0.0","0","0","99925","","null","","","null","32","","","","","","","","","","","","","","","",""
"","ITI","","html-keyboard-response","213","227420","0.0-1.0-297.0","0","0","99925","","434","","","68","32","","","","","","","","","","","","","","","d",""
"","S1","","html-keyboard-response","214","227679","0.0-1.0-299.0","0","0","99925","","null","","","null","33","","","","","","","","","","","","","","","",""
"","ISI","","html-keyboard-response","215","228687","0.0-1.0-300.0","0","0","99925","","682","","","68","33","d","","","","","","","","","","","","","","",""
"","S2","","html-keyboard-response","216","228949","0.0-1.0-301.0","0","0","99925","","null","","","null","33","","NaN","","","","","","","","","","","","","",""
"","response","","html-keyboard-response","217","229513","0.0-1.0-302.0-0.0","0","0","99925","","557","","","68","33","","","1","33","training","adjacent","FE","6","5","R.jpg","N.jpg","0","0","1","",""
"","feedback","","html-keyboard-response","218","230523","0.0-1.0-303.0-0.0","0","0","99925","","null","","","null","33","","","","","","","","","","","","","","","",""
"","ITI","","html-keyboard-response","219","231537","0.0-1.0-306.0","0","0","99925","","638","","","68","33","","","","","","","","","","","","","","","d",""
"","S1","","html-keyboard-response","220","231798","0.0-1.0-308.0","0","0","99925","","null","","","null","34","","","","","","","","","","","","","","","",""
"","ISI","","html-keyboard-response","221","232809","0.0-1.0-309.0","0","0","99925","","414","","","68","34","d","","","","","","","","","","","","","","",""
"","S2","","html-keyboard-response","222","233072","0.0-1.0-310.0","0","0","99925","","null","","","null","34","","NaN","","","","","","","","","","","","","",""
"","response","","html-keyboard-response","223","233225","0.0-1.0-311.0-0.0","0","0","99925","","143","","","68","34","","","1","34","training","adjacent","DC","4","3","O.jpg","Q.jpg","0","0","1","",""
"","feedback","","html-keyboard-response","224","234237","0.0-1.0-312.0-0.0","0","0","99925","","null","","","null","34","","","","","","","","","","","","","","","",""
"","ITI","","html-keyboard-response","225","235251","0.0-1.0-315.0","0","0","99925","","313","","","68","34","","","","","","","","","","","","","","","d",""
"","S1","","html-keyboard-response","226","235514","0.0-1.0-317.0","0","0","99925","","null","","","null","35","","","","","","","","","","","","","","","",""
"","ISI","","html-keyboard-response","227","236523","0.0-1.0-318.0","0","0","99925","","573","","","68","35","d","","","","","","","","","","","","","","",""
"","S2","","html-keyboard-response","228","236782","0.0-1.0-319.0","0","0","99925","","null","","","null","35","","NaN","","","","","","","","","","","","","",""
"","response","","html-keyboard-response","229","237013","0.0-1.0-320.0-0.0","0","0","99925","","218","","","68","35","","","1","35","training","adjacent","CD","3","4","Q.jpg","O.jpg","0","1","0","",""
"","feedback","","html-keyboard-response","230","238024","0.0-1.0-321.0-0.0","0","0","99925","","null","","","null","35","","","","","","","","","","","","","","","",""
"","time_out","","html-keyboard-response","231","240033","0.0-1.0-323.0-0.0","0","0","99925","","null","","","null","35","","","","","","","","","","","","","","","",""
"","ITI","","html-keyboard-response","232","241047","0.0-1.0-324.0","0","0","99925","","222","","","68","35","","","","","","","","","","","","","","","d",""
"","S1","","html-keyboard-response","233","241310","0.0-1.0-326.0","0","0","99925","","null","","","null","36","","","","","","","","","","","","","","","",""
"","ISI","","html-keyboard-response","234","242323","0.0-1.0-327.0","0","0","99925","","1","","","68","36","d","","","","","","","","","","","","","","",""
"","S2","","html-keyboard-response","235","242584","0.0-1.0-328.0","0","0","99925","","null","","","null","36","","NaN","","","","","","","","","","","","","",""
"","response","","html-keyboard-response","236","244343","0.0-1.0-329.0-0.0","0","0","99925","","null","","","null","36","","","1","36","training","adjacent","ED","5","4","N.jpg","O.jpg","NaN","0","0","",""
"","too_slow_prompt","","html-keyboard-response","237","245354","0.0-1.0-331.0-0.0","1","0","99925","","null","","","null","","","","","","","","","","","","","","","","",""
"","time_out","","html-keyboard-response","238","247363","0.0-1.0-332.0-0.0","0","0","99925","","null","","","null","36","","","","","","","","","","","","","","","",""
"","ITI","","html-keyboard-response","239","248376","0.0-1.0-333.0","0","0","99925","","325","","","68","36","","","","","","","","","","","","","","","d",""
"","S1","","html-keyboard-response","240","248638","0.0-1.0-335.0","0","0","99925","","null","","","null","37","","","","","","","","","","","","","","","",""
"","ISI","","html-keyboard-response","241","249645","0.0-1.0-336.0","0","0","99925","","null","","","null","37","NaN","","","","","","","","","","","","","","",""
"","S2","","html-keyboard-response","242","249697","0.0-1.0-337.0","0","0","99925","","45","","","68","37","","d","1","37","training","adjacent","CD","3","4","Q.jpg","O.jpg","0","1","0","",""
"","feedback","","html-keyboard-response","243","250710","0.0-1.0-339.0-0.0","0","0","99925","","null","","","null","37","","","","","","","","","","","","","","","",""
"","time_out","","html-keyboard-response","244","252725","0.0-1.0-341.0-0.0","0","0","99925","","null","","","null","37","","","","","","","","","","","","","","","",""
"","ITI","","html-keyboard-response","245","253735","0.0-1.0-342.0","0","0","99925","","0","","","75","37","","","","","","","","","","","","","","","k",""
"","S1","","html-keyboard-response","246","253996","0.0-1.0-344.0","0","0","99925","","null","","","null","38","","","","","","","","","","","","","","","",""
"","ISI","","html-keyboard-response","247","255011","0.0-1.0-345.0","0","0","99925","","1","","","75","38","k","","","","","","","","","","","","","","",""
"","S2","","html-keyboard-response","248","255051","0.0-1.0-346.0","0","0","99925","","29","","","75","38","","k","1","38","training","adjacent","GF","7","6","L.jpg","R.jpg","1","0","0","",""
"","feedback","","html-keyboard-response","249","256060","0.0-1.0-348.0-0.0","0","0","99925","","null","","","null","38","","","","","","","","","","","","","","","",""
"","time_out","","html-keyboard-response","250","258071","0.0-1.0-350.0-0.0","0","0","99925","","null","","","null","38","","","","","","","","","","","","","","","",""
"","ITI","","html-keyboard-response","251","259082","0.0-1.0-351.0","0","0","99925","","191","","","75","38","","","","","","","","","","","","","","","k",""
"","S1","","html-keyboard-response","252","259343","0.0-1.0-353.0","0","0","99925","","null","","","null","39","","","","","","","","","","","","","","","",""
"","ISI","","html-keyboard-response","253","260353","0.0-1.0-354.0","0","0","99925","","1","","","75","39","k","","","","","","","","","","","","","","",""
"","S2","","html-keyboard-response","254","260618","0.0-1.0-355.0","0","0","99925","","null","","","null","39","","NaN","","","","","","","","","","","","","",""
"","response","","html-keyboard-response","255","260626","0.0-1.0-356.0-0.0","0","0","99925","","0","","","75","39","","","1","39","training","adjacent","BC","2","3","P.jpg","Q.jpg","1","1","1","",""
"","feedback","","html-keyboard-response","256","261637","0.0-1.0-357.0-0.0","0","0","99925","","null","","","null","39","","","","","","","","","","","","","","","",""
"","ITI","","html-keyboard-response","257","262650","0.0-1.0-360.0","0","0","99925","","485","","","75","39","","","","","","","","","","","","","","","k",""
"","S1","","html-keyboard-response","258","262909","0.0-1.0-362.0","0","0","99925","","null","","","null","40","","","","","","","","","","","","","","","",""
"","ISI","","html-keyboard-response","259","263919","0.0-1.0-363.0","0","0","99925","","null","","","null","40","NaN","","","","","","","","","","","","","","",""
"","S2","","html-keyboard-response","260","263950","0.0-1.0-364.0","0","0","99925","","22","","","75","40","","k","1","40","training","adjacent","BA","2","1","P.jpg","M.jpg","1","0","0","",""
"","feedback","","html-keyboard-response","261","264962","0.0-1.0-366.0-0.0","0","0","99925","","null","","","null","40","","","","","","","","","","","","","","","",""
"","time_out","","html-keyboard-response","262","266973","0.0-1.0-368.0-0.0","0","0","99925","","null","","","null","40","","","","","","","","","","","","","","","",""
"","ITI","","html-keyboard-response","263","267981","0.0-1.0-369.0","0","0","99925","","385","","","75","40","","","","","","","","","","","","","","","k",""
"","S1","","html-keyboard-response","264","268243","0.0-1.0-371.0","0","0","99925","","null","","","null","41","","","","","","","","","","","","","","","",""
"","ISI","","html-keyboard-response","265","269254","0.0-1.0-372.0","0","0","99925","","384","","","75","41","k","","","","","","","","","","","","","","",""
"","S2","","html-keyboard-response","266","269514","0.0-1.0-373.0","0","0","99925","","null","","","null","41","","NaN","","","","","","","","","","","","","",""
"","response","","html-keyboard-response","267","269770","0.0-1.0-374.0-0.0","0","0","99925","","247","","","75","41","","","1","41","training","adjacent","CD","3","4","Q.jpg","O.jpg","1","1","1","",""
"","feedback","","html-keyboard-response","268","270781","0.0-1.0-375.0-0.0","0","0","99925","","null","","","null","41","","","","","","","","","","","","","","","",""
"","ITI","","html-keyboard-response","269","271791","0.0-1.0-378.0","0","0","99925","","844","","","75","41","","","","","","","","","","","","","","","k",""
"","S1","","html-keyboard-response","270","272053","0.0-1.0-380.0","0","0","99925","","null","","","null","42","","","","","","","","","","","","","","","",""
"","ISI","","html-keyboard-response","271","273062","0.0-1.0-381.0","0","0","99925","","911","","","75","42","k","","","","","","","","","","","","","","",""
"","S2","","html-keyboard-response","272","273327","0.0-1.0-382.0","0","0","99925","","null","","","null","42","","NaN","","","","","","","","","","","","","",""
"","response","","html-keyboard-response","273","275036","0.0-1.0-383.0-0.0","0","0","99925","","1698","","","75","42","","","1","42","training","adjacent","CD","3","4","Q.jpg","O.jpg","1","1","1","",""
"","feedback","","html-keyboard-response","274","276048","0.0-1.0-384.0-0.0","0","0","99925","","null","","","null","42","","","","","","","","","","","","","","","",""
"","ITI","","html-keyboard-response","275","277059","0.0-1.0-387.0","0","0","99925","","205","","","68","42","","","","","","","","","","","","","","","d",""
"","S1","","html-keyboard-response","276","277323","0.0-1.0-389.0","0","0","99925","","null","","","null","43","","","","","","","","","","","","","","","",""
"","ISI","","html-keyboard-response","277","278333","0.0-1.0-390.0","0","0","99925","","923","","","68","43","d","","","","","","","","","","","","","","",""
"","S2","","html-keyboard-response","278","278595","0.0-1.0-391.0","0","0","99925","","null","","","null","43","","NaN","","","","","","","","","","","","","",""
"","response","","html-keyboard-response","279","279316","0.0-1.0-392.0-0.0","0","0","99925","","710","","","68","43","","","1","43","training","adjacent","FE","6","5","R.jpg","N.jpg","0","0","1","",""
"","feedback","","html-keyboard-response","280","280326","0.0-1.0-393.0-0.0","0","0","99925","","null","","","null","43","","","","","","","","","","","","","","","",""
"","ITI","","html-keyboard-response","281","281337","0.0-1.0-396.0","0","0","99925","","null","","","null","43","","","","","","","","","","","","","","","NaN",""
"","S1","","html-keyboard-response","282","281601","0.0-1.0-398.0","0","0","99925","","null","","","null","44","","","","","","","","","","","","","","","",""
"","ISI","","html-keyboard-response","283","282611","0.0-1.0-399.0","0","0","99925","","47","","","68","44","d","","","","","","","","","","","","","","",""
"","S2","","html-keyboard-response","284","282839","0.0-1.0-400.0","0","0","99925","","216","","","68","44","","d","1","44","training","adjacent","BA","2","1","P.jpg","M.jpg","0","0","1","",""
"","feedback","","html-keyboard-response","285","283850","0.0-1.0-402.0-0.0","0","0","99925","","null","","","null","44","","","","","","","","","","","","","","","",""
"","ITI","","html-keyboard-response","286","284860","0.0-1.0-405.0","0","0","99925","","75","","","68","44","","","","","","","","","","","","","","","d",""
"","S1","","html-keyboard-response","287","285123","0.0-1.0-407.0","0","0","99925","","null","","","null","45","","","","","","","","","","","","","","","",""
"","ISI","","html-keyboard-response","288","286132","0.0-1.0-408.0","0","0","99925","","45","","","68","45","d","","","","","","","","","","","","","","",""
"","S2","","html-keyboard-response","289","286393","0.0-1.0-409.0","0","0","99925","","null","","","null","45","","NaN","","","","","","","","","","","","","",""
"","response","","html-keyboard-response","290","286978","0.0-1.0-410.0-0.0","0","0","99925","","577","","","68","45","","","1","45","training","adjacent","AB","1","2","M.jpg","P.jpg","0","1","0","",""
"","feedback","","html-keyboard-response","291","287990","0.0-1.0-411.0-0.0","0","0","99925","","null","","","null","45","","","","","","","","","","","","","","","",""
"","time_out","","html-keyboard-response","292","290000","0.0-1.0-413.0-0.0","0","0","99925","","null","","","null","45","","","","","","","","","","","","","","","",""
"","ITI","","html-keyboard-response","293","291012","0.0-1.0-414.0","0","0","99925","","880","","","68","45","","","","","","","","","","","","","","","d",""
"","S1","","html-keyboard-response","294","291278","0.0-1.0-416.0","0","0","99925","","null","","","null","46","","","","","","","","","","","","","","","",""
"","ISI","","html-keyboard-response","295","292290","0.0-1.0-417.0","0","0","99925","","46","","","68","46","d","","","","","","","","","","","","","","",""
"","S2","","html-keyboard-response","296","292340","0.0-1.0-418.0","0","0","99925","","38","","","75","46","","k","1","46","training","adjacent","FG","6","7","R.jpg","L.jpg","1","1","1","",""
"","feedback","","html-keyboard-response","297","293352","0.0-1.0-420.0-0.0","0","0","99925","","null","","","null","46","","","","","","","","","","","","","","","",""
"","ITI","","html-keyboard-response","298","294365","0.0-1.0-423.0","0","0","99925","","null","","","null","46","","","","","","","","","","","","","","","NaN",""
"","S1","","html-keyboard-response","299","294630","0.0-1.0-425.0","0","0","99925","","null","","","null","47","","","","","","","","","","","","","","","",""
"","ISI","","html-keyboard-response","300","295640","0.0-1.0-426.0","0","0","99925","","232","","","75","47","k","","","","","","","","","","","","","","",""
"","S2","","html-keyboard-response","301","295735","0.0-1.0-427.0","0","0","99925","","84","","","75","47","","k","1","47","training","adjacent","ED","5","4","N.jpg","O.jpg","1","0","0","",""
"","feedback","","html-keyboard-response","302","296761","0.0-1.0-429.0-0.0","0","0","99925","","null","","","null","47","","","","","","","","","","","","","","","",""
"","time_out","","html-keyboard-response","303","298770","0.0-1.0-431.0-0.0","0","0","99925","","null","","","null","47","","","","","","","","","","","","","","","",""
"","ITI","","html-keyboard-response","304","299780","0.0-1.0-432.0","0","0","99925","","54","","","75","47","","","","","","","","","","","","","","","k",""
"","block_over","","html-keyboard-response","305","304356","0.0-1.0-433.0-0.0","0","0","99925","","4562","","","32","47","","","","","","","","","","","","","","","",""
"","S1","","html-keyboard-response","306","304616","0.0-1.0-434.0","0","0","99925","","null","","","null","48","","","","","","","","","","","","","","","",""
"","ISI","","html-keyboard-response","307","305624","0.0-1.0-435.0","0","0","99925","","874","","","75","48","k","","","","","","","","","","","","","","",""
"","S2","","html-keyboard-response","308","305884","0.0-1.0-436.0","0","0","99925","","null","","","null","48","","NaN","","","","","","","","","","","","","",""
"","response","","html-keyboard-response","309","306586","0.0-1.0-437.0-0.0","0","0","99925","","693","","","75","48","","","2","48","training","adjacent","ED","5","4","N.jpg","O.jpg","1","0","0","",""
"","feedback","","html-keyboard-response","310","307597","0.0-1.0-438.0-0.0","0","0","99925","","null","","","null","48","","","","","","","","","","","","","","","",""
"","time_out","","html-keyboard-response","311","309608","0.0-1.0-440.0-0.0","0","0","99925","","null","","","null","48","","","","","","","","","","","","","","","",""
"","ITI","","html-keyboard-response","312","310619","0.0-1.0-441.0","0","0","99925","","71","","","75","48","","","","","","","","","","","","","","","k",""
"","S1","","html-keyboard-response","313","310881","0.0-1.0-443.0","0","0","99925","","null","","","null","49","","","","","","","","","","","","","","","",""
"","ISI","","html-keyboard-response","314","311891","0.0-1.0-444.0","0","0","99925","","713","","","75","49","k","","","","","","","","","","","","","","",""
"","S2","","html-keyboard-response","315","312025","0.0-1.0-445.0","0","0","99925","","123","","","75","49","","k","2","49","training","adjacent","CB","3","2","Q.jpg","P.jpg","1","0","0","",""
"","feedback","","html-keyboard-response","316","313037","0.0-1.0-447.0-0.0","0","0","99925","","null","","","null","49","","","","","","","","","","","","","","","",""
"","time_out","","html-keyboard-response","317","315048","0.0-1.0-449.0-0.0","0","0","99925","","null","","","null","49","","","","","","","","","","","","","","","",""
"","ITI","","html-keyboard-response","318","316058","0.0-1.0-450.0","0","0","99925","","593","","","75","49","","","","","","","","","","","","","","","k",""
"","S1","","html-keyboard-response","319","316322","0.0-1.0-452.0","0","0","99925","","null","","","null","50","","","","","","","","","","","","","","","",""
"","ISI","","html-keyboard-response","320","317335","0.0-1.0-453.0","0","0","99925","","null","","","null","50","NaN","","","","","","","","","","","","","","",""
"","S2","","html-keyboard-response","321","317598","0.0-1.0-454.0","0","0","99925","","null","","","null","50","","NaN","","","","","","","","","","","","","",""
"","response","","html-keyboard-response","322","319359","0.0-1.0-455.0-0.0","0","0","99925","","null","","","null","50","","","2","50","training","adjacent","FE","6","5","R.jpg","N.jpg","NaN","0","0","",""
"","too_slow_prompt","","html-keyboard-response","323","320369","0.0-1.0-457.0-0.0","1","0","99925","","null","","","null","","","","","","","","","","","","","","","","",""
"","time_out","","html-keyboard-response","324","322379","0.0-1.0-458.0-0.0","0","0","99925","","null","","","null","50","","","","","","","","","","","","","","","",""
"","ITI","","html-keyboard-response","325","323392","0.0-1.0-459.0","0","0","99925","","null","","","null","50","","","","","","","","","","","","","","","NaN",""
"","S1","","html-keyboard-response","326","323653","0.0-1.0-461.0","0","0","99925","","null","","","null","51","","","","","","","","","","","","","","","",""
"","ISI","","html-keyboard-response","327","324664","0.0-1.0-462.0","0","0","99925","","373","","","75","51","k","","","","","","","","","","","","","","",""
"","S2","","html-keyboard-response","328","324927","0.0-1.0-463.0","0","0","99925","","null","","","null","51","","NaN","","","","","","","","","","","","","",""
"","response","","html-keyboard-response","329","326121","0.0-1.0-464.0-0.0","0","0","99925","","1181","","","75","51","","","2","51","training","adjacent","DC","4","3","O.jpg","Q.jpg","1","0","0","",""
"","feedback","","html-keyboard-response","330","327135","0.0-1.0-465.0-0.0","0","0","99925","","null","","","null","51","","","","","","","","","","","","","","","",""
"","time_out","","html-keyboard-response","331","329149","0.0-1.0-467.0-0.0","0","0","99925","","null","","","null","51","","","","","","","","","","","","","","","",""
"","ITI","","html-keyboard-response","332","330160","0.0-1.0-468.0","0","0","99925","","136","","","68","51","","","","","","","","","","","","","","","d",""
"","S1","","html-keyboard-response","333","330424","0.0-1.0-470.0","0","0","99925","","null","","","null","52","","","","","","","","","","","","","","","",""
"","ISI","","html-keyboard-response","334","331433","0.0-1.0-471.0","0","0","99925","","398","","","68","52","d","","","","","","","","","","","","","","",""
"","S2","","html-keyboard-response","335","331601","0.0-1.0-472.0","0","0","99925","","156","","","68","52","","d","2","52","training","adjacent","ED","5","4","N.jpg","O.jpg","0","0","1","",""
"","feedback","","html-keyboard-response","336","332611","0.0-1.0-474.0-0.0","0","0","99925","","null","","","null","52","","","","","","","","","","","","","","","",""
"","ITI","","html-keyboard-response","337","333623","0.0-1.0-477.0","0","0","99925","","null","","","null","52","","","","","","","","","","","","","","","NaN",""
"","S1","","html-keyboard-response","338","333885","0.0-1.0-479.0","0","0","99925","","null","","","null","53","","","","","","","","","","","","","","","",""
"","ISI","","html-keyboard-response","339","334895","0.0-1.0-480.0","0","0","99925","","null","","","null","53","NaN","","","","","","","","","","","","","","",""
"","S2","","html-keyboard-response","340","335159","0.0-1.0-481.0","0","0","99925","","null","","","null","53","","NaN","","","","","","","","","","","","","",""
"","response","","html-keyboard-response","341","336398","0.0-1.0-482.0-0.0","0","0","99925","","1226","","","68","53","","","2","53","training","adjacent","FG","6","7","R.jpg","L.jpg","0","1","0","",""
"","feedback","","html-keyboard-response","342","337409","0.0-1.0-483.0-0.0","0","0","99925","","null","","","null","53","","","","","","","","","","","","","","","",""
"","time_out","","html-keyboard-response","343","339418","0.0-1.0-485.0-0.0","0","0","99925","","null","","","null","53","","","","","","","","","","","","","","","",""
"","ITI","","html-keyboard-response","344","340429","0.0-1.0-486.0","0","0","99925","","549","","","68","53","","","","","","","","","","","","","","","d",""
"","S1","","html-keyboard-response","345","340693","0.0-1.0-488.0","0","0","99925","","null","","","null","54","","","","","","","","","","","","","","","",""
"","ISI","","html-keyboard-response","346","341703","0.0-1.0-489.0","0","0","99925","","null","","","null","54","NaN","","","","","","","","","","","","","","",""
"","S2","","html-keyboard-response","347","341966","0.0-1.0-490.0","0","0","99925","","null","","","null","54","","NaN","","","","","","","","","","","","","",""
"","response","","html-keyboard-response","348","343226","0.0-1.0-491.0-0.0","0","0","99925","","1250","","","68","54","","","2","54","training","adjacent","FG","6","7","R.jpg","L.jpg","0","1","0","",""
"","feedback","","html-keyboard-response","349","344239","0.0-1.0-492.0-0.0","0","0","99925","","null","","","null","54","","","","","","","","","","","","","","","",""
"","time_out","","html-keyboard-response","350","346250","0.0-1.0-494.0-0.0","0","0","99925","","null","","","null","54","","","","","","","","","","","","","","","",""
"","ITI","","html-keyboard-response","351","347263","0.0-1.0-495.0","0","0","99925","","300","","","68","54","","","","","","","","","","","","","","","d",""
"","S1","","html-keyboard-response","352","347523","0.0-1.0-497.0","0","0","99925","","null","","","null","55","","","","","","","","","","","","","","","",""
"","ISI","","html-keyboard-response","353","348530","0.0-1.0-498.0","0","0","99925","","181","","","68","55","d","","","","","","","","","","","","","","",""
"","S2","","html-keyboard-response","354","348791","0.0-1.0-499.0","0","0","99925","","null","","","null","55","","NaN","","","","","","","","","","","","","",""
"","response","","html-keyboard-response","355","349086","0.0-1.0-500.0-0.0","0","0","99925","","286","","","68","55","","","2","55","training","adjacent","BC","2","3","P.jpg","Q.jpg","0","1","0","",""
"","feedback","","html-keyboard-response","356","350099","0.0-1.0-501.0-0.0","0","0","99925","","null","","","null","55","","","","","","","","","","","","","","","",""
"","time_out","","html-keyboard-response","357","352110","0.0-1.0-503.0-0.0","0","0","99925","","null","","","null","55","","","","","","","","","","","","","","","",""
"","ITI","","html-keyboard-response","358","353122","0.0-1.0-504.0","0","0","99925","","537","","","75","55","","","","","","","","","","","","","","","k",""
"","S1","","html-keyboard-response","359","353381","0.0-1.0-506.0","0","0","99925","","null","","","null","56","","","","","","","","","","","","","","","",""
"","ISI","","html-keyboard-response","360","354390","0.0-1.0-507.0","0","0","99925","","332","","","75","56","k","","","","","","","","","","","","","","",""
"","S2","","html-keyboard-response","361","354425","0.0-1.0-508.0","0","0","99925","","26","","","75","56","","k","2","56","training","adjacent","GF","7","6","L.jpg","R.jpg","1","0","0","",""
"","feedback","","html-keyboard-response","362","355437","0.0-1.0-510.0-0.0","0","0","99925","","null","","","null","56","","","","","","","","","","","","","","","",""
"","time_out","","html-keyboard-response","363","357449","0.0-1.0-512.0-0.0","0","0","99925","","null","","","null","56","","","","","","","","","","","","","","","",""
"","ITI","","html-keyboard-response","364","358459","0.0-1.0-513.0","0","0","99925","","626","","","75","56","","","","","","","","","","","","","","","k",""
"","S1","","html-keyboard-response","365","358722","0.0-1.0-515.0","0","0","99925","","null","","","null","57","","","","","","","","","","","","","","","",""
"","ISI","","html-keyboard-response","366","359732","0.0-1.0-516.0","0","0","99925","","259","","","75","57","k","","","","","","","","","","","","","","",""
"","S2","","html-keyboard-response","367","359992","0.0-1.0-517.0","0","0","99925","","null","","","null","57","","NaN","","","","","","","","","","","","","",""
"","response","","html-keyboard-response","368","360151","0.0-1.0-518.0-0.0","0","0","99925","","147","","","75","57","","","2","57","training","adjacent","DC","4","3","O.jpg","Q.jpg","1","0","0","",""
"","feedback","","html-keyboard-response","369","361162","0.0-1.0-519.0-0.0","0","0","99925","","null","","","null","57","","","","","","","","","","","","","","","",""
"","time_out","","html-keyboard-response","370","363177","0.0-1.0-521.0-0.0","0","0","99925","","null","","","null","57","","","","","","","","","","","","","","","",""
"","ITI","","html-keyboard-response","371","364192","0.0-1.0-522.0","0","0","99925","","18","","","75","57","","","","","","","","","","","","","","","k",""
"","S1","","html-keyboard-response","372","364454","0.0-1.0-524.0","0","0","99925","","null","","","null","58","","","","","","","","","","","","","","","",""
"","ISI","","html-keyboard-response","373","365466","0.0-1.0-525.0","0","0","99925","","102","","","75","58","k","","","","","","","","","","","","","","",""
"","S2","","html-keyboard-response","374","365726","0.0-1.0-526.0","0","0","99925","","null","","","null","58","","NaN","","","","","","","","","","","","","",""
"","response","","html-keyboard-response","375","366070","0.0-1.0-527.0-0.0","0","0","99925","","331","","","75","58","","","2","58","training","adjacent","AB","1","2","M.jpg","P.jpg","1","1","1","",""
"","feedback","","html-keyboard-response","376","367081","0.0-1.0-528.0-0.0","0","0","99925","","null","","","null","58","","","","","","","","","","","","","","","",""
"","ITI","","html-keyboard-response","377","368095","0.0-1.0-531.0","0","0","99925","","427","","","75","58","","","","","","","","","","","","","","","k",""
"","S1","","html-keyboard-response","378","368357","0.0-1.0-533.0","0","0","99925","","null","","","null","59","","","","","","","","","","","","","","","",""
"","ISI","","html-keyboard-response","379","369368","0.0-1.0-534.0","0","0","99925","","149","","","75","59","k","","","","","","","","","","","","","","",""
"","S2","","html-keyboard-response","380","369630","0.0-1.0-535.0","0","0","99925","","null","","","null","59","","NaN","","","","","","","","","","","","","",""
"","response","","html-keyboard-response","381","369760","0.0-1.0-536.0-0.0","0","0","99925","","105","","","75","59","","","2","59","training","adjacent","FG","6","7","R.jpg","L.jpg","1","1","1","",""
"","feedback","","html-keyboard-response","382","370772","0.0-1.0-537.0-0.0","0","0","99925","","null","","","null","59","","","","","","","","","","","","","","","",""
"","ITI","","html-keyboard-response","383","371781","0.0-1.0-540.0","0","0","99925","","779","","","75","59","","","","","","","","","","","","","","","k",""
"","S1","","html-keyboard-response","384","372042","0.0-1.0-542.0","0","0","99925","","null","","","null","60","","","","","","","","","","","","","","","",""
"","ISI","","html-keyboard-response","385","373054","0.0-1.0-543.0","0","0","99925","","295","","","75","60","k","","","","","","","","","","","","","","",""
"","S2","","html-keyboard-response","386","373314","0.0-1.0-544.0","0","0","99925","","null","","","null","60","","NaN","","","","","","","","","","","","","",""
"","response","","html-keyboard-response","387","373517","0.0-1.0-545.0-0.0","0","0","99925","","193","","","75","60","","","2","60","training","adjacent","AB","1","2","M.jpg","P.jpg","1","1","1","",""
"","feedback","","html-keyboard-response","388","374530","0.0-1.0-546.0-0.0","0","0","99925","","null","","","null","60","","","","","","","","","","","","","","","",""
"","ITI","","html-keyboard-response","389","375543","0.0-1.0-549.0","0","0","99925","","678","","","75","60","","","","","","","","","","","","","","","k",""
"","S1","","html-keyboard-response","390","375806","0.0-1.0-551.0","0","0","99925","","null","","","null","61","","","","","","","","","","","","","","","",""
"","ISI","","html-keyboard-response","391","376816","0.0-1.0-552.0","0","0","99925","","null","","","null","61","NaN","","","","","","","","","","","","","","",""
"","S2","","html-keyboard-response","392","377081","0.0-1.0-553.0","0","0","99925","","null","","","null","61","","NaN","","","","","","","","","","","","","",""
"","response","","html-keyboard-response","393","378845","0.0-1.0-554.0-0.0","0","0","99925","","null","","","null","61","","","2","61","training","adjacent","FE","6","5","R.jpg","N.jpg","NaN","0","0","",""
"","too_slow_prompt","","html-keyboard-response","394","379854","0.0-1.0-556.0-0.0","1","0","99925","","null","","","null","","","","","","","","","","","","","","","","",""
"","time_out","","html-keyboard-response","395","381864","0.0-1.0-557.0-0.0","0","0","99925","","null","","","null","61","","","","","","","","","","","","","","","",""
"","ITI","","html-keyboard-response","396","382875","0.0-1.0-558.0","0","0","99925","","148","","","75","61","","","","","","","","","","","","","","","k",""
"","S1","","html-keyboard-response","397","383135","0.0-1.0-560.0","0","0","99925","","null","","","null","62","","","","","","","","","","","","","","","",""
"","ISI","","html-keyboard-response","398","384147","0.0-1.0-561.0","0","0","99925","","66","","","75","62","k","","","","","","","","","","","","","","",""
"","S2","","html-keyboard-response","399","384408","0.0-1.0-562.0","0","0","99925","","null","","","null","62","","NaN","","","","","","","","","","","","","",""
"","response","","html-keyboard-response","400","384770","0.0-1.0-563.0-0.0","0","0","99925","","351","","","75","62","","","2","62","training","adjacent","AB","1","2","M.jpg","P.jpg","1","1","1","",""
"","feedback","","html-keyboard-response","401","385779","0.0-1.0-564.0-0.0","0","0","99925","","null","","","null","62","","","","","","","","","","","","","","","",""
"","ITI","","html-keyboard-response","402","386790","0.0-1.0-567.0","0","0","99925","","807","","","75","62","","","","","","","","","","","","","","","k",""
"","S1","","html-keyboard-response","403","387052","0.0-1.0-569.0","0","0","99925","","null","","","null","63","","","","","","","","","","","","","","","",""
"","ISI","","html-keyboard-response","404","388066","0.0-1.0-570.0","0","0","99925","","303","","","75","63","k","","","","","","","","","","","","","","",""
"","S2","","html-keyboard-response","405","388198","0.0-1.0-571.0","0","0","99925","","119","","","75","63","","k","2","63","training","adjacent","BC","2","3","P.jpg","Q.jpg","1","1","1","",""
"","feedback","","html-keyboard-response","406","389208","0.0-1.0-573.0-0.0","0","0","99925","","null","","","null","63","","","","","","","","","","","","","","","",""
"","ITI","","html-keyboard-response","407","390218","0.0-1.0-576.0","0","0","99925","","575","","","75","63","","","","","","","","","","","","","","","k",""
"","S1","","html-keyboard-response","408","390482","0.0-1.0-578.0","0","0","99925","","null","","","null","64","","","","","","","","","","","","","","","",""
"","ISI","","html-keyboard-response","409","391493","0.0-1.0-579.0","0","0","99925","","270","","","75","64","k","","","","","","","","","","","","","","",""
"","S2","","html-keyboard-response","410","391754","0.0-1.0-580.0","0","0","99925","","null","","","null","64","","NaN","","","","","","","","","","","","","",""
"","response","","html-keyboard-response","411","391910","0.0-1.0-581.0-0.0","0","0","99925","","146","","","75","64","","","2","64","training","adjacent","EF","5","6","N.jpg","R.jpg","1","1","1","",""
"","feedback","","html-keyboard-response","412","392919","0.0-1.0-582.0-0.0","0","0","99925","","null","","","null","64","","","","","","","","","","","","","","","",""
"","ITI","","html-keyboard-response","413","393933","0.0-1.0-585.0","0","0","99925","","null","","","null","64","","","","","","","","","","","","","","","NaN",""
"","S1","","html-keyboard-response","414","394196","0.0-1.0-587.0","0","0","99925","","null","","","null","65","","","","","","","","","","","","","","","",""
"","ISI","","html-keyboard-response","415","395204","0.0-1.0-588.0","0","0","99925","","700","","","75","65","k","","","","","","","","","","","","","","",""
"","S2","","html-keyboard-response","416","395466","0.0-1.0-589.0","0","0","99925","","null","","","null","65","","NaN","","","","","","","","","","","","","",""
"","response","","html-keyboard-response","417","396434","0.0-1.0-590.0-0.0","0","0","99925","","956","","","75","65","","","2","65","training","adjacent","FE","6","5","R.jpg","N.jpg","1","0","0","",""
"","feedback","","html-keyboard-response","418","397447","0.0-1.0-591.0-0.0","0","0","99925","","null","","","null","65","","","","","","","","","","","","","","","",""
"","time_out","","html-keyboard-response","419","399459","0.0-1.0-593.0-0.0","0","0","99925","","null","","","null","65","","","","","","","","","","","","","","","",""
"","ITI","","html-keyboard-response","420","400470","0.0-1.0-594.0","0","0","99925","","555","","","75","65","","","","","","","","","","","","","","","k",""
"","S1","","html-keyboard-response","421","400733","0.0-1.0-596.0","0","0","99925","","null","","","null","66","","","","","","","","","","","","","","","",""
"","ISI","","html-keyboard-response","422","401745","0.0-1.0-597.0","0","0","99925","","289","","","75","66","k","","","","","","","","","","","","","","",""
"","S2","","html-keyboard-response","423","402006","0.0-1.0-598.0","0","0","99925","","null","","","null","66","","NaN","","","","","","","","","","","","","",""
"","response","","html-keyboard-response","424","402326","0.0-1.0-599.0-0.0","0","0","99925","","309","","","75","66","","","2","66","training","adjacent","DE","4","5","O.jpg","N.jpg","1","1","1","",""
"","feedback","","html-keyboard-response","425","403340","0.0-1.0-600.0-0.0","0","0","99925","","null","","","null","66","","","","","","","","","","","","","","","",""
"","ITI","","html-keyboard-response","426","404351","0.0-1.0-603.0","0","0","99925","","727","","","75","66","","","","","","","","","","","","","","","k",""
"","S1","","html-keyboard-response","427","404612","0.0-1.0-605.0","0","0","99925","","null","","","null","67","","","","","","","","","","","","","","","",""
"","ISI","","html-keyboard-response","428","405623","0.0-1.0-606.0","0","0","99925","","331","","","75","67","k","","","","","","","","","","","","","","",""
"","S2","","html-keyboard-response","429","405657","0.0-1.0-607.0","0","0","99925","","23","","","75","67","","k","2","67","training","adjacent","DC","4","3","O.jpg","Q.jpg","1","0","0","",""
"","feedback","","html-keyboard-response","430","406672","0.0-1.0-609.0-0.0","0","0","99925","","null","","","null","67","","","","","","","","","","","","","","","",""
"","time_out","","html-keyboard-response","431","408686","0.0-1.0-611.0-0.0","0","0","99925","","null","","","null","67","","","","","","","","","","","","","","","",""
"","ITI","","html-keyboard-response","432","409699","0.0-1.0-612.0","0","0","99925","","44","","","75","67","","","","","","","","","","","","","","","k",""
"","S1","","html-keyboard-response","433","409960","0.0-1.0-614.0","0","0","99925","","null","","","null","68","","","","","","","","","","","","","","","",""
"","ISI","","html-keyboard-response","434","410970","0.0-1.0-615.0","0","0","99925","","169","","","75","68","k","","","","","","","","","","","","","","",""
"","S2","","html-keyboard-response","435","411025","0.0-1.0-616.0","0","0","99925","","42","","","75","68","","k","2","68","training","adjacent","CD","3","4","Q.jpg","O.jpg","1","1","1","",""
"","feedback","","html-keyboard-response","436","412039","0.0-1.0-618.0-0.0","0","0","99925","","null","","","null","68","","","","","","","","","","","","","","","",""
"","ITI","","html-keyboard-response","437","413049","0.0-1.0-621.0","0","0","99925","","518","","","75","68","","","","","","","","","","","","","","","k",""
"","S1","","html-keyboard-response","438","413310","0.0-1.0-623.0","0","0","99925","","null","","","null","69","","","","","","","","","","","","","","","",""
"","ISI","","html-keyboard-response","439","414321","0.0-1.0-624.0","0","0","99925","","271","","","75","69","k","","","","","","","","","","","","","","",""
"","S2","","html-keyboard-response","440","414586","0.0-1.0-625.0","0","0","99925","","null","","","null","69","","NaN","","","","","","","","","","","","","",""
"","response","","html-keyboard-response","441","414724","0.0-1.0-626.0-0.0","0","0","99925","","127","","","75","69","","","2","69","training","adjacent","EF","5","6","N.jpg","R.jpg","1","1","1","",""
"","feedback","","html-keyboard-response","442","415737","0.0-1.0-627.0-0.0","0","0","99925","","null","","","null","69","","","","","","","","","","","","","","","",""
"","ITI","","html-keyboard-response","443","416749","0.0-1.0-630.0","0","0","99925","","null","","","null","69","","","","","","","","","","","","","","","NaN",""
"","S1","","html-keyboard-response","444","417013","0.0-1.0-632.0","0","0","99925","","null","","","null","70","","","","","","","","","","","","","","","",""
"","ISI","","html-keyboard-response","445","418020","0.0-1.0-633.0","0","0","99925","","null","","","null","70","NaN","","","","","","","","","","","","","","",""
"","S2","","html-keyboard-response","446","418282","0.0-1.0-634.0","0","0","99925","","null","","","null","70","","NaN","","","","","","","","","","","","","",""
"","response","","html-keyboard-response","447","418335","0.0-1.0-635.0-0.0","0","0","99925","","41","","","75","70","","","2","70","training","adjacent","EF","5","6","N.jpg","R.jpg","1","1","1","",""
"","feedback","","html-keyboard-response","448","419348","0.0-1.0-636.0-0.0","0","0","99925","","null","","","null","70","","","","","","","","","","","","","","","",""
"","ITI","","html-keyboard-response","449","420356","0.0-1.0-639.0","0","0","99925","","null","","","null","70","","","","","","","","","","","","","","","NaN",""
"","S1","","html-keyboard-response","450","420618","0.0-1.0-641.0","0","0","99925","","null","","","null","71","","","","","","","","","","","","","","","",""
"","ISI","","html-keyboard-response","451","421626","0.0-1.0-642.0","0","0","99925","","33","","","75","71","k","","","","","","","","","","","","","","",""
"","S2","","html-keyboard-response","452","421885","0.0-1.0-643.0","0","0","99925","","null","","","null","71","","NaN","","","","","","","","","","","","","",""
"","response","","html-keyboard-response","453","422894","0.0-1.0-644.0-0.0","0","0","99925","","1000","","","75","71","","","2","71","training","adjacent","CD","3","4","Q.jpg","O.jpg","1","1","1","",""
"","feedback","","html-keyboard-response","454","423910","0.0-1.0-645.0-0.0","0","0","99925","","null","","","null","71","","","","","","","","","","","","","","","",""
"","ITI","","html-keyboard-response","455","424924","0.0-1.0-648.0","0","0","99925","","424","","","75","71","","","","","","","","","","","","","","","k",""
"","S1","","html-keyboard-response","456","425185","0.0-1.0-650.0","0","0","99925","","null","","","null","72","","","","","","","","","","","","","","","",""
"","ISI","","html-keyboard-response","457","426198","0.0-1.0-651.0","0","0","99925","","205","","","75","72","k","","","","","","","","","","","","","","",""
"","S2","","html-keyboard-response","458","426460","0.0-1.0-652.0","0","0","99925","","null","","","null","72","","NaN","","","","","","","","","","","","","",""
"","response","","html-keyboard-response","459","426735","0.0-1.0-653.0-0.0","0","0","99925","","267","","","75","72","","","2","72","training","adjacent","FE","6","5","R.jpg","N.jpg","1","0","0","",""
"","feedback","","html-keyboard-response","460","427748","0.0-1.0-654.0-0.0","0","0","99925","","null","","","null","72","","","","","","","","","","","","","","","",""
"","time_out","","html-keyboard-response","461","429757","0.0-1.0-656.0-0.0","0","0","99925","","null","","","null","72","","","","","","","","","","","","","","","",""
"","ITI","","html-keyboard-response","462","430767","0.0-1.0-657.0","0","0","99925","","705","","","68","72","","","","","","","","","","","","","","","d",""
"","S1","","html-keyboard-response","463","431030","0.0-1.0-659.0","0","0","99925","","null","","","null","73","","","","","","","","","","","","","","","",""
"","ISI","","html-keyboard-response","464","432039","0.0-1.0-660.0","0","0","99925","","null","","","null","73","NaN","","","","","","","","","","","","","","",""
"","S2","","html-keyboard-response","465","432077","0.0-1.0-661.0","0","0","99925","","28","","","68","73","","d","2","73","training","adjacent","CD","3","4","Q.jpg","O.jpg","0","1","0","",""
"","feedback","","html-keyboard-response","466","433091","0.0-1.0-663.0-0.0","0","0","99925","","null","","","null","73","","","","","","","","","","","","","","","",""
"","time_out","","html-keyboard-response","467","435102","0.0-1.0-665.0-0.0","0","0","99925","","null","","","null","73","","","","","","","","","","","","","","","",""
"","ITI","","html-keyboard-response","468","436111","0.0-1.0-666.0","0","0","99925","","970","","","68","73","","","","","","","","","","","","","","","d",""
"","S1","","html-keyboard-response","469","436373","0.0-1.0-668.0","0","0","99925","","null","","","null","74","","","","","","","","","","","","","","","",""
"","ISI","","html-keyboard-response","470","437386","0.0-1.0-669.0","0","0","99925","","712","","","68","74","d","","","","","","","","","","","","","","",""
"","S2","","html-keyboard-response","471","437648","0.0-1.0-670.0","0","0","99925","","null","","","null","74","","NaN","","","","","","","","","","","","","",""
"","response","","html-keyboard-response","472","438858","0.0-1.0-671.0-0.0","0","0","99925","","1201","","","68","74","","","2","74","training","adjacent","AB","1","2","M.jpg","P.jpg","0","1","0","",""
"","feedback","","html-keyboard-response","473","439868","0.0-1.0-672.0-0.0","0","0","99925","","null","","","null","74","","","","","","","","","","","","","","","",""
"","time_out","","html-keyboard-response","474","441877","0.0-1.0-674.0-0.0","0","0","99925","","null","","","null","74","","","","","","","","","","","","","","","",""
"","ITI","","html-keyboard-response","475","442886","0.0-1.0-675.0","0","0","99925","","346","","","75","74","","","","","","","","","","","","","","","k",""
"","S1","","html-keyboard-response","476","443149","0.0-1.0-677.0","0","0","99925","","null","","","null","75","","","","","","","","","","","","","","","",""
"","ISI","","html-keyboard-response","477","444157","0.0-1.0-678.0","0","0","99925","","150","","","75","75","k","","","","","","","","","","","","","","",""
"","S2","","html-keyboard-response","478","444417","0.0-1.0-679.0","0","0","99925","","null","","","null","75","","NaN","","","","","","","","","","","","","",""
"","response","","html-keyboard-response","479","444435","0.0-1.0-680.0-0.0","0","0","99925","","9","","","75","75","","","2","75","training","adjacent","CB","3","2","Q.jpg","P.jpg","1","0","0","",""
"","feedback","","html-keyboard-response","480","445446","0.0-1.0-681.0-0.0","0","0","99925","","null","","","null","75","","","","","","","","","","","","","","","",""
"","time_out","","html-keyboard-response","481","447456","0.0-1.0-683.0-0.0","0","0","99925","","null","","","null","75","","","","","","","","","","","","","","","",""
"","ITI","","html-keyboard-response","482","448468","0.0-1.0-684.0","0","0","99925","","565","","","75","75","","","","","","","","","","","","","","","k",""
"","S1","","html-keyboard-response","483","448734","0.0-1.0-686.0","0","0","99925","","null","","","null","76","","","","","","","","","","","","","","","",""
"","ISI","","html-keyboard-response","484","449744","0.0-1.0-687.0","0","0","99925","","null","","","null","76","NaN","","","","","","","","","","","","","","",""
"","S2","","html-keyboard-response","485","450005","0.0-1.0-688.0","0","0","99925","","null","","","null","76","","NaN","","","","","","","","","","","","","",""
"","response","","html-keyboard-response","486","451756","0.0-1.0-689.0-0.0","0","0","99925","","1741","","","75","76","","","2","76","training","adjacent","GF","7","6","L.jpg","R.jpg","1","0","0","",""
"","feedback","","html-keyboard-response","487","452766","0.0-1.0-690.0-0.0","0","0","99925","","null","","","null","76","","","","","","","","","","","","","","","",""
"","time_out","","html-keyboard-response","488","454776","0.0-1.0-692.0-0.0","0","0","99925","","null","","","null","76","","","","","","","","","","","","","","","",""
"","ITI","","html-keyboard-response","489","455784","0.0-1.0-693.0","0","0","99925","","937","","","75","76","","","","","","","","","","","","","","","k",""
"","S1","","html-keyboard-response","490","456045","0.0-1.0-695.0","0","0","99925","","null","","","null","77","","","","","","","","","","","","","","","",""
"","ISI","","html-keyboard-response","491","457056","0.0-1.0-696.0","0","0","99925","","null","","","null","77","NaN","","","","","","","","","","","","","","",""
"","S2","","html-keyboard-response","492","457317","0.0-1.0-697.0","0","0","99925","","null","","","null","77","","NaN","","","","","","","","","","","","","",""
"","response","","html-keyboard-response","493","459080","0.0-1.0-698.0-0.0","0","0","99925","","null","","","null","77","","","2","77","training","adjacent","DE","4","5","O.jpg","N.jpg","NaN","1","0","",""
"","too_slow_prompt","","html-keyboard-response","494","460094","0.0-1.0-700.0-0.0","1","0","99925","","null","","","null","","","","","","","","","","","","","","","","",""
"","time_out","","html-keyboard-response","495","462105","0.0-1.0-701.0-0.0","0","0","99925","","null","","","null","77","","","","","","","","","","","","","","","",""
"","ITI","","html-keyboard-response","496","463115","0.0-1.0-702.0","0","0","99925","","null","","","null","77","","","","","","","","","","","","","","","NaN",""
"","S1","","html-keyboard-response","497","463375","0.0-1.0-704.0","0","0","99925","","null","","","null","78","","","","","","","","","","","","","","","",""
"","ISI","","html-keyboard-response","498","464383","0.0-1.0-705.0","0","0","99925","","null","","","null","78","NaN","","","","","","","","","","","","","","",""
"","S2","","html-keyboard-response","499","464644","0.0-1.0-706.0","0","0","99925","","null","","","null","78","","NaN","","","","","","","","","","","","","",""
"","response","","html-keyboard-response","500","464807","0.0-1.0-707.0-0.0","0","0","99925","","148","","","75","78","","","2","78","training","adjacent","ED","5","4","N.jpg","O.jpg","1","0","0","",""
"","feedback","","html-keyboard-response","501","465820","0.0-1.0-708.0-0.0","0","0","99925","","null","","","null","78","","","","","","","","","","","","","","","",""
"","time_out","","html-keyboard-response","502","467830","0.0-1.0-710.0-0.0","0","0","99925","","null","","","null","78","","","","","","","","","","","","","","","",""
"","ITI","","html-keyboard-response","503","468842","0.0-1.0-711.0","0","0","99925","","859","","","75","78","","","","","","","","","","","","","","","k",""
"","S1","","html-keyboard-response","504","469109","0.0-1.0-713.0","0","0","99925","","null","","","null","79","","","","","","","","","","","","","","","",""
"","ISI","","html-keyboard-response","505","470120","0.0-1.0-714.0","0","0","99925","","291","","","75","79","k","","","","","","","","","","","","","","",""
"","S2","","html-keyboard-response","506","470150","0.0-1.0-715.0","0","0","99925","","19","","","75","79","","k","2","79","training","adjacent","FG","6","7","R.jpg","L.jpg","1","1","1","",""
"","feedback","","html-keyboard-response","507","471160","0.0-1.0-717.0-0.0","0","0","99925","","null","","","null","79","","","","","","","","","","","","","","","",""
"","ITI","","html-keyboard-response","508","472171","0.0-1.0-720.0","0","0","99925","","null","","","null","79","","","","","","","","","","","","","","","NaN",""
"","S1","","html-keyboard-response","509","472436","0.0-1.0-722.0","0","0","99925","","null","","","null","80","","","","","","","","","","","","","","","",""
"","ISI","","html-keyboard-response","510","473448","0.0-1.0-723.0","0","0","99925","","null","","","null","80","NaN","","","","","","","","","","","","","","",""
"","S2","","html-keyboard-response","511","473502","0.0-1.0-724.0","0","0","99925","","42","","","75","80","","k","2","80","training","adjacent","DE","4","5","O.jpg","N.jpg","1","1","1","",""
"","feedback","","html-keyboard-response","512","474515","0.0-1.0-726.0-0.0","0","0","99925","","null","","","null","80","","","","","","","","","","","","","","","",""
"","ITI","","html-keyboard-response","513","475526","0.0-1.0-729.0","0","0","99925","","null","","","null","80","","","","","","","","","","","","","","","NaN",""
"","S1","","html-keyboard-response","514","475786","0.0-1.0-731.0","0","0","99925","","null","","","null","81","","","","","","","","","","","","","","","",""
"","ISI","","html-keyboard-response","515","476795","0.0-1.0-732.0","0","0","99925","","123","","","75","81","k","","","","","","","","","","","","","","",""
"","S2","","html-keyboard-response","516","477054","0.0-1.0-733.0","0","0","99925","","null","","","null","81","","NaN","","","","","","","","","","","","","",""
"","response","","html-keyboard-response","517","477205","0.0-1.0-734.0-0.0","0","0","99925","","140","","","75","81","","","2","81","training","adjacent","DC","4","3","O.jpg","Q.jpg","1","0","0","",""
"","feedback","","html-keyboard-response","518","478217","0.0-1.0-735.0-0.0","0","0","99925","","null","","","null","81","","","","","","","","","","","","","","","",""
"","time_out","","html-keyboard-response","519","480233","0.0-1.0-737.0-0.0","0","0","99925","","null","","","null","81","","","","","","","","","","","","","","","",""
"","ITI","","html-keyboard-response","520","481244","0.0-1.0-738.0","0","0","99925","","354","","","75","81","","","","","","","","","","","","","","","k",""
"","S1","","html-keyboard-response","521","481505","0.0-1.0-740.0","0","0","99925","","null","","","null","82","","","","","","","","","","","","","","","",""
"","ISI","","html-keyboard-response","522","482516","0.0-1.0-741.0","0","0","99925","","386","","","75","82","k","","","","","","","","","","","","","","",""
"","S2","","html-keyboard-response","523","482779","0.0-1.0-742.0","0","0","99925","","null","","","null","82","","NaN","","","","","","","","","","","","","",""
"","response","","html-keyboard-response","524","483158","0.0-1.0-743.0-0.0","0","0","99925","","371","","","75","82","","","2","82","training","adjacent","BA","2","1","P.jpg","M.jpg","1","0","0","",""
"","feedback","","html-keyboard-response","525","484171","0.0-1.0-744.0-0.0","0","0","99925","","null","","","null","82","","","","","","","","","","","","","","","",""
"","time_out","","html-keyboard-response","526","486183","0.0-1.0-746.0-0.0","0","0","99925","","null","","","null","82","","","","","","","","","","","","","","","",""
"","ITI","","html-keyboard-response","527","487195","0.0-1.0-747.0","0","0","99925","","4","","","75","82","","","","","","","","","","","","","","","k",""
"","S1","","html-keyboard-response","528","487465","0.0-1.0-749.0","0","0","99925","","null","","","null","83","","","","","","","","","","","","","","","",""
"","ISI","","html-keyboard-response","529","488474","0.0-1.0-750.0","0","0","99925","","null","","","null","83","NaN","","","","","","","","","","","","","","",""
"","S2","","html-keyboard-response","530","488735","0.0-1.0-751.0","0","0","99925","","null","","","null","83","","NaN","","","","","","","","","","","","","",""
"","response","","html-keyboard-response","531","488916","0.0-1.0-752.0-0.0","0","0","99925","","170","","","75","83","","","2","83","training","adjacent","ED","5","4","N.jpg","O.jpg","1","0","0","",""
"","feedback","","html-keyboard-response","532","489926","0.0-1.0-753.0-0.0","0","0","99925","","null","","","null","83","","","","","","","","","","","","","","","",""
"","time_out","","html-keyboard-response","533","491941","0.0-1.0-755.0-0.0","0","0","99925","","null","","","null","83","","","","","","","","","","","","","","","",""
"","ITI","","html-keyboard-response","534","492954","0.0-1.0-756.0","0","0","99925","","44","","","68","83","","","","","","","","","","","","","","","d",""
"","S1","","html-keyboard-response","535","493218","0.0-1.0-758.0","0","0","99925","","null","","","null","84","","","","","","","","","","","","","","","",""
"","ISI","","html-keyboard-response","536","494228","0.0-1.0-759.0","0","0","99925","","308","","","68","84","d","","","","","","","","","","","","","","",""
"","S2","","html-keyboard-response","537","494487","0.0-1.0-760.0","0","0","99925","","null","","","null","84","","NaN","","","","","","","","","","","","","",""
"","response","","html-keyboard-response","538","496248","0.0-1.0-761.0-0.0","0","0","99925","","null","","","null","84","","","2","84","training","adjacent","BC","2","3","P.jpg","Q.jpg","NaN","1","0","",""
"","too_slow_prompt","","html-keyboard-response","539","497259","0.0-1.0-763.0-0.0","1","0","99925","","null","","","null","","","","","","","","","","","","","","","","",""
"","time_out","","html-keyboard-response","540","499270","0.0-1.0-764.0-0.0","0","0","99925","","null","","","null","84","","","","","","","","","","","","","","","",""
"","ITI","","html-keyboard-response","541","500280","0.0-1.0-765.0","0","0","99925","","null","","","null","84","","","","","","","","","","","","","","","NaN",""
"","S1","","html-keyboard-response","542","500547","0.0-1.0-767.0","0","0","99925","","null","","","null","85","","","","","","","","","","","","","","","",""
"","ISI","","html-keyboard-response","543","501557","0.0-1.0-768.0","0","0","99925","","217","","","75","85","k","","","","","","","","","","","","","","",""
"","S2","","html-keyboard-response","544","501821","0.0-1.0-769.0","0","0","99925","","null","","","null","85","","NaN","","","","","","","","","","","","","",""
"","response","","html-keyboard-response","545","502006","0.0-1.0-770.0-0.0","0","0","99925","","171","","","75","85","","","2","85","training","adjacent","BA","2","1","P.jpg","M.jpg","1","0","0","",""
"","feedback","","html-keyboard-response","546","503019","0.0-1.0-771.0-0.0","0","0","99925","","null","","","null","85","","","","","","","","","","","","","","","",""
"","time_out","","html-keyboard-response","547","505033","0.0-1.0-773.0-0.0","0","0","99925","","null","","","null","85","","","","","","","","","","","","","","","",""
"","ITI","","html-keyboard-response","548","506045","0.0-1.0-774.0","0","0","99925","","460","","","75","85","","","","","","","","","","","","","","","k",""
"","S1","","html-keyboard-response","549","506308","0.0-1.0-776.0","0","0","99925","","null","","","null","86","","","","","","","","","","","","","","","",""
"","ISI","","html-keyboard-response","550","507319","0.0-1.0-777.0","0","0","99925","","241","","","75","86","k","","","","","","","","","","","","","","",""
"","S2","","html-keyboard-response","551","507398","0.0-1.0-778.0","0","0","99925","","68","","","75","86","","k","2","86","training","adjacent","BC","2","3","P.jpg","Q.jpg","1","1","1","",""
"","feedback","","html-keyboard-response","552","508410","0.0-1.0-780.0-0.0","0","0","99925","","null","","","null","86","","","","","","","","","","","","","","","",""
"","ITI","","html-keyboard-response","553","509424","0.0-1.0-783.0","0","0","99925","","null","","","null","86","","","","","","","","","","","","","","","NaN",""
"","S1","","html-keyboard-response","554","509688","0.0-1.0-785.0","0","0","99925","","null","","","null","87","","","","","","","","","","","","","","","",""
"","ISI","","html-keyboard-response","555","510698","0.0-1.0-786.0","0","0","99925","","616","","","68","87","d","","","","","","","","","","","","","","",""
"","S2","","html-keyboard-response","556","510958","0.0-1.0-787.0","0","0","99925","","null","","","null","87","","NaN","","","","","","","","","","","","","",""
"","response","","html-keyboard-response","557","511021","0.0-1.0-788.0-0.0","0","0","99925","","51","","","68","87","","","2","87","training","adjacent","BA","2","1","P.jpg","M.jpg","0","0","1","",""
"","feedback","","html-keyboard-response","558","512039","0.0-1.0-789.0-0.0","0","0","99925","","null","","","null","87","","","","","","","","","","","","","","","",""
"","ITI","","html-keyboard-response","559","513052","0.0-1.0-792.0","0","0","99925","","270","","","68","87","","","","","","","","","","","","","","","d",""
"","S1","","html-keyboard-response","560","513313","0.0-1.0-794.0","0","0","99925","","null","","","null","88","","","","","","","","","","","","","","","",""
"","ISI","","html-keyboard-response","561","514325","0.0-1.0-795.0","0","0","99925","","126","","","68","88","d","","","","","","","","","","","","","","",""
"","S2","","html-keyboard-response","562","514586","0.0-1.0-796.0","0","0","99925","","null","","","null","88","","NaN","","","","","","","","","","","","","",""
"","response","","html-keyboard-response","563","514624","0.0-1.0-797.0-0.0","0","0","99925","","26","","","68","88","","","2","88","training","adjacent","EF","5","6","N.jpg","R.jpg","0","1","0","",""
"","feedback","","html-keyboard-response","564","515635","0.0-1.0-798.0-0.0","0","0","99925","","null","","","null","88","","","","","","","","","","","","","","","",""
"","time_out","","html-keyboard-response","565","517648","0.0-1.0-800.0-0.0","0","0","99925","","null","","","null","88","","","","","","","","","","","","","","","",""
"","ITI","","html-keyboard-response","566","518659","0.0-1.0-801.0","0","0","99925","","224","","","75","88","","","","","","","","","","","","","","","k",""
"","S1","","html-keyboard-response","567","518922","0.0-1.0-803.0","0","0","99925","","null","","","null","89","","","","","","","","","","","","","","","",""
"","ISI","","html-keyboard-response","568","519934","0.0-1.0-804.0","0","0","99925","","267","","","75","89","k","","","","","","","","","","","","","","",""
"","S2","","html-keyboard-response","569","520189","0.0-1.0-805.0","0","0","99925","","240","","","75","89","","k","2","89","training","adjacent","GF","7","6","L.jpg","R.jpg","1","0","0","",""
"","feedback","","html-keyboard-response","570","521201","0.0-1.0-807.0-0.0","0","0","99925","","null","","","null","89","","","","","","","","","","","","","","","",""
"","time_out","","html-keyboard-response","571","523215","0.0-1.0-809.0-0.0","0","0","99925","","null","","","null","89","","","","","","","","","","","","","","","",""
"","ITI","","html-keyboard-response","572","524227","0.0-1.0-810.0","0","0","99925","","93","","","68","89","","","","","","","","","","","","","","","d",""
"","S1","","html-keyboard-response","573","524489","0.0-1.0-812.0","0","0","99925","","null","","","null","90","","","","","","","","","","","","","","","",""
"","ISI","","html-keyboard-response","574","525499","0.0-1.0-813.0","0","0","99925","","163","","","68","90","d","","","","","","","","","","","","","","",""
"","S2","","html-keyboard-response","575","525762","0.0-1.0-814.0","0","0","99925","","null","","","null","90","","NaN","","","","","","","","","","","","","",""
"","response","","html-keyboard-response","576","525854","0.0-1.0-815.0-0.0","0","0","99925","","83","","","68","90","","","2","90","training","adjacent","CB","3","2","Q.jpg","P.jpg","0","0","1","",""
"","feedback","","html-keyboard-response","577","526870","0.0-1.0-816.0-0.0","0","0","99925","","null","","","null","90","","","","","","","","","","","","","","","",""
"","ITI","","html-keyboard-response","578","527879","0.0-1.0-819.0","0","0","99925","","292","","","68","90","","","","","","","","","","","","","","","d",""
"","S1","","html-keyboard-response","579","528138","0.0-1.0-821.0","0","0","99925","","null","","","null","91","","","","","","","","","","","","","","","",""
"","ISI","","html-keyboard-response","580","529149","0.0-1.0-822.0","0","0","99925","","107","","","68","91","d","","","","","","","","","","","","","","",""
"","S2","","html-keyboard-response","581","529299","0.0-1.0-823.0","0","0","99925","","134","","","68","91","","d","2","91","training","adjacent","GF","7","6","L.jpg","R.jpg","0","0","1","",""
"","feedback","","html-keyboard-response","582","530311","0.0-1.0-825.0-0.0","0","0","99925","","null","","","null","91","","","","","","","","","","","","","","","",""
"","ITI","","html-keyboard-response","583","531321","0.0-1.0-828.0","0","0","99925","","95","","","68","91","","","","","","","","","","","","","","","d",""
"","S1","","html-keyboard-response","584","531583","0.0-1.0-830.0","0","0","99925","","null","","","null","92","","","","","","","","","","","","","","","",""
"","ISI","","html-keyboard-response","585","532592","0.0-1.0-831.0","0","0","99925","","258","","","68","92","d","","","","","","","","","","","","","","",""
"","S2","","html-keyboard-response","586","532851","0.0-1.0-832.0","0","0","99925","","null","","","null","92","","NaN","","","","","","","","","","","","","",""
"","response","","html-keyboard-response","587","532862","0.0-1.0-833.0-0.0","0","0","99925","","2","","","68","92","","","2","92","training","adjacent","CD","3","4","Q.jpg","O.jpg","0","1","0","",""
