"success","ttype","start_time","trial_type","trial_index","time_elapsed","internal_node_id","warning","missed_checkup","PID","view_history","rt","responses","repeat_instructions","key_press","index","keypress_isi","keypress_S2","block","trial_num","phase","group_type","pair_type","S1_stim","S2_stim","S1_img","S2_img","S1_chosen","S1_higher","accuracy","keypress_iti","total_bonus_tally"
"true","full_screen","d04152023hr2353","fullscreen","0","63475","0.0-0.0","0","0","66995","","","","","","","","","","","","","","","","","","","","","",""
"","instructions","","instructions","1","85778","0.0-1.0-0.0-0.0","0","0","66995","[{""page_index"":0,""viewing_time"":2354},{""page_index"":1,""viewing_time"":10338},{""page_index"":2,""viewing_time"":8600},{""page_index"":3,""viewing_time"":1008}]","22301","","","","","","","","","","","","","","","","","","","",""
"","comprehension_check","","survey-multi-choice","2","107326","0.0-1.0-0.0-1.0","0","0","66995","","21545","{""Q0"":""True"",""Q1"":""D"",""Q2"":""Once the second image appears and while the screen 'MAKE A CHOICE' is shown"",""Q3"":""Green mark"",""Q4"":""either D or K""}","1","","","","","","","","","","","","","","","","","",""
"","missed_instruction_checkup","","html-keyboard-response","3","109305","0.0-1.0-0.0-2.0-0.0","0","1","66995","","1977","","","32","","","","","","","","","","","","","","","","",""
"","instructions","","instructions","4","120258","0.0-1.0-0.1-0.1","0","0","66995","[{""page_index"":0,""viewing_time"":1544},{""page_index"":1,""viewing_time"":8054},{""page_index"":2,""viewing_time"":828},{""page_index"":3,""viewing_time"":524}]","10950","","","","","","","","","","","","","","","","","","","",""
"","comprehension_check","","survey-multi-choice","5","126904","0.0-1.0-0.1-1.1","0","0","66995","","6642","{""Q0"":""True"",""Q1"":""K"",""Q2"":""Once the second image appears and while the screen 'MAKE A CHOICE' is shown"",""Q3"":""Green mark"",""Q4"":""either D or K""}","0","","","","","","","","","","","","","","","","","",""
"","start_exp","","html-keyboard-response","6","128203","0.0-1.0-1.0","0","0","66995","","1298","","","32","","","","","","","","","","","","","","","","",""
"","S1","","html-keyboard-response","7","128465","0.0-1.0-2.0","0","0","66995","","null","","","null","0","","","","","","","","","","","","","","","",""
"","ISI","","html-keyboard-response","8","129467","0.0-1.0-3.0","0","0","66995","","null","","","null","0","NaN","","","","","","","","","","","","","","",""
"","S2","","html-keyboard-response","9","129720","0.0-1.0-4.0","0","0","66995","","null","","","null","0","","NaN","","","","","","","","","","","","","",""
"","response","","html-keyboard-response","10","130370","0.0-1.0-5.0-0.0","0","0","66995","","649","","","75","0","","","1","0","training","adjacent","CD","3","4","P.jpg","L.jpg","1","1","1","",""
"","feedback","","html-keyboard-response","11","131382","0.0-1.0-6.0-0.0","0","0","66995","","null","","","null","0","","","","","","","","","","","","","","","",""
"","ITI","","html-keyboard-response","12","132385","0.0-1.0-9.0","0","0","66995","","null","","","null","0","","","","","","","","","","","","","","","NaN",""
"","S1","","html-keyboard-response","13","132638","0.0-1.0-11.0","0","0","66995","","null","","","null","1","","","","","","","","","","","","","","","",""
"","ISI","","html-keyboard-response","14","133640","0.0-1.0-12.0","0","0","66995","","null","","","null","1","NaN","","","","","","","","","","","","","","",""
"","S2","","html-keyboard-response","15","133893","0.0-1.0-13.0","0","0","66995","","null","","","null","1","","NaN","","","","","","","","","","","","","",""
"","response","","html-keyboard-response","16","134027","0.0-1.0-14.0-0.0","0","0","66995","","133","","","75","1","","","1","1","training","adjacent","BC","2","3","N.jpg","P.jpg","1","1","1","",""
"","feedback","","html-keyboard-response","17","135030","0.0-1.0-15.0-0.0","0","0","66995","","null","","","null","1","","","","","","","","","","","","","","","",""
"","ITI","","html-keyboard-response","18","136032","0.0-1.0-18.0","0","0","66995","","null","","","null","1","","","","","","","","","","","","","","","NaN",""
"","S1","","html-keyboard-response","19","136284","0.0-1.0-20.0","0","0","66995","","null","","","null","2","","","","","","","","","","","","","","","",""
"","ISI","","html-keyboard-response","20","137287","0.0-1.0-21.0","0","0","66995","","null","","","null","2","NaN","","","","","","","","","","","","","","",""
"","S2","","html-keyboard-response","21","137540","0.0-1.0-22.0","0","0","66995","","null","","","null","2","","NaN","","","","","","","","","","","","","",""
"","response","","html-keyboard-response","22","137653","0.0-1.0-23.0-0.0","0","0","66995","","112","","","68","2","","","1","2","training","adjacent","CD","3","4","P.jpg","L.jpg","0","1","0","",""
"","feedback","","html-keyboard-response","23","138657","0.0-1.0-24.0-0.0","0","0","66995","","null","","","null","2","","","","","","","","","","","","","","","",""
"","time_out","","html-keyboard-response","24","140659","0.0-1.0-26.0-0.0","0","0","66995","","null","","","null","2","","","","","","","","","","","","","","","",""
"","ITI","","html-keyboard-response","25","141662","0.0-1.0-27.0","0","0","66995","","null","","","null","2","","","","","","","","","","","","","","","NaN",""
"","S1","","html-keyboard-response","26","141914","0.0-1.0-29.0","0","0","66995","","null","","","null","3","","","","","","","","","","","","","","","",""
"","ISI","","html-keyboard-response","27","142931","0.0-1.0-30.0","0","0","66995","","null","","","null","3","NaN","","","","","","","","","","","","","","",""
"","S2","","html-keyboard-response","28","143196","0.0-1.0-31.0","0","0","66995","","null","","","null","3","","NaN","","","","","","","","","","","","","",""
"","response","","html-keyboard-response","29","143438","0.0-1.0-32.0-0.0","0","0","66995","","240","","","75","3","","","1","3","training","adjacent","DE","4","5","L.jpg","O.jpg","1","1","1","",""
"","feedback","","html-keyboard-response","30","144440","0.0-1.0-33.0-0.0","0","0","66995","","null","","","null","3","","","","","","","","","","","","","","","",""
"","ITI","","html-keyboard-response","31","145443","0.0-1.0-36.0","0","0","66995","","null","","","null","3","","","","","","","","","","","","","","","NaN",""
"","S1","","html-keyboard-response","32","145696","0.0-1.0-38.0","0","0","66995","","null","","","null","4","","","","","","","","","","","","","","","",""
"","ISI","","html-keyboard-response","33","146698","0.0-1.0-39.0","0","0","66995","","null","","","null","4","NaN","","","","","","","","","","","","","","",""
"","S2","","html-keyboard-response","34","146951","0.0-1.0-40.0","0","0","66995","","null","","","null","4","","NaN","","","","","","","","","","","","","",""
"","response","","html-keyboard-response","35","147171","0.0-1.0-41.0-0.0","0","0","66995","","218","","","75","4","","","1","4","training","adjacent","CB","3","2","P.jpg","N.jpg","1","0","0","",""
"","feedback","","html-keyboard-response","36","148174","0.0-1.0-42.0-0.0","0","0","66995","","null","","","null","4","","","","","","","","","","","","","","","",""
"","time_out","","html-keyboard-response","37","150177","0.0-1.0-44.0-0.0","0","0","66995","","null","","","null","4","","","","","","","","","","","","","","","",""
"","ITI","","html-keyboard-response","38","151180","0.0-1.0-45.0","0","0","66995","","null","","","null","4","","","","","","","","","","","","","","","NaN",""
"","S1","","html-keyboard-response","39","151431","0.0-1.0-47.0","0","0","66995","","null","","","null","5","","","","","","","","","","","","","","","",""
"","ISI","","html-keyboard-response","40","152433","0.0-1.0-48.0","0","0","66995","","null","","","null","5","NaN","","","","","","","","","","","","","","",""
"","S2","","html-keyboard-response","41","152686","0.0-1.0-49.0","0","0","66995","","null","","","null","5","","NaN","","","","","","","","","","","","","",""
"","response","","html-keyboard-response","42","153311","0.0-1.0-50.0-0.0","0","0","66995","","624","","","68","5","","","1","5","training","adjacent","GF","7","6","R.jpg","Q.jpg","0","0","1","",""
"","feedback","","html-keyboard-response","43","154314","0.0-1.0-51.0-0.0","0","0","66995","","null","","","null","5","","","","","","","","","","","","","","","",""
"","ITI","","html-keyboard-response","44","155317","0.0-1.0-54.0","0","0","66995","","402","","","68","5","","","","","","","","","","","","","","","d",""
"","S1","","html-keyboard-response","45","155569","0.0-1.0-56.0","0","0","66995","","null","","","null","6","","","","","","","","","","","","","","","",""
"","ISI","","html-keyboard-response","46","156571","0.0-1.0-57.0","0","0","66995","","null","","","null","6","NaN","","","","","","","","","","","","","","",""
"","S2","","html-keyboard-response","47","156824","0.0-1.0-58.0","0","0","66995","","null","","","null","6","","NaN","","","","","","","","","","","","","",""
"","response","","html-keyboard-response","48","157468","0.0-1.0-59.0-0.0","0","0","66995","","643","","","68","6","","","1","6","training","adjacent","ED","5","4","O.jpg","L.jpg","0","0","1","",""
"","feedback","","html-keyboard-response","49","158471","0.0-1.0-60.0-0.0","0","0","66995","","null","","","null","6","","","","","","","","","","","","","","","",""
"","ITI","","html-keyboard-response","50","159473","0.0-1.0-63.0","0","0","66995","","null","","","null","6","","","","","","","","","","","","","","","NaN",""
"","S1","","html-keyboard-response","51","159725","0.0-1.0-65.0","0","0","66995","","null","","","null","7","","","","","","","","","","","","","","","",""
"","ISI","","html-keyboard-response","52","160727","0.0-1.0-66.0","0","0","66995","","null","","","null","7","NaN","","","","","","","","","","","","","","",""
"","S2","","html-keyboard-response","53","160981","0.0-1.0-67.0","0","0","66995","","null","","","null","7","","NaN","","","","","","","","","","","","","",""
"","response","","html-keyboard-response","54","161364","0.0-1.0-68.0-0.0","0","0","66995","","382","","","68","7","","","1","7","training","adjacent","CB","3","2","P.jpg","N.jpg","0","0","1","",""
"","feedback","","html-keyboard-response","55","162366","0.0-1.0-69.0-0.0","0","0","66995","","null","","","null","7","","","","","","","","","","","","","","","",""
"","ITI","","html-keyboard-response","56","163369","0.0-1.0-72.0","0","0","66995","","null","","","null","7","","","","","","","","","","","","","","","NaN",""
"","S1","","html-keyboard-response","57","163621","0.0-1.0-74.0","0","0","66995","","null","","","null","8","","","","","","","","","","","","","","","",""
"","ISI","","html-keyboard-response","58","164624","0.0-1.0-75.0","0","0","66995","","null","","","null","8","NaN","","","","","","","","","","","","","","",""
"","S2","","html-keyboard-response","59","164877","0.0-1.0-76.0","0","0","66995","","null","","","null","8","","NaN","","","","","","","","","","","","","",""
"","response","","html-keyboard-response","60","165289","0.0-1.0-77.0-0.0","0","0","66995","","411","","","75","8","","","1","8","training","adjacent","EF","5","6","O.jpg","Q.jpg","1","1","1","",""
"","feedback","","html-keyboard-response","61","166292","0.0-1.0-78.0-0.0","0","0","66995","","null","","","null","8","","","","","","","","","","","","","","","",""
"","ITI","","html-keyboard-response","62","167293","0.0-1.0-81.0","0","0","66995","","null","","","null","8","","","","","","","","","","","","","","","NaN",""
"","S1","","html-keyboard-response","63","167546","0.0-1.0-83.0","0","0","66995","","null","","","null","9","","","","","","","","","","","","","","","",""
"","ISI","","html-keyboard-response","64","168549","0.0-1.0-84.0","0","0","66995","","null","","","null","9","NaN","","","","","","","","","","","","","","",""
"","S2","","html-keyboard-response","65","168801","0.0-1.0-85.0","0","0","66995","","null","","","null","9","","NaN","","","","","","","","","","","","","",""
"","response","","html-keyboard-response","66","168883","0.0-1.0-86.0-0.0","0","0","66995","","80","","","68","9","","","1","9","training","adjacent","FG","6","7","Q.jpg","R.jpg","0","1","0","",""
"","feedback","","html-keyboard-response","67","169886","0.0-1.0-87.0-0.0","0","0","66995","","null","","","null","9","","","","","","","","","","","","","","","",""
"","time_out","","html-keyboard-response","68","171888","0.0-1.0-89.0-0.0","0","0","66995","","null","","","null","9","","","","","","","","","","","","","","","",""
"","ITI","","html-keyboard-response","69","172891","0.0-1.0-90.0","0","0","66995","","null","","","null","9","","","","","","","","","","","","","","","NaN",""
"","S1","","html-keyboard-response","70","173155","0.0-1.0-92.0","0","0","66995","","null","","","null","10","","","","","","","","","","","","","","","",""
"","ISI","","html-keyboard-response","71","174158","0.0-1.0-93.0","0","0","66995","","null","","","null","10","NaN","","","","","","","","","","","","","","",""
"","S2","","html-keyboard-response","72","174411","0.0-1.0-94.0","0","0","66995","","null","","","null","10","","NaN","","","","","","","","","","","","","",""
"","response","","html-keyboard-response","73","175827","0.0-1.0-95.0-0.0","0","0","66995","","1415","","","68","10","","","1","10","training","adjacent","EF","5","6","O.jpg","Q.jpg","0","1","0","",""
"","feedback","","html-keyboard-response","74","176830","0.0-1.0-96.0-0.0","0","0","66995","","null","","","null","10","","","","","","","","","","","","","","","",""
"","time_out","","html-keyboard-response","75","178832","0.0-1.0-98.0-0.0","0","0","66995","","null","","","null","10","","","","","","","","","","","","","","","",""
"","ITI","","html-keyboard-response","76","179834","0.0-1.0-99.0","0","0","66995","","null","","","null","10","","","","","","","","","","","","","","","NaN",""
"","S1","","html-keyboard-response","77","180086","0.0-1.0-101.0","0","0","66995","","null","","","null","11","","","","","","","","","","","","","","","",""
"","ISI","","html-keyboard-response","78","181088","0.0-1.0-102.0","0","0","66995","","null","","","null","11","NaN","","","","","","","","","","","","","","",""
"","S2","","html-keyboard-response","79","181340","0.0-1.0-103.0","0","0","66995","","null","","","null","11","","NaN","","","","","","","","","","","","","",""
"","response","","html-keyboard-response","80","181989","0.0-1.0-104.0-0.0","0","0","66995","","648","","","68","11","","","1","11","training","adjacent","CB","3","2","P.jpg","N.jpg","0","0","1","",""
"","feedback","","html-keyboard-response","81","182992","0.0-1.0-105.0-0.0","0","0","66995","","null","","","null","11","","","","","","","","","","","","","","","",""
"","ITI","","html-keyboard-response","82","183995","0.0-1.0-108.0","0","0","66995","","null","","","null","11","","","","","","","","","","","","","","","NaN",""
"","S1","","html-keyboard-response","83","184247","0.0-1.0-110.0","0","0","66995","","null","","","null","12","","","","","","","","","","","","","","","",""
"","ISI","","html-keyboard-response","84","185250","0.0-1.0-111.0","0","0","66995","","null","","","null","12","NaN","","","","","","","","","","","","","","",""
"","S2","","html-keyboard-response","85","185502","0.0-1.0-112.0","0","0","66995","","null","","","null","12","","NaN","","","","","","","","","","","","","",""
"","response","","html-keyboard-response","86","185861","0.0-1.0-113.0-0.0","0","0","66995","","357","","","75","12","","","1","12","training","adjacent","GF","7","6","R.jpg","Q.jpg","1","0","0","",""
"","feedback","","html-keyboard-response","87","186864","0.0-1.0-114.0-0.0","0","0","66995","","null","","","null","12","","","","","","","","","","","","","","","",""
"","time_out","","html-keyboard-response","88","188867","0.0-1.0-116.0-0.0","0","0","66995","","null","","","null","12","","","","","","","","","","","","","","","",""
"","ITI","","html-keyboard-response","89","189869","0.0-1.0-117.0","0","0","66995","","null","","","null","12","","","","","","","","","","","","","","","NaN",""
"","S1","","html-keyboard-response","90","190122","0.0-1.0-119.0","0","0","66995","","null","","","null","13","","","","","","","","","","","","","","","",""
"","ISI","","html-keyboard-response","91","191124","0.0-1.0-120.0","0","0","66995","","null","","","null","13","NaN","","","","","","","","","","","","","","",""
"","S2","","html-keyboard-response","92","191377","0.0-1.0-121.0","0","0","66995","","null","","","null","13","","NaN","","","","","","","","","","","","","",""
"","response","","html-keyboard-response","93","191591","0.0-1.0-122.0-0.0","0","0","66995","","212","","","68","13","","","1","13","training","adjacent","ED","5","4","O.jpg","L.jpg","0","0","1","",""
"","feedback","","html-keyboard-response","94","192594","0.0-1.0-123.0-0.0","0","0","66995","","null","","","null","13","","","","","","","","","","","","","","","",""
"","ITI","","html-keyboard-response","95","193596","0.0-1.0-126.0","0","0","66995","","null","","","null","13","","","","","","","","","","","","","","","NaN",""
"","S1","","html-keyboard-response","96","193848","0.0-1.0-128.0","0","0","66995","","null","","","null","14","","","","","","","","","","","","","","","",""
"","ISI","","html-keyboard-response","97","194851","0.0-1.0-129.0","0","0","66995","","null","","","null","14","NaN","","","","","","","","","","","","","","",""
"","S2","","html-keyboard-response","98","195104","0.0-1.0-130.0","0","0","66995","","null","","","null","14","","NaN","","","","","","","","","","","","","",""
"","response","","html-keyboard-response","99","195341","0.0-1.0-131.0-0.0","0","0","66995","","235","","","75","14","","","1","14","training","adjacent","BC","2","3","N.jpg","P.jpg","1","1","1","",""
"","feedback","","html-keyboard-response","100","196343","0.0-1.0-132.0-0.0","0","0","66995","","null","","","null","14","","","","","","","","","","","","","","","",""
"","ITI","","html-keyboard-response","101","197345","0.0-1.0-135.0","0","0","66995","","null","","","null","14","","","","","","","","","","","","","","","NaN",""
"","S1","","html-keyboard-response","102","197598","0.0-1.0-137.0","0","0","66995","","null","","","null","15","","","","","","","","","","","","","","","",""
"","ISI","","html-keyboard-response","103","198607","0.0-1.0-138.0","0","0","66995","","null","","","null","15","NaN","","","","","","","","","","","","","","",""
"","S2","","html-keyboard-response","104","198860","0.0-1.0-139.0","0","0","66995","","null","","","null","15","","NaN","","","","","","","","","","","","","",""
"","response","","html-keyboard-response","105","199050","0.0-1.0-140.0-0.0","0","0","66995","","189","","","68","15","","","1","15","training","adjacent","FG","6","7","Q.jpg","R.jpg","0","1","0","",""
"","feedback","","html-keyboard-response","106","200053","0.0-1.0-141.0-0.0","0","0","66995","","null","","","null","15","","","","","","","","","","","","","","","",""
"","time_out","","html-keyboard-response","107","202055","0.0-1.0-143.0-0.0","0","0","66995","","null","","","null","15","","","","","","","","","","","","","","","",""
"","ITI","","html-keyboard-response","108","203057","0.0-1.0-144.0","0","0","66995","","null","","","null","15","","","","","","","","","","","","","","","NaN",""
"","S1","","html-keyboard-response","109","203310","0.0-1.0-146.0","0","0","66995","","null","","","null","16","","","","","","","","","","","","","","","",""
"","ISI","","html-keyboard-response","110","204312","0.0-1.0-147.0","0","0","66995","","null","","","null","16","NaN","","","","","","","","","","","","","","",""
"","S2","","html-keyboard-response","111","204565","0.0-1.0-148.0","0","0","66995","","null","","","null","16","","NaN","","","","","","","","","","","","","",""
"","response","","html-keyboard-response","112","205143","0.0-1.0-149.0-0.0","0","0","66995","","577","","","75","16","","","1","16","training","adjacent","FE","6","5","Q.jpg","O.jpg","1","0","0","",""
"","feedback","","html-keyboard-response","113","206146","0.0-1.0-150.0-0.0","0","0","66995","","null","","","null","16","","","","","","","","","","","","","","","",""
"","time_out","","html-keyboard-response","114","208148","0.0-1.0-152.0-0.0","0","0","66995","","null","","","null","16","","","","","","","","","","","","","","","",""
"","ITI","","html-keyboard-response","115","209151","0.0-1.0-153.0","0","0","66995","","null","","","null","16","","","","","","","","","","","","","","","NaN",""
"","S1","","html-keyboard-response","116","209412","0.0-1.0-155.0","0","0","66995","","null","","","null","17","","","","","","","","","","","","","","","",""
"","ISI","","html-keyboard-response","117","210415","0.0-1.0-156.0","0","0","66995","","null","","","null","17","NaN","","","","","","","","","","","","","","",""
"","S2","","html-keyboard-response","118","210667","0.0-1.0-157.0","0","0","66995","","null","","","null","17","","NaN","","","","","","","","","","","","","",""
"","response","","html-keyboard-response","119","210978","0.0-1.0-158.0-0.0","0","0","66995","","308","","","75","17","","","1","17","training","adjacent","CB","3","2","P.jpg","N.jpg","1","0","0","",""
"","feedback","","html-keyboard-response","120","211980","0.0-1.0-159.0-0.0","0","0","66995","","null","","","null","17","","","","","","","","","","","","","","","",""
"","time_out","","html-keyboard-response","121","213982","0.0-1.0-161.0-0.0","0","0","66995","","null","","","null","17","","","","","","","","","","","","","","","",""
"","ITI","","html-keyboard-response","122","214984","0.0-1.0-162.0","0","0","66995","","null","","","null","17","","","","","","","","","","","","","","","NaN",""
"","S1","","html-keyboard-response","123","215236","0.0-1.0-164.0","0","0","66995","","null","","","null","18","","","","","","","","","","","","","","","",""
"","ISI","","html-keyboard-response","124","216239","0.0-1.0-165.0","0","0","66995","","null","","","null","18","NaN","","","","","","","","","","","","","","",""
"","S2","","html-keyboard-response","125","216491","0.0-1.0-166.0","0","0","66995","","null","","","null","18","","NaN","","","","","","","","","","","","","",""
"","response","","html-keyboard-response","126","217314","0.0-1.0-167.0-0.0","0","0","66995","","821","","","68","18","","","1","18","training","adjacent","FE","6","5","Q.jpg","O.jpg","0","0","1","",""
"","feedback","","html-keyboard-response","127","218322","0.0-1.0-168.0-0.0","0","0","66995","","null","","","null","18","","","","","","","","","","","","","","","",""
"","ITI","","html-keyboard-response","128","219324","0.0-1.0-171.0","0","0","66995","","null","","","null","18","","","","","","","","","","","","","","","NaN",""
"","S1","","html-keyboard-response","129","219577","0.0-1.0-173.0","0","0","66995","","null","","","null","19","","","","","","","","","","","","","","","",""
"","ISI","","html-keyboard-response","130","220579","0.0-1.0-174.0","0","0","66995","","null","","","null","19","NaN","","","","","","","","","","","","","","",""
"","S2","","html-keyboard-response","131","220832","0.0-1.0-175.0","0","0","66995","","null","","","null","19","","NaN","","","","","","","","","","","","","",""
"","response","","html-keyboard-response","132","221184","0.0-1.0-176.0-0.0","0","0","66995","","351","","","68","19","","","1","19","training","adjacent","FE","6","5","Q.jpg","O.jpg","0","0","1","",""
"","feedback","","html-keyboard-response","133","222186","0.0-1.0-177.0-0.0","0","0","66995","","null","","","null","19","","","","","","","","","","","","","","","",""
"","ITI","","html-keyboard-response","134","223189","0.0-1.0-180.0","0","0","66995","","null","","","null","19","","","","","","","","","","","","","","","NaN",""
"","S1","","html-keyboard-response","135","223441","0.0-1.0-182.0","0","0","66995","","null","","","null","20","","","","","","","","","","","","","","","",""
"","ISI","","html-keyboard-response","136","224443","0.0-1.0-183.0","0","0","66995","","null","","","null","20","NaN","","","","","","","","","","","","","","",""
"","S2","","html-keyboard-response","137","224697","0.0-1.0-184.0","0","0","66995","","null","","","null","20","","NaN","","","","","","","","","","","","","",""
"","response","","html-keyboard-response","138","224972","0.0-1.0-185.0-0.0","0","0","66995","","274","","","75","20","","","1","20","training","adjacent","EF","5","6","O.jpg","Q.jpg","1","1","1","",""
"","feedback","","html-keyboard-response","139","225975","0.0-1.0-186.0-0.0","0","0","66995","","null","","","null","20","","","","","","","","","","","","","","","",""
"","ITI","","html-keyboard-response","140","226977","0.0-1.0-189.0","0","0","66995","","null","","","null","20","","","","","","","","","","","","","","","NaN",""
"","S1","","html-keyboard-response","141","227231","0.0-1.0-191.0","0","0","66995","","null","","","null","21","","","","","","","","","","","","","","","",""
"","ISI","","html-keyboard-response","142","228233","0.0-1.0-192.0","0","0","66995","","null","","","null","21","NaN","","","","","","","","","","","","","","",""
"","S2","","html-keyboard-response","143","228491","0.0-1.0-193.0","0","0","66995","","null","","","null","21","","NaN","","","","","","","","","","","","","",""
"","response","","html-keyboard-response","144","228838","0.0-1.0-194.0-0.0","0","0","66995","","346","","","68","21","","","1","21","training","adjacent","BA","2","1","N.jpg","M.jpg","0","0","1","",""
"","feedback","","html-keyboard-response","145","229841","0.0-1.0-195.0-0.0","0","0","66995","","null","","","null","21","","","","","","","","","","","","","","","",""
"","ITI","","html-keyboard-response","146","230844","0.0-1.0-198.0","0","0","66995","","null","","","null","21","","","","","","","","","","","","","","","NaN",""
"","S1","","html-keyboard-response","147","231103","0.0-1.0-200.0","0","0","66995","","null","","","null","22","","","","","","","","","","","","","","","",""
"","ISI","","html-keyboard-response","148","232107","0.0-1.0-201.0","0","0","66995","","null","","","null","22","NaN","","","","","","","","","","","","","","",""
"","S2","","html-keyboard-response","149","232360","0.0-1.0-202.0","0","0","66995","","null","","","null","22","","NaN","","","","","","","","","","","","","",""
"","response","","html-keyboard-response","150","232468","0.0-1.0-203.0-0.0","0","0","66995","","107","","","68","22","","","1","22","training","adjacent","DE","4","5","L.jpg","O.jpg","0","1","0","",""
"","feedback","","html-keyboard-response","151","233471","0.0-1.0-204.0-0.0","0","0","66995","","null","","","null","22","","","","","","","","","","","","","","","",""
"","time_out","","html-keyboard-response","152","235474","0.0-1.0-206.0-0.0","0","0","66995","","null","","","null","22","","","","","","","","","","","","","","","",""
"","ITI","","html-keyboard-response","153","236487","0.0-1.0-207.0","0","0","66995","","null","","","null","22","","","","","","","","","","","","","","","NaN",""
"","S1","","html-keyboard-response","154","236740","0.0-1.0-209.0","0","0","66995","","null","","","null","23","","","","","","","","","","","","","","","",""
"","ISI","","html-keyboard-response","155","237743","0.0-1.0-210.0","0","0","66995","","null","","","null","23","NaN","","","","","","","","","","","","","","",""
"","S2","","html-keyboard-response","156","237995","0.0-1.0-211.0","0","0","66995","","null","","","null","23","","NaN","","","","","","","","","","","","","",""
"","response","","html-keyboard-response","157","238994","0.0-1.0-212.0-0.0","0","0","66995","","997","","","68","23","","","1","23","training","adjacent","DE","4","5","L.jpg","O.jpg","0","1","0","",""
"","feedback","","html-keyboard-response","158","240000","0.0-1.0-213.0-0.0","0","0","66995","","null","","","null","23","","","","","","","","","","","","","","","",""
"","time_out","","html-keyboard-response","159","242002","0.0-1.0-215.0-0.0","0","0","66995","","null","","","null","23","","","","","","","","","","","","","","","",""
"","ITI","","html-keyboard-response","160","243005","0.0-1.0-216.0","0","0","66995","","null","","","null","23","","","","","","","","","","","","","","","NaN",""
"","S1","","html-keyboard-response","161","243258","0.0-1.0-218.0","0","0","66995","","null","","","null","24","","","","","","","","","","","","","","","",""
"","ISI","","html-keyboard-response","162","244261","0.0-1.0-219.0","0","0","66995","","null","","","null","24","NaN","","","","","","","","","","","","","","",""
"","S2","","html-keyboard-response","163","244514","0.0-1.0-220.0","0","0","66995","","null","","","null","24","","NaN","","","","","","","","","","","","","",""
"","response","","html-keyboard-response","164","244785","0.0-1.0-221.0-0.0","0","0","66995","","270","","","75","24","","","1","24","training","adjacent","ED","5","4","O.jpg","L.jpg","1","0","0","",""
"","feedback","","html-keyboard-response","165","245789","0.0-1.0-222.0-0.0","0","0","66995","","null","","","null","24","","","","","","","","","","","","","","","",""
"","time_out","","html-keyboard-response","166","247791","0.0-1.0-224.0-0.0","0","0","66995","","null","","","null","24","","","","","","","","","","","","","","","",""
"","ITI","","html-keyboard-response","167","248794","0.0-1.0-225.0","0","0","66995","","null","","","null","24","","","","","","","","","","","","","","","NaN",""
"","S1","","html-keyboard-response","168","249046","0.0-1.0-227.0","0","0","66995","","null","","","null","25","","","","","","","","","","","","","","","",""
"","ISI","","html-keyboard-response","169","250049","0.0-1.0-228.0","0","0","66995","","null","","","null","25","NaN","","","","","","","","","","","","","","",""
"","S2","","html-keyboard-response","170","250302","0.0-1.0-229.0","0","0","66995","","null","","","null","25","","NaN","","","","","","","","","","","","","",""
"","response","","html-keyboard-response","171","250729","0.0-1.0-230.0-0.0","0","0","66995","","426","","","68","25","","","1","25","training","adjacent","GF","7","6","R.jpg","Q.jpg","0","0","1","",""
"","feedback","","html-keyboard-response","172","251732","0.0-1.0-231.0-0.0","0","0","66995","","null","","","null","25","","","","","","","","","","","","","","","",""
"","ITI","","html-keyboard-response","173","252735","0.0-1.0-234.0","0","0","66995","","null","","","null","25","","","","","","","","","","","","","","","NaN",""
"","S1","","html-keyboard-response","174","252987","0.0-1.0-236.0","0","0","66995","","null","","","null","26","","","","","","","","","","","","","","","",""
"","ISI","","html-keyboard-response","175","253990","0.0-1.0-237.0","0","0","66995","","null","","","null","26","NaN","","","","","","","","","","","","","","",""
"","S2","","html-keyboard-response","176","254242","0.0-1.0-238.0","0","0","66995","","null","","","null","26","","NaN","","","","","","","","","","","","","",""
"","response","","html-keyboard-response","177","254359","0.0-1.0-239.0-0.0","0","0","66995","","116","","","75","26","","","1","26","training","adjacent","ED","5","4","O.jpg","L.jpg","1","0","0","",""
"","feedback","","html-keyboard-response","178","255362","0.0-1.0-240.0-0.0","0","0","66995","","null","","","null","26","","","","","","","","","","","","","","","",""
"","time_out","","html-keyboard-response","179","257364","0.0-1.0-242.0-0.0","0","0","66995","","null","","","null","26","","","","","","","","","","","","","","","",""
"","ITI","","html-keyboard-response","180","258366","0.0-1.0-243.0","0","0","66995","","null","","","null","26","","","","","","","","","","","","","","","NaN",""
"","S1","","html-keyboard-response","181","258619","0.0-1.0-245.0","0","0","66995","","null","","","null","27","","","","","","","","","","","","","","","",""
"","ISI","","html-keyboard-response","182","259621","0.0-1.0-246.0","0","0","66995","","null","","","null","27","NaN","","","","","","","","","","","","","","",""
"","S2","","html-keyboard-response","183","259875","0.0-1.0-247.0","0","0","66995","","null","","","null","27","","NaN","","","","","","","","","","","","","",""
"","response","","html-keyboard-response","184","260214","0.0-1.0-248.0-0.0","0","0","66995","","337","","","68","27","","","1","27","training","adjacent","DC","4","3","L.jpg","P.jpg","0","0","1","",""
"","feedback","","html-keyboard-response","185","261217","0.0-1.0-249.0-0.0","0","0","66995","","null","","","null","27","","","","","","","","","","","","","","","",""
"","ITI","","html-keyboard-response","186","262219","0.0-1.0-252.0","0","0","66995","","null","","","null","27","","","","","","","","","","","","","","","NaN",""
"","S1","","html-keyboard-response","187","262471","0.0-1.0-254.0","0","0","66995","","null","","","null","28","","","","","","","","","","","","","","","",""
"","ISI","","html-keyboard-response","188","263474","0.0-1.0-255.0","0","0","66995","","null","","","null","28","NaN","","","","","","","","","","","","","","",""
"","S2","","html-keyboard-response","189","263727","0.0-1.0-256.0","0","0","66995","","null","","","null","28","","NaN","","","","","","","","","","","","","",""
"","response","","html-keyboard-response","190","264325","0.0-1.0-257.0-0.0","0","0","66995","","597","","","68","28","","","1","28","training","adjacent","GF","7","6","R.jpg","Q.jpg","0","0","1","",""
"","feedback","","html-keyboard-response","191","265328","0.0-1.0-258.0-0.0","0","0","66995","","null","","","null","28","","","","","","","","","","","","","","","",""
"","ITI","","html-keyboard-response","192","266330","0.0-1.0-261.0","0","0","66995","","null","","","null","28","","","","","","","","","","","","","","","NaN",""
"","S1","","html-keyboard-response","193","266582","0.0-1.0-263.0","0","0","66995","","null","","","null","29","","","","","","","","","","","","","","","",""
"","ISI","","html-keyboard-response","194","267589","0.0-1.0-264.0","0","0","66995","","null","","","null","29","NaN","","","","","","","","","","","","","","",""
"","S2","","html-keyboard-response","195","267842","0.0-1.0-265.0","0","0","66995","","null","","","null","29","","NaN","","","","","","","","","","","","","",""
"","response","","html-keyboard-response","196","268144","0.0-1.0-266.0-0.0","0","0","66995","","301","","","75","29","","","1","29","training","adjacent","DC","4","3","L.jpg","P.jpg","1","0","0","",""
"","feedback","","html-keyboard-response","197","269146","0.0-1.0-267.0-0.0","0","0","66995","","null","","","null","29","","","","","","","","","","","","","","","",""
"","time_out","","html-keyboard-response","198","271148","0.0-1.0-269.0-0.0","0","0","66995","","null","","","null","29","","","","","","","","","","","","","","","",""
"","ITI","","html-keyboard-response","199","272150","0.0-1.0-270.0","0","0","66995","","null","","","null","29","","","","","","","","","","","","","","","NaN",""
"","S1","","html-keyboard-response","200","272402","0.0-1.0-272.0","0","0","66995","","null","","","null","30","","","","","","","","","","","","","","","",""
"","ISI","","html-keyboard-response","201","273404","0.0-1.0-273.0","0","0","66995","","null","","","null","30","NaN","","","","","","","","","","","","","","",""
"","S2","","html-keyboard-response","202","273657","0.0-1.0-274.0","0","0","66995","","null","","","null","30","","NaN","","","","","","","","","","","","","",""
"","response","","html-keyboard-response","203","273744","0.0-1.0-275.0-0.0","0","0","66995","","85","","","68","30","","","1","30","training","adjacent","BC","2","3","N.jpg","P.jpg","0","1","0","",""
"","feedback","","html-keyboard-response","204","274747","0.0-1.0-276.0-0.0","0","0","66995","","null","","","null","30","","","","","","","","","","","","","","","",""
"","time_out","","html-keyboard-response","205","276749","0.0-1.0-278.0-0.0","0","0","66995","","null","","","null","30","","","","","","","","","","","","","","","",""
"","ITI","","html-keyboard-response","206","277752","0.0-1.0-279.0","0","0","66995","","null","","","null","30","","","","","","","","","","","","","","","NaN",""
"","S1","","html-keyboard-response","207","278004","0.0-1.0-281.0","0","0","66995","","null","","","null","31","","","","","","","","","","","","","","","",""
"","ISI","","html-keyboard-response","208","279007","0.0-1.0-282.0","0","0","66995","","null","","","null","31","NaN","","","","","","","","","","","","","","",""
"","S2","","html-keyboard-response","209","279259","0.0-1.0-283.0","0","0","66995","","null","","","null","31","","NaN","","","","","","","","","","","","","",""
"","response","","html-keyboard-response","210","279301","0.0-1.0-284.0-0.0","0","0","66995","","40","","","75","31","","","1","31","training","adjacent","DE","4","5","L.jpg","O.jpg","1","1","1","",""
"","feedback","","html-keyboard-response","211","280304","0.0-1.0-285.0-0.0","0","0","66995","","null","","","null","31","","","","","","","","","","","","","","","",""
"","ITI","","html-keyboard-response","212","281306","0.0-1.0-288.0","0","0","66995","","null","","","null","31","","","","","","","","","","","","","","","NaN",""
"","S1","","html-keyboard-response","213","281559","0.0-1.0-290.0","0","0","66995","","null","","","null","32","","","","","","","","","","","","","","","",""
"","ISI","","html-keyboard-response","214","282562","0.0-1.0-291.0","0","0","66995","","null","","","null","32","NaN","","","","","","","","","","","","","","",""
"","S2","","html-keyboard-response","215","282814","0.0-1.0-292.0","0","0","66995","","null","","","null","32","","NaN","","","","","","","","","","","","","",""
"","response","","html-keyboard-response","216","282953","0.0-1.0-293.0-0.0","0","0","66995","","137","","","75","32","","","1","32","training","adjacent","BC","2","3","N.jpg","P.jpg","1","1","1","",""
"","feedback","","html-keyboard-response","217","283955","0.0-1.0-294.0-0.0","0","0","66995","","null","","","null","32","","","","","","","","","","","","","","","",""
"","ITI","","html-keyboard-response","218","284958","0.0-1.0-297.0","0","0","66995","","null","","","null","32","","","","","","","","","","","","","","","NaN",""
"","S1","","html-keyboard-response","219","285211","0.0-1.0-299.0","0","0","66995","","null","","","null","33","","","","","","","","","","","","","","","",""
"","ISI","","html-keyboard-response","220","286214","0.0-1.0-300.0","0","0","66995","","null","","","null","33","NaN","","","","","","","","","","","","","","",""
"","S2","","html-keyboard-response","221","286466","0.0-1.0-301.0","0","0","66995","","null","","","null","33","","NaN","","","","","","","","","","","","","",""
"","response","","html-keyboard-response","222","287224","0.0-1.0-302.0-0.0","0","0","66995","","756","","","68","33","","","1","33","training","adjacent","AB","1","2","M.jpg","N.jpg","0","1","0","",""
"","feedback","","html-keyboard-response","223","288228","0.0-1.0-303.0-0.0","0","0","66995","","null","","","null","33","","","","","","","","","","","","","","","",""
"","time_out","","html-keyboard-response","224","290229","0.0-1.0-305.0-0.0","0","0","66995","","null","","","null","33","","","","","","","","","","","","","","","",""
"","ITI","","html-keyboard-response","225","291232","0.0-1.0-306.0","0","0","66995","","null","","","null","33","","","","","","","","","","","","","","","NaN",""
"","S1","","html-keyboard-response","226","291488","0.0-1.0-308.0","0","0","66995","","null","","","null","34","","","","","","","","","","","","","","","",""
"","ISI","","html-keyboard-response","227","292490","0.0-1.0-309.0","0","0","66995","","null","","","null","34","NaN","","","","","","","","","","","","","","",""
"","S2","","html-keyboard-response","228","292742","0.0-1.0-310.0","0","0","66995","","null","","","null","34","","NaN","","","","","","","","","","","","","",""
"","response","","html-keyboard-response","229","293341","0.0-1.0-311.0-0.0","0","0","66995","","597","","","68","34","","","1","34","training","adjacent","BA","2","1","N.jpg","M.jpg","0","0","1","",""
"","feedback","","html-keyboard-response","230","294345","0.0-1.0-312.0-0.0","0","0","66995","","null","","","null","34","","","","","","","","","","","","","","","",""
"","ITI","","html-keyboard-response","231","295347","0.0-1.0-315.0","0","0","66995","","null","","","null","34","","","","","","","","","","","","","","","NaN",""
"","S1","","html-keyboard-response","232","295600","0.0-1.0-317.0","0","0","66995","","null","","","null","35","","","","","","","","","","","","","","","",""
"","ISI","","html-keyboard-response","233","296603","0.0-1.0-318.0","0","0","66995","","null","","","null","35","NaN","","","","","","","","","","","","","","",""
"","S2","","html-keyboard-response","234","296856","0.0-1.0-319.0","0","0","66995","","null","","","null","35","","NaN","","","","","","","","","","","","","",""
"","response","","html-keyboard-response","235","297315","0.0-1.0-320.0-0.0","0","0","66995","","457","","","75","35","","","1","35","training","adjacent","FG","6","7","Q.jpg","R.jpg","1","1","1","",""
"","feedback","","html-keyboard-response","236","298317","0.0-1.0-321.0-0.0","0","0","66995","","null","","","null","35","","","","","","","","","","","","","","","",""
"","ITI","","html-keyboard-response","237","299320","0.0-1.0-324.0","0","0","66995","","null","","","null","35","","","","","","","","","","","","","","","NaN",""
"","S1","","html-keyboard-response","238","299581","0.0-1.0-326.0","0","0","66995","","null","","","null","36","","","","","","","","","","","","","","","",""
"","ISI","","html-keyboard-response","239","300583","0.0-1.0-327.0","0","0","66995","","null","","","null","36","NaN","","","","","","","","","","","","","","",""
"","S2","","html-keyboard-response","240","300837","0.0-1.0-328.0","0","0","66995","","null","","","null","36","","NaN","","","","","","","","","","","","","",""
"","response","","html-keyboard-response","241","301330","0.0-1.0-329.0-0.0","0","0","66995","","492","","","68","36","","","1","36","training","adjacent","AB","1","2","M.jpg","N.jpg","0","1","0","",""
"","feedback","","html-keyboard-response","242","302334","0.0-1.0-330.0-0.0","0","0","66995","","null","","","null","36","","","","","","","","","","","","","","","",""
"","time_out","","html-keyboard-response","243","304335","0.0-1.0-332.0-0.0","0","0","66995","","null","","","null","36","","","","","","","","","","","","","","","",""
"","ITI","","html-keyboard-response","244","305339","0.0-1.0-333.0","0","0","66995","","null","","","null","36","","","","","","","","","","","","","","","NaN",""
"","S1","","html-keyboard-response","245","305592","0.0-1.0-335.0","0","0","66995","","null","","","null","37","","","","","","","","","","","","","","","",""
"","ISI","","html-keyboard-response","246","306594","0.0-1.0-336.0","0","0","66995","","null","","","null","37","NaN","","","","","","","","","","","","","","",""
"","S2","","html-keyboard-response","247","306847","0.0-1.0-337.0","0","0","66995","","null","","","null","37","","NaN","","","","","","","","","","","","","",""
"","response","","html-keyboard-response","248","307456","0.0-1.0-338.0-0.0","0","0","66995","","608","","","68","37","","","1","37","training","adjacent","BA","2","1","N.jpg","M.jpg","0","0","1","",""
"","feedback","","html-keyboard-response","249","308458","0.0-1.0-339.0-0.0","0","0","66995","","null","","","null","37","","","","","","","","","","","","","","","",""
"","ITI","","html-keyboard-response","250","309461","0.0-1.0-342.0","0","0","66995","","null","","","null","37","","","","","","","","","","","","","","","NaN",""
"","S1","","html-keyboard-response","251","309714","0.0-1.0-344.0","0","0","66995","","null","","","null","38","","","","","","","","","","","","","","","",""
"","ISI","","html-keyboard-response","252","310718","0.0-1.0-345.0","0","0","66995","","null","","","null","38","NaN","","","","","","","","","","","","","","",""
"","S2","","html-keyboard-response","253","310971","0.0-1.0-346.0","0","0","66995","","null","","","null","38","","NaN","","","","","","","","","","","","","",""
"","response","","html-keyboard-response","254","311653","0.0-1.0-347.0-0.0","0","0","66995","","680","","","68","38","","","1","38","training","adjacent","DC","4","3","L.jpg","P.jpg","0","0","1","",""
"","feedback","","html-keyboard-response","255","312656","0.0-1.0-348.0-0.0","0","0","66995","","null","","","null","38","","","","","","","","","","","","","","","",""
"","ITI","","html-keyboard-response","256","313659","0.0-1.0-351.0","0","0","66995","","null","","","null","38","","","","","","","","","","","","","","","NaN",""
"","S1","","html-keyboard-response","257","313912","0.0-1.0-353.0","0","0","66995","","null","","","null","39","","","","","","","","","","","","","","","",""
"","ISI","","html-keyboard-response","258","314915","0.0-1.0-354.0","0","0","66995","","null","","","null","39","NaN","","","","","","","","","","","","","","",""
"","S2","","html-keyboard-response","259","315168","0.0-1.0-355.0","0","0","66995","","null","","","null","39","","NaN","","","","","","","","","","","","","",""
"","response","","html-keyboard-response","260","315412","0.0-1.0-356.0-0.0","0","0","66995","","241","","","75","39","","","1","39","training","adjacent","FG","6","7","Q.jpg","R.jpg","1","1","1","",""
"","feedback","","html-keyboard-response","261","316415","0.0-1.0-357.0-0.0","0","0","66995","","null","","","null","39","","","","","","","","","","","","","","","",""
"","ITI","","html-keyboard-response","262","317417","0.0-1.0-360.0","0","0","66995","","null","","","null","39","","","","","","","","","","","","","","","NaN",""
"","S1","","html-keyboard-response","263","317670","0.0-1.0-362.0","0","0","66995","","null","","","null","40","","","","","","","","","","","","","","","",""
"","ISI","","html-keyboard-response","264","318673","0.0-1.0-363.0","0","0","66995","","null","","","null","40","NaN","","","","","","","","","","","","","","",""
"","S2","","html-keyboard-response","265","318925","0.0-1.0-364.0","0","0","66995","","null","","","null","40","","NaN","","","","","","","","","","","","","",""
"","response","","html-keyboard-response","266","319726","0.0-1.0-365.0-0.0","0","0","66995","","799","","","75","40","","","1","40","training","adjacent","DC","4","3","L.jpg","P.jpg","1","0","0","",""
"","feedback","","html-keyboard-response","267","320728","0.0-1.0-366.0-0.0","0","0","66995","","null","","","null","40","","","","","","","","","","","","","","","",""
"","time_out","","html-keyboard-response","268","322731","0.0-1.0-368.0-0.0","0","0","66995","","null","","","null","40","","","","","","","","","","","","","","","",""
"","ITI","","html-keyboard-response","269","323733","0.0-1.0-369.0","0","0","66995","","null","","","null","40","","","","","","","","","","","","","","","NaN",""
"","S1","","html-keyboard-response","270","323989","0.0-1.0-371.0","0","0","66995","","null","","","null","41","","","","","","","","","","","","","","","",""
"","ISI","","html-keyboard-response","271","324990","0.0-1.0-372.0","0","0","66995","","null","","","null","41","NaN","","","","","","","","","","","","","","",""
"","S2","","html-keyboard-response","272","325243","0.0-1.0-373.0","0","0","66995","","null","","","null","41","","NaN","","","","","","","","","","","","","",""
"","response","","html-keyboard-response","273","325355","0.0-1.0-374.0-0.0","0","0","66995","","110","","","68","41","","","1","41","training","adjacent","CD","3","4","P.jpg","L.jpg","0","1","0","",""
"","feedback","","html-keyboard-response","274","326359","0.0-1.0-375.0-0.0","0","0","66995","","null","","","null","41","","","","","","","","","","","","","","","",""
"","time_out","","html-keyboard-response","275","328361","0.0-1.0-377.0-0.0","0","0","66995","","null","","","null","41","","","","","","","","","","","","","","","",""
"","ITI","","html-keyboard-response","276","329363","0.0-1.0-378.0","0","0","66995","","null","","","null","41","","","","","","","","","","","","","","","NaN",""
"","S1","","html-keyboard-response","277","329616","0.0-1.0-380.0","0","0","66995","","null","","","null","42","","","","","","","","","","","","","","","",""
"","ISI","","html-keyboard-response","278","330618","0.0-1.0-381.0","0","0","66995","","null","","","null","42","NaN","","","","","","","","","","","","","","",""
"","S2","","html-keyboard-response","279","330871","0.0-1.0-382.0","0","0","66995","","null","","","null","42","","NaN","","","","","","","","","","","","","",""
"","response","","html-keyboard-response","280","331054","0.0-1.0-383.0-0.0","0","0","66995","","181","","","75","42","","","1","42","training","adjacent","AB","1","2","M.jpg","N.jpg","1","1","1","",""
"","feedback","","html-keyboard-response","281","332056","0.0-1.0-384.0-0.0","0","0","66995","","null","","","null","42","","","","","","","","","","","","","","","",""
"","ITI","","html-keyboard-response","282","333059","0.0-1.0-387.0","0","0","66995","","null","","","null","42","","","","","","","","","","","","","","","NaN",""
"","S1","","html-keyboard-response","283","333312","0.0-1.0-389.0","0","0","66995","","null","","","null","43","","","","","","","","","","","","","","","",""
"","ISI","","html-keyboard-response","284","334314","0.0-1.0-390.0","0","0","66995","","null","","","null","43","NaN","","","","","","","","","","","","","","",""
"","S2","","html-keyboard-response","285","334566","0.0-1.0-391.0","0","0","66995","","null","","","null","43","","NaN","","","","","","","","","","","","","",""
"","response","","html-keyboard-response","286","335487","0.0-1.0-392.0-0.0","0","0","66995","","919","","","68","43","","","1","43","training","adjacent","BA","2","1","N.jpg","M.jpg","0","0","1","",""
"","feedback","","html-keyboard-response","287","336490","0.0-1.0-393.0-0.0","0","0","66995","","null","","","null","43","","","","","","","","","","","","","","","",""
"","ITI","","html-keyboard-response","288","337493","0.0-1.0-396.0","0","0","66995","","null","","","null","43","","","","","","","","","","","","","","","NaN",""
"","S1","","html-keyboard-response","289","337746","0.0-1.0-398.0","0","0","66995","","null","","","null","44","","","","","","","","","","","","","","","",""
"","ISI","","html-keyboard-response","290","338748","0.0-1.0-399.0","0","0","66995","","null","","","null","44","NaN","","","","","","","","","","","","","","",""
"","S2","","html-keyboard-response","291","339000","0.0-1.0-400.0","0","0","66995","","null","","","null","44","","NaN","","","","","","","","","","","","","",""
"","response","","html-keyboard-response","292","339729","0.0-1.0-401.0-0.0","0","0","66995","","728","","","75","44","","","1","44","training","adjacent","FE","6","5","Q.jpg","O.jpg","1","0","0","",""
"","feedback","","html-keyboard-response","293","340732","0.0-1.0-402.0-0.0","0","0","66995","","null","","","null","44","","","","","","","","","","","","","","","",""
"","time_out","","html-keyboard-response","294","342734","0.0-1.0-404.0-0.0","0","0","66995","","null","","","null","44","","","","","","","","","","","","","","","",""
"","ITI","","html-keyboard-response","295","343736","0.0-1.0-405.0","0","0","66995","","null","","","null","44","","","","","","","","","","","","","","","NaN",""
"","S1","","html-keyboard-response","296","344005","0.0-1.0-407.0","0","0","66995","","null","","","null","45","","","","","","","","","","","","","","","",""
"","ISI","","html-keyboard-response","297","345007","0.0-1.0-408.0","0","0","66995","","null","","","null","45","NaN","","","","","","","","","","","","","","",""
"","S2","","html-keyboard-response","298","345259","0.0-1.0-409.0","0","0","66995","","null","","","null","45","","NaN","","","","","","","","","","","","","",""
"","response","","html-keyboard-response","299","346435","0.0-1.0-410.0-0.0","0","0","66995","","1175","","","75","45","","","1","45","training","adjacent","EF","5","6","O.jpg","Q.jpg","1","1","1","",""
"","feedback","","html-keyboard-response","300","347438","0.0-1.0-411.0-0.0","0","0","66995","","null","","","null","45","","","","","","","","","","","","","","","",""
"","ITI","","html-keyboard-response","301","348441","0.0-1.0-414.0","0","0","66995","","null","","","null","45","","","","","","","","","","","","","","","NaN",""
"","S1","","html-keyboard-response","302","348695","0.0-1.0-416.0","0","0","66995","","null","","","null","46","","","","","","","","","","","","","","","",""
"","ISI","","html-keyboard-response","303","349697","0.0-1.0-417.0","0","0","66995","","null","","","null","46","NaN","","","","","","","","","","","","","","",""
"","S2","","html-keyboard-response","304","349950","0.0-1.0-418.0","0","0","66995","","null","","","null","46","","NaN","","","","","","","","","","","","","",""
"","response","","html-keyboard-response","305","350531","0.0-1.0-419.0-0.0","0","0","66995","","580","","","68","46","","","1","46","training","adjacent","CD","3","4","P.jpg","L.jpg","0","1","0","",""
"","feedback","","html-keyboard-response","306","351533","0.0-1.0-420.0-0.0","0","0","66995","","null","","","null","46","","","","","","","","","","","","","","","",""
"","time_out","","html-keyboard-response","307","353537","0.0-1.0-422.0-0.0","0","0","66995","","null","","","null","46","","","","","","","","","","","","","","","",""
"","ITI","","html-keyboard-response","308","354539","0.0-1.0-423.0","0","0","66995","","null","","","null","46","","","","","","","","","","","","","","","NaN",""
"","S1","","html-keyboard-response","309","354792","0.0-1.0-425.0","0","0","66995","","null","","","null","47","","","","","","","","","","","","","","","",""
"","ISI","","html-keyboard-response","310","355795","0.0-1.0-426.0","0","0","66995","","null","","","null","47","NaN","","","","","","","","","","","","","","",""
"","S2","","html-keyboard-response","311","356047","0.0-1.0-427.0","0","0","66995","","null","","","null","47","","NaN","","","","","","","","","","","","","",""
"","response","","html-keyboard-response","312","356849","0.0-1.0-428.0-0.0","0","0","66995","","801","","","75","47","","","1","47","training","adjacent","AB","1","2","M.jpg","N.jpg","1","1","1","",""
"","feedback","","html-keyboard-response","313","357852","0.0-1.0-429.0-0.0","0","0","66995","","null","","","null","47","","","","","","","","","","","","","","","",""
"","ITI","","html-keyboard-response","314","358854","0.0-1.0-432.0","0","0","66995","","null","","","null","47","","","","","","","","","","","","","","","NaN",""
"","block_over","","html-keyboard-response","315","364179","0.0-1.0-433.0-0.0","0","0","66995","","5322","","","32","47","","","","","","","","","","","","","","","",""
"","S1","","html-keyboard-response","316","364431","0.0-1.0-434.0","0","0","66995","","null","","","null","48","","","","","","","","","","","","","","","",""
"","ISI","","html-keyboard-response","317","365434","0.0-1.0-435.0","0","0","66995","","731","","","75","48","k","","","","","","","","","","","","","","",""
"","S2","","html-keyboard-response","318","365686","0.0-1.0-436.0","0","0","66995","","null","","","null","48","","NaN","","","","","","","","","","","","","",""
"","response","","html-keyboard-response","319","366283","0.0-1.0-437.0-0.0","0","0","66995","","595","","","68","48","","","2","48","training","adjacent","DE","4","5","L.jpg","O.jpg","0","1","0","",""
"","feedback","","html-keyboard-response","320","367287","0.0-1.0-438.0-0.0","0","0","66995","","null","","","null","48","","","","","","","","","","","","","","","",""
"","time_out","","html-keyboard-response","321","369289","0.0-1.0-440.0-0.0","0","0","66995","","null","","","null","48","","","","","","","","","","","","","","","",""
"","ITI","","html-keyboard-response","322","370292","0.0-1.0-441.0","0","0","66995","","null","","","null","48","","","","","","","","","","","","","","","NaN",""
"","S1","","html-keyboard-response","323","370545","0.0-1.0-443.0","0","0","66995","","null","","","null","49","","","","","","","","","","","","","","","",""
"","ISI","","html-keyboard-response","324","371548","0.0-1.0-444.0","0","0","66995","","null","","","null","49","NaN","","","","","","","","","","","","","","",""
"","S2","","html-keyboard-response","325","371801","0.0-1.0-445.0","0","0","66995","","null","","","null","49","","NaN","","","","","","","","","","","","","",""
"","response","","html-keyboard-response","326","372097","0.0-1.0-446.0-0.0","0","0","66995","","294","","","75","49","","","2","49","training","adjacent","EF","5","6","O.jpg","Q.jpg","1","1","1","",""
"","feedback","","html-keyboard-response","327","373100","0.0-1.0-447.0-0.0","0","0","66995","","null","","","null","49","","","","","","","","","","","","","","","",""
"","ITI","","html-keyboard-response","328","374102","0.0-1.0-450.0","0","0","66995","","null","","","null","49","","","","","","","","","","","","","","","NaN",""
"","S1","","html-keyboard-response","329","374355","0.0-1.0-452.0","0","0","66995","","null","","","null","50","","","","","","","","","","","","","","","",""
"","ISI","","html-keyboard-response","330","375357","0.0-1.0-453.0","0","0","66995","","null","","","null","50","NaN","","","","","","","","","","","","","","",""
"","S2","","html-keyboard-response","331","375609","0.0-1.0-454.0","0","0","66995","","null","","","null","50","","NaN","","","","","","","","","","","","","",""
"","response","","html-keyboard-response","332","376537","0.0-1.0-455.0-0.0","0","0","66995","","926","","","68","50","","","2","50","training","adjacent","CD","3","4","P.jpg","L.jpg","0","1","0","",""
"","feedback","","html-keyboard-response","333","377539","0.0-1.0-456.0-0.0","0","0","66995","","null","","","null","50","","","","","","","","","","","","","","","",""
"","time_out","","html-keyboard-response","334","379542","0.0-1.0-458.0-0.0","0","0","66995","","null","","","null","50","","","","","","","","","","","","","","","",""
"","ITI","","html-keyboard-response","335","380544","0.0-1.0-459.0","0","0","66995","","null","","","null","50","","","","","","","","","","","","","","","NaN",""
"","S1","","html-keyboard-response","336","380797","0.0-1.0-461.0","0","0","66995","","null","","","null","51","","","","","","","","","","","","","","","",""
"","ISI","","html-keyboard-response","337","381799","0.0-1.0-462.0","0","0","66995","","null","","","null","51","NaN","","","","","","","","","","","","","","",""
"","S2","","html-keyboard-response","338","382052","0.0-1.0-463.0","0","0","66995","","null","","","null","51","","NaN","","","","","","","","","","","","","",""
"","response","","html-keyboard-response","339","382480","0.0-1.0-464.0-0.0","0","0","66995","","427","","","75","51","","","2","51","training","adjacent","DC","4","3","L.jpg","P.jpg","1","0","0","",""
"","feedback","","html-keyboard-response","340","383483","0.0-1.0-465.0-0.0","0","0","66995","","null","","","null","51","","","","","","","","","","","","","","","",""
"","time_out","","html-keyboard-response","341","385485","0.0-1.0-467.0-0.0","0","0","66995","","null","","","null","51","","","","","","","","","","","","","","","",""
"","ITI","","html-keyboard-response","342","386488","0.0-1.0-468.0","0","0","66995","","null","","","null","51","","","","","","","","","","","","","","","NaN",""
"","S1","","html-keyboard-response","343","386740","0.0-1.0-470.0","0","0","66995","","null","","","null","52","","","","","","","","","","","","","","","",""
"","ISI","","html-keyboard-response","344","387743","0.0-1.0-471.0","0","0","66995","","null","","","null","52","NaN","","","","","","","","","","","","","","",""
"","S2","","html-keyboard-response","345","388008","0.0-1.0-472.0","0","0","66995","","null","","","null","52","","NaN","","","","","","","","","","","","","",""
"","response","","html-keyboard-response","346","388078","0.0-1.0-473.0-0.0","0","0","66995","","69","","","75","52","","","2","52","training","adjacent","AB","1","2","M.jpg","N.jpg","1","1","1","",""
"","feedback","","html-keyboard-response","347","389081","0.0-1.0-474.0-0.0","0","0","66995","","null","","","null","52","","","","","","","","","","","","","","","",""
"","ITI","","html-keyboard-response","348","390083","0.0-1.0-477.0","0","0","66995","","null","","","null","52","","","","","","","","","","","","","","","NaN",""
"","S1","","html-keyboard-response","349","390336","0.0-1.0-479.0","0","0","66995","","null","","","null","53","","","","","","","","","","","","","","","",""
"","ISI","","html-keyboard-response","350","391352","0.0-1.0-480.0","0","0","66995","","null","","","null","53","NaN","","","","","","","","","","","","","","",""
"","S2","","html-keyboard-response","351","391605","0.0-1.0-481.0","0","0","66995","","null","","","null","53","","NaN","","","","","","","","","","","","","",""
"","response","","html-keyboard-response","352","391797","0.0-1.0-482.0-0.0","0","0","66995","","190","","","75","53","","","2","53","training","adjacent","BC","2","3","N.jpg","P.jpg","1","1","1","",""
"","feedback","","html-keyboard-response","353","392800","0.0-1.0-483.0-0.0","0","0","66995","","null","","","null","53","","","","","","","","","","","","","","","",""
"","ITI","","html-keyboard-response","354","393803","0.0-1.0-486.0","0","0","66995","","null","","","null","53","","","","","","","","","","","","","","","NaN",""
"","S1","","html-keyboard-response","355","394058","0.0-1.0-488.0","0","0","66995","","null","","","null","54","","","","","","","","","","","","","","","",""
"","ISI","","html-keyboard-response","356","395061","0.0-1.0-489.0","0","0","66995","","null","","","null","54","NaN","","","","","","","","","","","","","","",""
"","S2","","html-keyboard-response","357","395314","0.0-1.0-490.0","0","0","66995","","null","","","null","54","","NaN","","","","","","","","","","","","","",""
"","response","","html-keyboard-response","358","396368","0.0-1.0-491.0-0.0","0","0","66995","","1052","","","68","54","","","2","54","training","adjacent","GF","7","6","R.jpg","Q.jpg","0","0","1","",""
"","feedback","","html-keyboard-response","359","397370","0.0-1.0-492.0-0.0","0","0","66995","","null","","","null","54","","","","","","","","","","","","","","","",""
"","ITI","","html-keyboard-response","360","398373","0.0-1.0-495.0","0","0","66995","","null","","","null","54","","","","","","","","","","","","","","","NaN",""
"","S1","","html-keyboard-response","361","398626","0.0-1.0-497.0","0","0","66995","","null","","","null","55","","","","","","","","","","","","","","","",""
"","ISI","","html-keyboard-response","362","399629","0.0-1.0-498.0","0","0","66995","","null","","","null","55","NaN","","","","","","","","","","","","","","",""
"","S2","","html-keyboard-response","363","399882","0.0-1.0-499.0","0","0","66995","","null","","","null","55","","NaN","","","","","","","","","","","","","",""
"","response","","html-keyboard-response","364","400155","0.0-1.0-500.0-0.0","0","0","66995","","271","","","75","55","","","2","55","training","adjacent","BC","2","3","N.jpg","P.jpg","1","1","1","",""
"","feedback","","html-keyboard-response","365","401157","0.0-1.0-501.0-0.0","0","0","66995","","null","","","null","55","","","","","","","","","","","","","","","",""
"","ITI","","html-keyboard-response","366","402164","0.0-1.0-504.0","0","0","66995","","null","","","null","55","","","","","","","","","","","","","","","NaN",""
"","S1","","html-keyboard-response","367","402417","0.0-1.0-506.0","0","0","66995","","null","","","null","56","","","","","","","","","","","","","","","",""
"","ISI","","html-keyboard-response","368","403419","0.0-1.0-507.0","0","0","66995","","null","","","null","56","NaN","","","","","","","","","","","","","","",""
"","S2","","html-keyboard-response","369","403672","0.0-1.0-508.0","0","0","66995","","null","","","null","56","","NaN","","","","","","","","","","","","","",""
"","response","","html-keyboard-response","370","404276","0.0-1.0-509.0-0.0","0","0","66995","","602","","","68","56","","","2","56","training","adjacent","FE","6","5","Q.jpg","O.jpg","0","0","1","",""
"","feedback","","html-keyboard-response","371","405278","0.0-1.0-510.0-0.0","0","0","66995","","null","","","null","56","","","","","","","","","","","","","","","",""
"","ITI","","html-keyboard-response","372","406280","0.0-1.0-513.0","0","0","66995","","null","","","null","56","","","","","","","","","","","","","","","NaN",""
"","S1","","html-keyboard-response","373","406533","0.0-1.0-515.0","0","0","66995","","null","","","null","57","","","","","","","","","","","","","","","",""
"","ISI","","html-keyboard-response","374","407535","0.0-1.0-516.0","0","0","66995","","null","","","null","57","NaN","","","","","","","","","","","","","","",""
"","S2","","html-keyboard-response","375","407788","0.0-1.0-517.0","0","0","66995","","null","","","null","57","","NaN","","","","","","","","","","","","","",""
"","response","","html-keyboard-response","376","408454","0.0-1.0-518.0-0.0","0","0","66995","","664","","","68","57","","","2","57","training","adjacent","BC","2","3","N.jpg","P.jpg","0","1","0","",""
"","feedback","","html-keyboard-response","377","409456","0.0-1.0-519.0-0.0","0","0","66995","","null","","","null","57","","","","","","","","","","","","","","","",""
"","time_out","","html-keyboard-response","378","411459","0.0-1.0-521.0-0.0","0","0","66995","","null","","","null","57","","","","","","","","","","","","","","","",""
"","ITI","","html-keyboard-response","379","412461","0.0-1.0-522.0","0","0","66995","","null","","","null","57","","","","","","","","","","","","","","","NaN",""
"","S1","","html-keyboard-response","380","412714","0.0-1.0-524.0","0","0","66995","","null","","","null","58","","","","","","","","","","","","","","","",""
"","ISI","","html-keyboard-response","381","413717","0.0-1.0-525.0","0","0","66995","","null","","","null","58","NaN","","","","","","","","","","","","","","",""
"","S2","","html-keyboard-response","382","413970","0.0-1.0-526.0","0","0","66995","","null","","","null","58","","NaN","","","","","","","","","","","","","",""
"","response","","html-keyboard-response","383","414687","0.0-1.0-527.0-0.0","0","0","66995","","716","","","75","58","","","2","58","training","adjacent","CB","3","2","P.jpg","N.jpg","1","0","0","",""
"","feedback","","html-keyboard-response","384","415690","0.0-1.0-528.0-0.0","0","0","66995","","null","","","null","58","","","","","","","","","","","","","","","",""
"","time_out","","html-keyboard-response","385","417692","0.0-1.0-530.0-0.0","0","0","66995","","null","","","null","58","","","","","","","","","","","","","","","",""
"","ITI","","html-keyboard-response","386","418695","0.0-1.0-531.0","0","0","66995","","null","","","null","58","","","","","","","","","","","","","","","NaN",""
"","S1","","html-keyboard-response","387","418948","0.0-1.0-533.0","0","0","66995","","null","","","null","59","","","","","","","","","","","","","","","",""
"","ISI","","html-keyboard-response","388","419951","0.0-1.0-534.0","0","0","66995","","null","","","null","59","NaN","","","","","","","","","","","","","","",""
"","S2","","html-keyboard-response","389","420204","0.0-1.0-535.0","0","0","66995","","null","","","null","59","","NaN","","","","","","","","","","","","","",""
"","response","","html-keyboard-response","390","421356","0.0-1.0-536.0-0.0","0","0","66995","","1151","","","75","59","","","2","59","training","adjacent","BA","2","1","N.jpg","M.jpg","1","0","0","",""
"","feedback","","html-keyboard-response","391","422359","0.0-1.0-537.0-0.0","0","0","66995","","null","","","null","59","","","","","","","","","","","","","","","",""
"","time_out","","html-keyboard-response","392","424362","0.0-1.0-539.0-0.0","0","0","66995","","null","","","null","59","","","","","","","","","","","","","","","",""
"","ITI","","html-keyboard-response","393","425364","0.0-1.0-540.0","0","0","66995","","null","","","null","59","","","","","","","","","","","","","","","NaN",""
"","S1","","html-keyboard-response","394","425616","0.0-1.0-542.0","0","0","66995","","null","","","null","60","","","","","","","","","","","","","","","",""
"","ISI","","html-keyboard-response","395","426619","0.0-1.0-543.0","0","0","66995","","null","","","null","60","NaN","","","","","","","","","","","","","","",""
"","S2","","html-keyboard-response","396","426871","0.0-1.0-544.0","0","0","66995","","null","","","null","60","","NaN","","","","","","","","","","","","","",""
"","response","","html-keyboard-response","397","427207","0.0-1.0-545.0-0.0","0","0","66995","","334","","","75","60","","","2","60","training","adjacent","AB","1","2","M.jpg","N.jpg","1","1","1","",""
"","feedback","","html-keyboard-response","398","428210","0.0-1.0-546.0-0.0","0","0","66995","","null","","","null","60","","","","","","","","","","","","","","","",""
"","ITI","","html-keyboard-response","399","429213","0.0-1.0-549.0","0","0","66995","","null","","","null","60","","","","","","","","","","","","","","","NaN",""
"","S1","","html-keyboard-response","400","429466","0.0-1.0-551.0","0","0","66995","","null","","","null","61","","","","","","","","","","","","","","","",""
"","ISI","","html-keyboard-response","401","430467","0.0-1.0-552.0","0","0","66995","","null","","","null","61","NaN","","","","","","","","","","","","","","",""
"","S2","","html-keyboard-response","402","430720","0.0-1.0-553.0","0","0","66995","","null","","","null","61","","NaN","","","","","","","","","","","","","",""
"","response","","html-keyboard-response","403","431216","0.0-1.0-554.0-0.0","0","0","66995","","494","","","68","61","","","2","61","training","adjacent","DC","4","3","L.jpg","P.jpg","0","0","1","",""
"","feedback","","html-keyboard-response","404","432220","0.0-1.0-555.0-0.0","0","0","66995","","null","","","null","61","","","","","","","","","","","","","","","",""
"","ITI","","html-keyboard-response","405","433222","0.0-1.0-558.0","0","0","66995","","null","","","null","61","","","","","","","","","","","","","","","NaN",""
"","S1","","html-keyboard-response","406","433475","0.0-1.0-560.0","0","0","66995","","null","","","null","62","","","","","","","","","","","","","","","",""
"","ISI","","html-keyboard-response","407","434477","0.0-1.0-561.0","0","0","66995","","null","","","null","62","NaN","","","","","","","","","","","","","","",""
"","S2","","html-keyboard-response","408","434730","0.0-1.0-562.0","0","0","66995","","null","","","null","62","","NaN","","","","","","","","","","","","","",""
"","response","","html-keyboard-response","409","435706","0.0-1.0-563.0-0.0","0","0","66995","","974","","","75","62","","","2","62","training","adjacent","DE","4","5","L.jpg","O.jpg","1","1","1","",""
"","feedback","","html-keyboard-response","410","436709","0.0-1.0-564.0-0.0","0","0","66995","","null","","","null","62","","","","","","","","","","","","","","","",""
"","ITI","","html-keyboard-response","411","437712","0.0-1.0-567.0","0","0","66995","","null","","","null","62","","","","","","","","","","","","","","","NaN",""
"","S1","","html-keyboard-response","412","437964","0.0-1.0-569.0","0","0","66995","","null","","","null","63","","","","","","","","","","","","","","","",""
"","ISI","","html-keyboard-response","413","438966","0.0-1.0-570.0","0","0","66995","","null","","","null","63","NaN","","","","","","","","","","","","","","",""
"","S2","","html-keyboard-response","414","439219","0.0-1.0-571.0","0","0","66995","","null","","","null","63","","NaN","","","","","","","","","","","","","",""
"","response","","html-keyboard-response","415","440079","0.0-1.0-572.0-0.0","0","0","66995","","859","","","68","63","","","2","63","training","adjacent","DC","4","3","L.jpg","P.jpg","0","0","1","",""
"","feedback","","html-keyboard-response","416","441082","0.0-1.0-573.0-0.0","0","0","66995","","null","","","null","63","","","","","","","","","","","","","","","",""
"","ITI","","html-keyboard-response","417","442085","0.0-1.0-576.0","0","0","66995","","null","","","null","63","","","","","","","","","","","","","","","NaN",""
"","S1","","html-keyboard-response","418","442338","0.0-1.0-578.0","0","0","66995","","null","","","null","64","","","","","","","","","","","","","","","",""
"","ISI","","html-keyboard-response","419","443340","0.0-1.0-579.0","0","0","66995","","null","","","null","64","NaN","","","","","","","","","","","","","","",""
"","S2","","html-keyboard-response","420","443593","0.0-1.0-580.0","0","0","66995","","null","","","null","64","","NaN","","","","","","","","","","","","","",""
"","response","","html-keyboard-response","421","444285","0.0-1.0-581.0-0.0","0","0","66995","","690","","","75","64","","","2","64","training","adjacent","CB","3","2","P.jpg","N.jpg","1","0","0","",""
"","feedback","","html-keyboard-response","422","445288","0.0-1.0-582.0-0.0","0","0","66995","","null","","","null","64","","","","","","","","","","","","","","","",""
"","time_out","","html-keyboard-response","423","447290","0.0-1.0-584.0-0.0","0","0","66995","","null","","","null","64","","","","","","","","","","","","","","","",""
"","ITI","","html-keyboard-response","424","448293","0.0-1.0-585.0","0","0","66995","","null","","","null","64","","","","","","","","","","","","","","","NaN",""
"","S1","","html-keyboard-response","425","448546","0.0-1.0-587.0","0","0","66995","","null","","","null","65","","","","","","","","","","","","","","","",""
"","ISI","","html-keyboard-response","426","449548","0.0-1.0-588.0","0","0","66995","","null","","","null","65","NaN","","","","","","","","","","","","","","",""
"","S2","","html-keyboard-response","427","449801","0.0-1.0-589.0","0","0","66995","","null","","","null","65","","NaN","","","","","","","","","","","","","",""
"","response","","html-keyboard-response","428","450270","0.0-1.0-590.0-0.0","0","0","66995","","466","","","68","65","","","2","65","training","adjacent","FG","6","7","Q.jpg","R.jpg","0","1","0","",""
"","feedback","","html-keyboard-response","429","451272","0.0-1.0-591.0-0.0","0","0","66995","","null","","","null","65","","","","","","","","","","","","","","","",""
"","time_out","","html-keyboard-response","430","453287","0.0-1.0-593.0-0.0","0","0","66995","","null","","","null","65","","","","","","","","","","","","","","","",""
"","ITI","","html-keyboard-response","431","454289","0.0-1.0-594.0","0","0","66995","","null","","","null","65","","","","","","","","","","","","","","","NaN",""
"","S1","","html-keyboard-response","432","454541","0.0-1.0-596.0","0","0","66995","","null","","","null","66","","","","","","","","","","","","","","","",""
"","ISI","","html-keyboard-response","433","455544","0.0-1.0-597.0","0","0","66995","","null","","","null","66","NaN","","","","","","","","","","","","","","",""
"","S2","","html-keyboard-response","434","455796","0.0-1.0-598.0","0","0","66995","","null","","","null","66","","NaN","","","","","","","","","","","","","",""
"","response","","html-keyboard-response","435","456034","0.0-1.0-599.0-0.0","0","0","66995","","236","","","75","66","","","2","66","training","adjacent","GF","7","6","R.jpg","Q.jpg","1","0","0","",""
"","feedback","","html-keyboard-response","436","457037","0.0-1.0-600.0-0.0","0","0","66995","","null","","","null","66","","","","","","","","","","","","","","","",""
"","time_out","","html-keyboard-response","437","459039","0.0-1.0-602.0-0.0","0","0","66995","","null","","","null","66","","","","","","","","","","","","","","","",""
"","ITI","","html-keyboard-response","438","460042","0.0-1.0-603.0","0","0","66995","","null","","","null","66","","","","","","","","","","","","","","","NaN",""
"","S1","","html-keyboard-response","439","460294","0.0-1.0-605.0","0","0","66995","","null","","","null","67","","","","","","","","","","","","","","","",""
"","ISI","","html-keyboard-response","440","461309","0.0-1.0-606.0","0","0","66995","","null","","","null","67","NaN","","","","","","","","","","","","","","",""
"","S2","","html-keyboard-response","441","461562","0.0-1.0-607.0","0","0","66995","","null","","","null","67","","NaN","","","","","","","","","","","","","",""
"","response","","html-keyboard-response","442","461837","0.0-1.0-608.0-0.0","0","0","66995","","273","","","68","67","","","2","67","training","adjacent","FE","6","5","Q.jpg","O.jpg","0","0","1","",""
"","feedback","","html-keyboard-response","443","462840","0.0-1.0-609.0-0.0","0","0","66995","","null","","","null","67","","","","","","","","","","","","","","","",""
"","ITI","","html-keyboard-response","444","463842","0.0-1.0-612.0","0","0","66995","","null","","","null","67","","","","","","","","","","","","","","","NaN",""
"","S1","","html-keyboard-response","445","464095","0.0-1.0-614.0","0","0","66995","","null","","","null","68","","","","","","","","","","","","","","","",""
"","ISI","","html-keyboard-response","446","465097","0.0-1.0-615.0","0","0","66995","","null","","","null","68","NaN","","","","","","","","","","","","","","",""
"","S2","","html-keyboard-response","447","465350","0.0-1.0-616.0","0","0","66995","","null","","","null","68","","NaN","","","","","","","","","","","","","",""
"","response","","html-keyboard-response","448","465629","0.0-1.0-617.0-0.0","0","0","66995","","277","","","75","68","","","2","68","training","adjacent","CD","3","4","P.jpg","L.jpg","1","1","1","",""
"","feedback","","html-keyboard-response","449","466631","0.0-1.0-618.0-0.0","0","0","66995","","null","","","null","68","","","","","","","","","","","","","","","",""
"","ITI","","html-keyboard-response","450","467634","0.0-1.0-621.0","0","0","66995","","null","","","null","68","","","","","","","","","","","","","","","NaN",""
"","S1","","html-keyboard-response","451","467887","0.0-1.0-623.0","0","0","66995","","null","","","null","69","","","","","","","","","","","","","","","",""
"","ISI","","html-keyboard-response","452","468889","0.0-1.0-624.0","0","0","66995","","null","","","null","69","NaN","","","","","","","","","","","","","","",""
"","S2","","html-keyboard-response","453","469142","0.0-1.0-625.0","0","0","66995","","null","","","null","69","","NaN","","","","","","","","","","","","","",""
"","response","","html-keyboard-response","454","470175","0.0-1.0-626.0-0.0","0","0","66995","","1031","","","68","69","","","2","69","training","adjacent","ED","5","4","O.jpg","L.jpg","0","0","1","",""
"","feedback","","html-keyboard-response","455","471178","0.0-1.0-627.0-0.0","0","0","66995","","null","","","null","69","","","","","","","","","","","","","","","",""
"","ITI","","html-keyboard-response","456","472190","0.0-1.0-630.0","0","0","66995","","null","","","null","69","","","","","","","","","","","","","","","NaN",""
"","S1","","html-keyboard-response","457","472443","0.0-1.0-632.0","0","0","66995","","null","","","null","70","","","","","","","","","","","","","","","",""
"","ISI","","html-keyboard-response","458","473445","0.0-1.0-633.0","0","0","66995","","null","","","null","70","NaN","","","","","","","","","","","","","","",""
"","S2","","html-keyboard-response","459","473698","0.0-1.0-634.0","0","0","66995","","null","","","null","70","","NaN","","","","","","","","","","","","","",""
"","response","","html-keyboard-response","460","474339","0.0-1.0-635.0-0.0","0","0","66995","","640","","","75","70","","","2","70","training","adjacent","ED","5","4","O.jpg","L.jpg","1","0","0","",""
"","feedback","","html-keyboard-response","461","475342","0.0-1.0-636.0-0.0","0","0","66995","","null","","","null","70","","","","","","","","","","","","","","","",""
"","time_out","","html-keyboard-response","462","477344","0.0-1.0-638.0-0.0","0","0","66995","","null","","","null","70","","","","","","","","","","","","","","","",""
"","ITI","","html-keyboard-response","463","478347","0.0-1.0-639.0","0","0","66995","","null","","","null","70","","","","","","","","","","","","","","","NaN",""
"","S1","","html-keyboard-response","464","478601","0.0-1.0-641.0","0","0","66995","","null","","","null","71","","","","","","","","","","","","","","","",""
"","ISI","","html-keyboard-response","465","479604","0.0-1.0-642.0","0","0","66995","","null","","","null","71","NaN","","","","","","","","","","","","","","",""
"","S2","","html-keyboard-response","466","479856","0.0-1.0-643.0","0","0","66995","","null","","","null","71","","NaN","","","","","","","","","","","","","",""
"","response","","html-keyboard-response","467","480053","0.0-1.0-644.0-0.0","0","0","66995","","196","","","75","71","","","2","71","training","adjacent","CB","3","2","P.jpg","N.jpg","1","0","0","",""
"","feedback","","html-keyboard-response","468","481056","0.0-1.0-645.0-0.0","0","0","66995","","null","","","null","71","","","","","","","","","","","","","","","",""
"","time_out","","html-keyboard-response","469","483058","0.0-1.0-647.0-0.0","0","0","66995","","null","","","null","71","","","","","","","","","","","","","","","",""
"","ITI","","html-keyboard-response","470","484060","0.0-1.0-648.0","0","0","66995","","null","","","null","71","","","","","","","","","","","","","","","NaN",""
"","S1","","html-keyboard-response","471","484313","0.0-1.0-650.0","0","0","66995","","null","","","null","72","","","","","","","","","","","","","","","",""
"","ISI","","html-keyboard-response","472","485323","0.0-1.0-651.0","0","0","66995","","null","","","null","72","NaN","","","","","","","","","","","","","","",""
"","S2","","html-keyboard-response","473","485590","0.0-1.0-652.0","0","0","66995","","null","","","null","72","","NaN","","","","","","","","","","","","","",""
"","response","","html-keyboard-response","474","485717","0.0-1.0-653.0-0.0","0","0","66995","","125","","","68","72","","","2","72","training","adjacent","BA","2","1","N.jpg","M.jpg","0","0","1","",""
"","feedback","","html-keyboard-response","475","486720","0.0-1.0-654.0-0.0","0","0","66995","","null","","","null","72","","","","","","","","","","","","","","","",""
"","ITI","","html-keyboard-response","476","487722","0.0-1.0-657.0","0","0","66995","","null","","","null","72","","","","","","","","","","","","","","","NaN",""
"","S1","","html-keyboard-response","477","487975","0.0-1.0-659.0","0","0","66995","","null","","","null","73","","","","","","","","","","","","","","","",""
"","ISI","","html-keyboard-response","478","488978","0.0-1.0-660.0","0","0","66995","","null","","","null","73","NaN","","","","","","","","","","","","","","",""
"","S2","","html-keyboard-response","479","489232","0.0-1.0-661.0","0","0","66995","","null","","","null","73","","NaN","","","","","","","","","","","","","",""
"","response","","html-keyboard-response","480","489661","0.0-1.0-662.0-0.0","0","0","66995","","428","","","68","73","","","2","73","training","adjacent","BC","2","3","N.jpg","P.jpg","0","1","0","",""
"","feedback","","html-keyboard-response","481","490663","0.0-1.0-663.0-0.0","0","0","66995","","null","","","null","73","","","","","","","","","","","","","","","",""
"","time_out","","html-keyboard-response","482","492665","0.0-1.0-665.0-0.0","0","0","66995","","null","","","null","73","","","","","","","","","","","","","","","",""
"","ITI","","html-keyboard-response","483","493667","0.0-1.0-666.0","0","0","66995","","null","","","null","73","","","","","","","","","","","","","","","NaN",""
"","S1","","html-keyboard-response","484","493920","0.0-1.0-668.0","0","0","66995","","null","","","null","74","","","","","","","","","","","","","","","",""
"","ISI","","html-keyboard-response","485","494922","0.0-1.0-669.0","0","0","66995","","null","","","null","74","NaN","","","","","","","","","","","","","","",""
"","S2","","html-keyboard-response","486","495175","0.0-1.0-670.0","0","0","66995","","null","","","null","74","","NaN","","","","","","","","","","","","","",""
"","response","","html-keyboard-response","487","495593","0.0-1.0-671.0-0.0","0","0","66995","","415","","","75","74","","","2","74","training","adjacent","DE","4","5","L.jpg","O.jpg","1","1","1","",""
"","feedback","","html-keyboard-response","488","496595","0.0-1.0-672.0-0.0","0","0","66995","","null","","","null","74","","","","","","","","","","","","","","","",""
"","ITI","","html-keyboard-response","489","497598","0.0-1.0-675.0","0","0","66995","","null","","","null","74","","","","","","","","","","","","","","","NaN",""
"","S1","","html-keyboard-response","490","497850","0.0-1.0-677.0","0","0","66995","","null","","","null","75","","","","","","","","","","","","","","","",""
"","ISI","","html-keyboard-response","491","498852","0.0-1.0-678.0","0","0","66995","","null","","","null","75","NaN","","","","","","","","","","","","","","",""
"","S2","","html-keyboard-response","492","499105","0.0-1.0-679.0","0","0","66995","","null","","","null","75","","NaN","","","","","","","","","","","","","",""
"","response","","html-keyboard-response","493","499667","0.0-1.0-680.0-0.0","0","0","66995","","561","","","68","75","","","2","75","training","adjacent","GF","7","6","R.jpg","Q.jpg","0","0","1","",""
"","feedback","","html-keyboard-response","494","500670","0.0-1.0-681.0-0.0","0","0","66995","","null","","","null","75","","","","","","","","","","","","","","","",""
"","ITI","","html-keyboard-response","495","501672","0.0-1.0-684.0","0","0","66995","","null","","","null","75","","","","","","","","","","","","","","","NaN",""
"","S1","","html-keyboard-response","496","501925","0.0-1.0-686.0","0","0","66995","","null","","","null","76","","","","","","","","","","","","","","","",""
"","ISI","","html-keyboard-response","497","502928","0.0-1.0-687.0","0","0","66995","","null","","","null","76","NaN","","","","","","","","","","","","","","",""
"","S2","","html-keyboard-response","498","503181","0.0-1.0-688.0","0","0","66995","","null","","","null","76","","NaN","","","","","","","","","","","","","",""
"","response","","html-keyboard-response","499","503680","0.0-1.0-689.0-0.0","0","0","66995","","497","","","75","76","","","2","76","training","adjacent","EF","5","6","O.jpg","Q.jpg","1","1","1","",""
"","feedback","","html-keyboard-response","500","504683","0.0-1.0-690.0-0.0","0","0","66995","","null","","","null","76","","","","","","","","","","","","","","","",""
"","ITI","","html-keyboard-response","501","505685","0.0-1.0-693.0","0","0","66995","","null","","","null","76","","","","","","","","","","","","","","","NaN",""
"","S1","","html-keyboard-response","502","505938","0.0-1.0-695.0","0","0","66995","","null","","","null","77","","","","","","","","","","","","","","","",""
"","ISI","","html-keyboard-response","503","506940","0.0-1.0-696.0","0","0","66995","","null","","","null","77","NaN","","","","","","","","","","","","","","",""
"","S2","","html-keyboard-response","504","507193","0.0-1.0-697.0","0","0","66995","","null","","","null","77","","NaN","","","","","","","","","","","","","",""
"","response","","html-keyboard-response","505","507371","0.0-1.0-698.0-0.0","0","0","66995","","176","","","75","77","","","2","77","training","adjacent","CB","3","2","P.jpg","N.jpg","1","0","0","",""
"","feedback","","html-keyboard-response","506","508373","0.0-1.0-699.0-0.0","0","0","66995","","null","","","null","77","","","","","","","","","","","","","","","",""
"","time_out","","html-keyboard-response","507","510376","0.0-1.0-701.0-0.0","0","0","66995","","null","","","null","77","","","","","","","","","","","","","","","",""
"","ITI","","html-keyboard-response","508","511379","0.0-1.0-702.0","0","0","66995","","null","","","null","77","","","","","","","","","","","","","","","NaN",""
"","S1","","html-keyboard-response","509","511631","0.0-1.0-704.0","0","0","66995","","null","","","null","78","","","","","","","","","","","","","","","",""
"","ISI","","html-keyboard-response","510","512633","0.0-1.0-705.0","0","0","66995","","null","","","null","78","NaN","","","","","","","","","","","","","","",""
"","S2","","html-keyboard-response","511","512886","0.0-1.0-706.0","0","0","66995","","null","","","null","78","","NaN","","","","","","","","","","","","","",""
"","response","","html-keyboard-response","512","513100","0.0-1.0-707.0-0.0","0","0","66995","","211","","","68","78","","","2","78","training","adjacent","DC","4","3","L.jpg","P.jpg","0","0","1","",""
"","feedback","","html-keyboard-response","513","514103","0.0-1.0-708.0-0.0","0","0","66995","","null","","","null","78","","","","","","","","","","","","","","","",""
"","ITI","","html-keyboard-response","514","515106","0.0-1.0-711.0","0","0","66995","","null","","","null","78","","","","","","","","","","","","","","","NaN",""
"","S1","","html-keyboard-response","515","515359","0.0-1.0-713.0","0","0","66995","","null","","","null","79","","","","","","","","","","","","","","","",""
"","ISI","","html-keyboard-response","516","516362","0.0-1.0-714.0","0","0","66995","","null","","","null","79","NaN","","","","","","","","","","","","","","",""
"","S2","","html-keyboard-response","517","516614","0.0-1.0-715.0","0","0","66995","","null","","","null","79","","NaN","","","","","","","","","","","","","",""
"","response","","html-keyboard-response","518","516828","0.0-1.0-716.0-0.0","0","0","66995","","213","","","75","79","","","2","79","training","adjacent","FE","6","5","Q.jpg","O.jpg","1","0","0","",""
"","feedback","","html-keyboard-response","519","517839","0.0-1.0-717.0-0.0","0","0","66995","","null","","","null","79","","","","","","","","","","","","","","","",""
"","time_out","","html-keyboard-response","520","519842","0.0-1.0-719.0-0.0","0","0","66995","","null","","","null","79","","","","","","","","","","","","","","","",""
"","ITI","","html-keyboard-response","521","520845","0.0-1.0-720.0","0","0","66995","","null","","","null","79","","","","","","","","","","","","","","","NaN",""
"","S1","","html-keyboard-response","522","521097","0.0-1.0-722.0","0","0","66995","","null","","","null","80","","","","","","","","","","","","","","","",""
"","ISI","","html-keyboard-response","523","522099","0.0-1.0-723.0","0","0","66995","","null","","","null","80","NaN","","","","","","","","","","","","","","",""
"","S2","","html-keyboard-response","524","522351","0.0-1.0-724.0","0","0","66995","","null","","","null","80","","NaN","","","","","","","","","","","","","",""
"","response","","html-keyboard-response","525","522605","0.0-1.0-725.0-0.0","0","0","66995","","252","","","68","80","","","2","80","training","adjacent","DE","4","5","L.jpg","O.jpg","0","1","0","",""
"","feedback","","html-keyboard-response","526","523607","0.0-1.0-726.0-0.0","0","0","66995","","null","","","null","80","","","","","","","","","","","","","","","",""
"","time_out","","html-keyboard-response","527","525609","0.0-1.0-728.0-0.0","0","0","66995","","null","","","null","80","","","","","","","","","","","","","","","",""
"","ITI","","html-keyboard-response","528","526612","0.0-1.0-729.0","0","0","66995","","null","","","null","80","","","","","","","","","","","","","","","NaN",""
"","S1","","html-keyboard-response","529","526865","0.0-1.0-731.0","0","0","66995","","null","","","null","81","","","","","","","","","","","","","","","",""
"","ISI","","html-keyboard-response","530","527880","0.0-1.0-732.0","0","0","66995","","null","","","null","81","NaN","","","","","","","","","","","","","","",""
"","S2","","html-keyboard-response","531","528133","0.0-1.0-733.0","0","0","66995","","null","","","null","81","","NaN","","","","","","","","","","","","","",""
"","response","","html-keyboard-response","532","528196","0.0-1.0-734.0-0.0","0","0","66995","","60","","","75","81","","","2","81","training","adjacent","GF","7","6","R.jpg","Q.jpg","1","0","0","",""
"","feedback","","html-keyboard-response","533","529199","0.0-1.0-735.0-0.0","0","0","66995","","null","","","null","81","","","","","","","","","","","","","","","",""
"","time_out","","html-keyboard-response","534","531202","0.0-1.0-737.0-0.0","0","0","66995","","null","","","null","81","","","","","","","","","","","","","","","",""
"","ITI","","html-keyboard-response","535","532204","0.0-1.0-738.0","0","0","66995","","null","","","null","81","","","","","","","","","","","","","","","NaN",""
"","S1","","html-keyboard-response","536","532457","0.0-1.0-740.0","0","0","66995","","null","","","null","82","","","","","","","","","","","","","","","",""
"","ISI","","html-keyboard-response","537","533459","0.0-1.0-741.0","0","0","66995","","null","","","null","82","NaN","","","","","","","","","","","","","","",""
"","S2","","html-keyboard-response","538","533713","0.0-1.0-742.0","0","0","66995","","null","","","null","82","","NaN","","","","","","","","","","","","","",""
"","response","","html-keyboard-response","539","534116","0.0-1.0-743.0-0.0","0","0","66995","","401","","","75","82","","","2","82","training","adjacent","FG","6","7","Q.jpg","R.jpg","1","1","1","",""
"","feedback","","html-keyboard-response","540","535119","0.0-1.0-744.0-0.0","0","0","66995","","null","","","null","82","","","","","","","","","","","","","","","",""
"","ITI","","html-keyboard-response","541","536122","0.0-1.0-747.0","0","0","66995","","null","","","null","82","","","","","","","","","","","","","","","NaN",""
"","S1","","html-keyboard-response","542","536375","0.0-1.0-749.0","0","0","66995","","null","","","null","83","","","","","","","","","","","","","","","",""
"","ISI","","html-keyboard-response","543","537378","0.0-1.0-750.0","0","0","66995","","null","","","null","83","NaN","","","","","","","","","","","","","","",""
"","S2","","html-keyboard-response","544","537631","0.0-1.0-751.0","0","0","66995","","null","","","null","83","","NaN","","","","","","","","","","","","","",""
"","response","","html-keyboard-response","545","537862","0.0-1.0-752.0-0.0","0","0","66995","","230","","","68","83","","","2","83","training","adjacent","EF","5","6","O.jpg","Q.jpg","0","1","0","",""
"","feedback","","html-keyboard-response","546","538864","0.0-1.0-753.0-0.0","0","0","66995","","null","","","null","83","","","","","","","","","","","","","","","",""
"","time_out","","html-keyboard-response","547","540866","0.0-1.0-755.0-0.0","0","0","66995","","null","","","null","83","","","","","","","","","","","","","","","",""
"","ITI","","html-keyboard-response","548","541868","0.0-1.0-756.0","0","0","66995","","null","","","null","83","","","","","","","","","","","","","","","NaN",""
"","S1","","html-keyboard-response","549","542120","0.0-1.0-758.0","0","0","66995","","null","","","null","84","","","","","","","","","","","","","","","",""
"","ISI","","html-keyboard-response","550","543123","0.0-1.0-759.0","0","0","66995","","null","","","null","84","NaN","","","","","","","","","","","","","","",""
"","S2","","html-keyboard-response","551","543376","0.0-1.0-760.0","0","0","66995","","null","","","null","84","","NaN","","","","","","","","","","","","","",""
"","response","","html-keyboard-response","552","543643","0.0-1.0-761.0-0.0","0","0","66995","","266","","","75","84","","","2","84","training","adjacent","FG","6","7","Q.jpg","R.jpg","1","1","1","",""
"","feedback","","html-keyboard-response","553","544646","0.0-1.0-762.0-0.0","0","0","66995","","null","","","null","84","","","","","","","","","","","","","","","",""
"","ITI","","html-keyboard-response","554","545649","0.0-1.0-765.0","0","0","66995","","null","","","null","84","","","","","","","","","","","","","","","NaN",""
"","S1","","html-keyboard-response","555","545901","0.0-1.0-767.0","0","0","66995","","null","","","null","85","","","","","","","","","","","","","","","",""
"","ISI","","html-keyboard-response","556","546908","0.0-1.0-768.0","0","0","66995","","null","","","null","85","NaN","","","","","","","","","","","","","","",""
"","S2","","html-keyboard-response","557","547161","0.0-1.0-769.0","0","0","66995","","null","","","null","85","","NaN","","","","","","","","","","","","","",""
"","response","","html-keyboard-response","558","547909","0.0-1.0-770.0-0.0","0","0","66995","","746","","","75","85","","","2","85","training","adjacent","CD","3","4","P.jpg","L.jpg","1","1","1","",""
"","feedback","","html-keyboard-response","559","548912","0.0-1.0-771.0-0.0","0","0","66995","","null","","","null","85","","","","","","","","","","","","","","","",""
"","ITI","","html-keyboard-response","560","549914","0.0-1.0-774.0","0","0","66995","","null","","","null","85","","","","","","","","","","","","","","","NaN",""
"","S1","","html-keyboard-response","561","550166","0.0-1.0-776.0","0","0","66995","","null","","","null","86","","","","","","","","","","","","","","","",""
"","ISI","","html-keyboard-response","562","551168","0.0-1.0-777.0","0","0","66995","","null","","","null","86","NaN","","","","","","","","","","","","","","",""
"","S2","","html-keyboard-response","563","551420","0.0-1.0-778.0","0","0","66995","","null","","","null","86","","NaN","","","","","","","","","","","","","",""
"","response","","html-keyboard-response","564","552115","0.0-1.0-779.0-0.0","0","0","66995","","693","","","68","86","","","2","86","training","adjacent","ED","5","4","O.jpg","L.jpg","0","0","1","",""
"","feedback","","html-keyboard-response","565","553118","0.0-1.0-780.0-0.0","0","0","66995","","null","","","null","86","","","","","","","","","","","","","","","",""
"","ITI","","html-keyboard-response","566","554121","0.0-1.0-783.0","0","0","66995","","null","","","null","86","","","","","","","","","","","","","","","NaN",""
"","S1","","html-keyboard-response","567","554375","0.0-1.0-785.0","0","0","66995","","null","","","null","87","","","","","","","","","","","","","","","",""
"","ISI","","html-keyboard-response","568","555378","0.0-1.0-786.0","0","0","66995","","null","","","null","87","NaN","","","","","","","","","","","","","","",""
"","S2","","html-keyboard-response","569","555631","0.0-1.0-787.0","0","0","66995","","null","","","null","87","","NaN","","","","","","","","","","","","","",""
"","response","","html-keyboard-response","570","556118","0.0-1.0-788.0-0.0","0","0","66995","","486","","","68","87","","","2","87","training","adjacent","FG","6","7","Q.jpg","R.jpg","0","1","0","",""
"","feedback","","html-keyboard-response","571","557122","0.0-1.0-789.0-0.0","0","0","66995","","null","","","null","87","","","","","","","","","","","","","","","",""
"","time_out","","html-keyboard-response","572","559125","0.0-1.0-791.0-0.0","0","0","66995","","null","","","null","87","","","","","","","","","","","","","","","",""
"","ITI","","html-keyboard-response","573","560128","0.0-1.0-792.0","0","0","66995","","null","","","null","87","","","","","","","","","","","","","","","NaN",""
"","S1","","html-keyboard-response","574","560381","0.0-1.0-794.0","0","0","66995","","null","","","null","88","","","","","","","","","","","","","","","",""
"","ISI","","html-keyboard-response","575","561383","0.0-1.0-795.0","0","0","66995","","null","","","null","88","NaN","","","","","","","","","","","","","","",""
"","S2","","html-keyboard-response","576","561637","0.0-1.0-796.0","0","0","66995","","null","","","null","88","","NaN","","","","","","","","","","","","","",""
"","response","","html-keyboard-response","577","561766","0.0-1.0-797.0-0.0","0","0","66995","","128","","","75","88","","","2","88","training","adjacent","AB","1","2","M.jpg","N.jpg","1","1","1","",""
"","feedback","","html-keyboard-response","578","562769","0.0-1.0-798.0-0.0","0","0","66995","","null","","","null","88","","","","","","","","","","","","","","","",""
"","ITI","","html-keyboard-response","579","563771","0.0-1.0-801.0","0","0","66995","","null","","","null","88","","","","","","","","","","","","","","","NaN",""
"","S1","","html-keyboard-response","580","564025","0.0-1.0-803.0","0","0","66995","","null","","","null","89","","","","","","","","","","","","","","","",""
