"success","ttype","start_time","trial_type","trial_index","time_elapsed","internal_node_id","warning","missed_checkup","PID","view_history","rt","responses","repeat_instructions","key_press","index","keypress_isi","keypress_S2","block","trial_num","phase","group_type","pair_type","S1_stim","S2_stim","S1_img","S2_img","S1_chosen","S1_higher","accuracy","keypress_iti","total_bonus_tally"
"true","full_screen","d03042023hr2233","fullscreen","0","6300","0.0-0.0","0","0","29174","","","","","","","","","","","","","","","","","","","","","",""
"","instructions","","instructions","1","50662","0.0-1.0-0.0-0.0","0","0","29174","[{""page_index"":0,""viewing_time"":2704},{""page_index"":1,""viewing_time"":31059},{""page_index"":2,""viewing_time"":9077},{""page_index"":3,""viewing_time"":1518}]","44359","","","","","","","","","","","","","","","","","","","",""
"","comprehension_check","","survey-multi-choice","2","69951","0.0-1.0-0.0-1.0","0","0","29174","","19282","{""Q0"":""True"",""Q1"":""D"",""Q2"":""Once the second image appears and while the screen 'MAKE A CHOICE' is shown"",""Q3"":""Green mark"",""Q4"":""either D or K""}","0","","","","","","","","","","","","","","","","","",""
"","start_exp","","html-keyboard-response","3","71760","0.0-1.0-1.0","0","0","29174","","1801","","","32","","","","","","","","","","","","","","","","",""
"","S1","","html-keyboard-response","4","72022","0.0-1.0-2.0","0","0","29174","","null","","","null","0","","","","","","","","","","","","","","","",""
"","ISI","","html-keyboard-response","5","72534","0.0-1.0-3.0","0","0","29174","","null","","","null","0","NaN","","","","","","","","","","","","","","",""
"","S2","","html-keyboard-response","6","72790","0.0-1.0-4.0","0","0","29174","","null","","","null","0","","NaN","","","","","","","","","","","","","",""
"","response","","html-keyboard-response","7","73404","0.0-1.0-5.0-0.0","0","0","29174","","611","","","75","0","","","1","0","training","adjacent","FE","6","5","N.jpg","P.jpg","0","0","1","",""
"","feedback","","html-keyboard-response","8","74416","0.0-1.0-6.0-0.0","0","0","29174","","null","","","null","0","","","","","","","","","","","","","","","",""
"","ITI","","html-keyboard-response","9","75425","0.0-1.0-9.0","0","0","29174","","null","","","null","0","","","","","","","","","","","","","","","NaN",""
"","S1","","html-keyboard-response","10","75686","0.0-1.0-11.0","0","0","29174","","null","","","null","1","","","","","","","","","","","","","","","",""
"","ISI","","html-keyboard-response","11","76198","0.0-1.0-12.0","0","0","29174","","null","","","null","1","NaN","","","","","","","","","","","","","","",""
"","S2","","html-keyboard-response","12","76454","0.0-1.0-13.0","0","0","29174","","null","","","null","1","","NaN","","","","","","","","","","","","","",""
"","response","","html-keyboard-response","13","76786","0.0-1.0-14.0-0.0","0","0","29174","","330","","","68","1","","","1","1","training","adjacent","ED","5","4","P.jpg","L.jpg","1","0","0","",""
"","feedback","","html-keyboard-response","14","77798","0.0-1.0-15.0-0.0","0","0","29174","","null","","","null","1","","","","","","","","","","","","","","","",""
"","time_out","","html-keyboard-response","15","79808","0.0-1.0-17.0-0.0","0","0","29174","","null","","","null","1","","","","","","","","","","","","","","","",""
"","ITI","","html-keyboard-response","16","80816","0.0-1.0-18.0","0","0","29174","","655","","","68","1","","","","","","","","","","","","","","","d",""
"","S1","","html-keyboard-response","17","81078","0.0-1.0-20.0","0","0","29174","","null","","","null","2","","","","","","","","","","","","","","","",""
"","ISI","","html-keyboard-response","18","81590","0.0-1.0-21.0","0","0","29174","","null","","","null","2","NaN","","","","","","","","","","","","","","",""
"","S2","","html-keyboard-response","19","81846","0.0-1.0-22.0","0","0","29174","","null","","","null","2","","NaN","","","","","","","","","","","","","",""
"","response","","html-keyboard-response","20","82299","0.0-1.0-23.0-0.0","0","0","29174","","450","","","75","2","","","1","2","training","adjacent","FE","6","5","N.jpg","P.jpg","0","0","1","",""
"","feedback","","html-keyboard-response","21","83312","0.0-1.0-24.0-0.0","0","0","29174","","null","","","null","2","","","","","","","","","","","","","","","",""
"","ITI","","html-keyboard-response","22","84320","0.0-1.0-27.0","0","0","29174","","null","","","null","2","","","","","","","","","","","","","","","NaN",""
"","S1","","html-keyboard-response","23","84582","0.0-1.0-29.0","0","0","29174","","null","","","null","3","","","","","","","","","","","","","","","",""
"","ISI","","html-keyboard-response","24","85094","0.0-1.0-30.0","0","0","29174","","null","","","null","3","NaN","","","","","","","","","","","","","","",""
"","S2","","html-keyboard-response","25","85350","0.0-1.0-31.0","0","0","29174","","null","","","null","3","","NaN","","","","","","","","","","","","","",""
"","response","","html-keyboard-response","26","85701","0.0-1.0-32.0-0.0","0","0","29174","","349","","","75","3","","","1","3","training","adjacent","BA","2","1","Q.jpg","R.jpg","0","0","1","",""
"","feedback","","html-keyboard-response","27","86710","0.0-1.0-33.0-0.0","0","0","29174","","null","","","null","3","","","","","","","","","","","","","","","",""
"","ITI","","html-keyboard-response","28","87718","0.0-1.0-36.0","0","0","29174","","null","","","null","3","","","","","","","","","","","","","","","NaN",""
"","S1","","html-keyboard-response","29","87974","0.0-1.0-38.0","0","0","29174","","null","","","null","4","","","","","","","","","","","","","","","",""
"","ISI","","html-keyboard-response","30","88486","0.0-1.0-39.0","0","0","29174","","null","","","null","4","NaN","","","","","","","","","","","","","","",""
"","S2","","html-keyboard-response","31","88742","0.0-1.0-40.0","0","0","29174","","null","","","null","4","","NaN","","","","","","","","","","","","","",""
"","response","","html-keyboard-response","32","89109","0.0-1.0-41.0-0.0","0","0","29174","","365","","","75","4","","","1","4","training","adjacent","DC","4","3","L.jpg","O.jpg","0","0","1","",""
"","feedback","","html-keyboard-response","33","90118","0.0-1.0-42.0-0.0","0","0","29174","","null","","","null","4","","","","","","","","","","","","","","","",""
"","ITI","","html-keyboard-response","34","91126","0.0-1.0-45.0","0","0","29174","","null","","","null","4","","","","","","","","","","","","","","","NaN",""
"","S1","","html-keyboard-response","35","91382","0.0-1.0-47.0","0","0","29174","","null","","","null","5","","","","","","","","","","","","","","","",""
"","ISI","","html-keyboard-response","36","91894","0.0-1.0-48.0","0","0","29174","","null","","","null","5","NaN","","","","","","","","","","","","","","",""
"","S2","","html-keyboard-response","37","92150","0.0-1.0-49.0","0","0","29174","","null","","","null","5","","NaN","","","","","","","","","","","","","",""
"","response","","html-keyboard-response","38","92387","0.0-1.0-50.0-0.0","0","0","29174","","235","","","75","5","","","1","5","training","adjacent","DE","4","5","L.jpg","P.jpg","0","1","0","",""
"","feedback","","html-keyboard-response","39","93398","0.0-1.0-51.0-0.0","0","0","29174","","null","","","null","5","","","","","","","","","","","","","","","",""
"","time_out","","html-keyboard-response","40","95409","0.0-1.0-53.0-0.0","0","0","29174","","null","","","null","5","","","","","","","","","","","","","","","",""
"","ITI","","html-keyboard-response","41","96416","0.0-1.0-54.0","0","0","29174","","null","","","null","5","","","","","","","","","","","","","","","NaN",""
"","S1","","html-keyboard-response","42","96678","0.0-1.0-56.0","0","0","29174","","null","","","null","6","","","","","","","","","","","","","","","",""
"","ISI","","html-keyboard-response","43","97190","0.0-1.0-57.0","0","0","29174","","null","","","null","6","NaN","","","","","","","","","","","","","","",""
"","S2","","html-keyboard-response","44","97446","0.0-1.0-58.0","0","0","29174","","null","","","null","6","","NaN","","","","","","","","","","","","","",""
"","response","","html-keyboard-response","45","97884","0.0-1.0-59.0-0.0","0","0","29174","","435","","","68","6","","","1","6","training","adjacent","CB","3","2","O.jpg","Q.jpg","1","0","0","",""
"","feedback","","html-keyboard-response","46","98897","0.0-1.0-60.0-0.0","0","0","29174","","null","","","null","6","","","","","","","","","","","","","","","",""
"","time_out","","html-keyboard-response","47","100902","0.0-1.0-62.0-0.0","0","0","29174","","null","","","null","6","","","","","","","","","","","","","","","",""
"","ITI","","html-keyboard-response","48","101910","0.0-1.0-63.0","0","0","29174","","null","","","null","6","","","","","","","","","","","","","","","NaN",""
"","S1","","html-keyboard-response","49","102166","0.0-1.0-65.0","0","0","29174","","null","","","null","7","","","","","","","","","","","","","","","",""
"","ISI","","html-keyboard-response","50","102679","0.0-1.0-66.0","0","0","29174","","null","","","null","7","NaN","","","","","","","","","","","","","","",""
"","S2","","html-keyboard-response","51","102934","0.0-1.0-67.0","0","0","29174","","null","","","null","7","","NaN","","","","","","","","","","","","","",""
"","response","","html-keyboard-response","52","103356","0.0-1.0-68.0-0.0","0","0","29174","","419","","","75","7","","","1","7","training","adjacent","AB","1","2","R.jpg","Q.jpg","0","1","0","",""
"","feedback","","html-keyboard-response","53","104369","0.0-1.0-69.0-0.0","0","0","29174","","null","","","null","7","","","","","","","","","","","","","","","",""
"","time_out","","html-keyboard-response","54","106374","0.0-1.0-71.0-0.0","0","0","29174","","null","","","null","7","","","","","","","","","","","","","","","",""
"","ITI","","html-keyboard-response","55","107382","0.0-1.0-72.0","0","0","29174","","null","","","null","7","","","","","","","","","","","","","","","NaN",""
"","S1","","html-keyboard-response","56","107638","0.0-1.0-74.0","0","0","29174","","null","","","null","8","","","","","","","","","","","","","","","",""
"","ISI","","html-keyboard-response","57","108150","0.0-1.0-75.0","0","0","29174","","null","","","null","8","NaN","","","","","","","","","","","","","","",""
"","S2","","html-keyboard-response","58","108406","0.0-1.0-76.0","0","0","29174","","null","","","null","8","","NaN","","","","","","","","","","","","","",""
"","response","","html-keyboard-response","59","108798","0.0-1.0-77.0-0.0","0","0","29174","","390","","","75","8","","","1","8","training","adjacent","BA","2","1","Q.jpg","R.jpg","0","0","1","",""
"","feedback","","html-keyboard-response","60","109809","0.0-1.0-78.0-0.0","0","0","29174","","null","","","null","8","","","","","","","","","","","","","","","",""
"","ITI","","html-keyboard-response","61","110817","0.0-1.0-81.0","0","0","29174","","null","","","null","8","","","","","","","","","","","","","","","NaN",""
"","S1","","html-keyboard-response","62","111078","0.0-1.0-83.0","0","0","29174","","null","","","null","9","","","","","","","","","","","","","","","",""
"","ISI","","html-keyboard-response","63","111590","0.0-1.0-84.0","0","0","29174","","null","","","null","9","NaN","","","","","","","","","","","","","","",""
"","S2","","html-keyboard-response","64","111846","0.0-1.0-85.0","0","0","29174","","null","","","null","9","","NaN","","","","","","","","","","","","","",""
"","response","","html-keyboard-response","65","112117","0.0-1.0-86.0-0.0","0","0","29174","","268","","","68","9","","","1","9","training","adjacent","FE","6","5","N.jpg","P.jpg","1","0","0","",""
"","feedback","","html-keyboard-response","66","113126","0.0-1.0-87.0-0.0","0","0","29174","","null","","","null","9","","","","","","","","","","","","","","","",""
"","time_out","","html-keyboard-response","67","115137","0.0-1.0-89.0-0.0","0","0","29174","","null","","","null","9","","","","","","","","","","","","","","","",""
"","ITI","","html-keyboard-response","68","116142","0.0-1.0-90.0","0","0","29174","","null","","","null","9","","","","","","","","","","","","","","","NaN",""
"","S1","","html-keyboard-response","69","116401","0.0-1.0-92.0","0","0","29174","","null","","","null","10","","","","","","","","","","","","","","","",""
"","ISI","","html-keyboard-response","70","116913","0.0-1.0-93.0","0","0","29174","","null","","","null","10","NaN","","","","","","","","","","","","","","",""
"","S2","","html-keyboard-response","71","117174","0.0-1.0-94.0","0","0","29174","","null","","","null","10","","NaN","","","","","","","","","","","","","",""
"","response","","html-keyboard-response","72","117734","0.0-1.0-95.0-0.0","0","0","29174","","557","","","75","10","","","1","10","training","adjacent","DE","4","5","L.jpg","P.jpg","0","1","0","",""
"","feedback","","html-keyboard-response","73","118744","0.0-1.0-96.0-0.0","0","0","29174","","null","","","null","10","","","","","","","","","","","","","","","",""
"","time_out","","html-keyboard-response","74","120753","0.0-1.0-98.0-0.0","0","0","29174","","null","","","null","10","","","","","","","","","","","","","","","",""
"","ITI","","html-keyboard-response","75","121760","0.0-1.0-99.0","0","0","29174","","null","","","null","10","","","","","","","","","","","","","","","NaN",""
"","S1","","html-keyboard-response","76","122022","0.0-1.0-101.0","0","0","29174","","null","","","null","11","","","","","","","","","","","","","","","",""
"","ISI","","html-keyboard-response","77","122534","0.0-1.0-102.0","0","0","29174","","null","","","null","11","NaN","","","","","","","","","","","","","","",""
"","S2","","html-keyboard-response","78","122790","0.0-1.0-103.0","0","0","29174","","null","","","null","11","","NaN","","","","","","","","","","","","","",""
"","response","","html-keyboard-response","79","123192","0.0-1.0-104.0-0.0","0","0","29174","","400","","","75","11","","","1","11","training","adjacent","CD","3","4","O.jpg","L.jpg","0","1","0","",""
"","feedback","","html-keyboard-response","80","124198","0.0-1.0-105.0-0.0","0","0","29174","","null","","","null","11","","","","","","","","","","","","","","","",""
"","time_out","","html-keyboard-response","81","126209","0.0-1.0-107.0-0.0","0","0","29174","","null","","","null","11","","","","","","","","","","","","","","","",""
"","ITI","","html-keyboard-response","82","127216","0.0-1.0-108.0","0","0","29174","","null","","","null","11","","","","","","","","","","","","","","","NaN",""
"","S1","","html-keyboard-response","83","127478","0.0-1.0-110.0","0","0","29174","","null","","","null","12","","","","","","","","","","","","","","","",""
"","ISI","","html-keyboard-response","84","127990","0.0-1.0-111.0","0","0","29174","","null","","","null","12","NaN","","","","","","","","","","","","","","",""
"","S2","","html-keyboard-response","85","128246","0.0-1.0-112.0","0","0","29174","","253","","","68","12","","d","1","12","training","adjacent","EF","5","6","P.jpg","N.jpg","1","1","1","",""
"","feedback","","html-keyboard-response","86","129254","0.0-1.0-114.0-0.0","0","0","29174","","null","","","null","12","","","","","","","","","","","","","","","",""
"","ITI","","html-keyboard-response","87","130262","0.0-1.0-117.0","0","0","29174","","null","","","null","12","","","","","","","","","","","","","","","NaN",""
"","S1","","html-keyboard-response","88","130518","0.0-1.0-119.0","0","0","29174","","null","","","null","13","","","","","","","","","","","","","","","",""
"","ISI","","html-keyboard-response","89","131030","0.0-1.0-120.0","0","0","29174","","null","","","null","13","NaN","","","","","","","","","","","","","","",""
"","S2","","html-keyboard-response","90","131286","0.0-1.0-121.0","0","0","29174","","null","","","null","13","","NaN","","","","","","","","","","","","","",""
"","response","","html-keyboard-response","91","131302","0.0-1.0-122.0-0.0","0","0","29174","","14","","","75","13","","","1","13","training","adjacent","BC","2","3","Q.jpg","O.jpg","0","1","0","",""
"","feedback","","html-keyboard-response","92","132310","0.0-1.0-123.0-0.0","0","0","29174","","null","","","null","13","","","","","","","","","","","","","","","",""
"","time_out","","html-keyboard-response","93","134321","0.0-1.0-125.0-0.0","0","0","29174","","null","","","null","13","","","","","","","","","","","","","","","",""
"","ITI","","html-keyboard-response","94","135329","0.0-1.0-126.0","0","0","29174","","null","","","null","13","","","","","","","","","","","","","","","NaN",""
"","S1","","html-keyboard-response","95","135590","0.0-1.0-128.0","0","0","29174","","null","","","null","14","","","","","","","","","","","","","","","",""
"","ISI","","html-keyboard-response","96","136096","0.0-1.0-129.0","0","0","29174","","null","","","null","14","NaN","","","","","","","","","","","","","","",""
"","S2","","html-keyboard-response","97","136358","0.0-1.0-130.0","0","0","29174","","null","","","null","14","","NaN","","","","","","","","","","","","","",""
"","response","","html-keyboard-response","98","136576","0.0-1.0-131.0-0.0","0","0","29174","","215","","","68","14","","","1","14","training","adjacent","CB","3","2","O.jpg","Q.jpg","1","0","0","",""
"","feedback","","html-keyboard-response","99","137585","0.0-1.0-132.0-0.0","0","0","29174","","null","","","null","14","","","","","","","","","","","","","","","",""
"","time_out","","html-keyboard-response","100","139590","0.0-1.0-134.0-0.0","0","0","29174","","null","","","null","14","","","","","","","","","","","","","","","",""
"","ITI","","html-keyboard-response","101","140598","0.0-1.0-135.0","0","0","29174","","null","","","null","14","","","","","","","","","","","","","","","NaN",""
"","S1","","html-keyboard-response","102","140854","0.0-1.0-137.0","0","0","29174","","null","","","null","15","","","","","","","","","","","","","","","",""
"","ISI","","html-keyboard-response","103","141366","0.0-1.0-138.0","0","0","29174","","null","","","null","15","NaN","","","","","","","","","","","","","","",""
"","S2","","html-keyboard-response","104","141622","0.0-1.0-139.0","0","0","29174","","null","","","null","15","","NaN","","","","","","","","","","","","","",""
"","response","","html-keyboard-response","105","141925","0.0-1.0-140.0-0.0","0","0","29174","","300","","","68","15","","","1","15","training","adjacent","FE","6","5","N.jpg","P.jpg","1","0","0","",""
"","feedback","","html-keyboard-response","106","142934","0.0-1.0-141.0-0.0","0","0","29174","","null","","","null","15","","","","","","","","","","","","","","","",""
"","time_out","","html-keyboard-response","107","144945","0.0-1.0-143.0-0.0","0","0","29174","","null","","","null","15","","","","","","","","","","","","","","","",""
"","ITI","","html-keyboard-response","108","145953","0.0-1.0-144.0","0","0","29174","","null","","","null","15","","","","","","","","","","","","","","","NaN",""
"","S1","","html-keyboard-response","109","146214","0.0-1.0-146.0","0","0","29174","","null","","","null","16","","","","","","","","","","","","","","","",""
"","ISI","","html-keyboard-response","110","146726","0.0-1.0-147.0","0","0","29174","","null","","","null","16","NaN","","","","","","","","","","","","","","",""
"","S2","","html-keyboard-response","111","146976","0.0-1.0-148.0","0","0","29174","","247","","","75","16","","k","1","16","training","adjacent","DC","4","3","L.jpg","O.jpg","0","0","1","",""
"","feedback","","html-keyboard-response","112","147981","0.0-1.0-150.0-0.0","0","0","29174","","null","","","null","16","","","","","","","","","","","","","","","",""
"","ITI","","html-keyboard-response","113","148988","0.0-1.0-153.0","0","0","29174","","null","","","null","16","","","","","","","","","","","","","","","NaN",""
"","S1","","html-keyboard-response","114","149248","0.0-1.0-155.0","0","0","29174","","null","","","null","17","","","","","","","","","","","","","","","",""
"","ISI","","html-keyboard-response","115","149761","0.0-1.0-156.0","0","0","29174","","null","","","null","17","NaN","","","","","","","","","","","","","","",""
"","S2","","html-keyboard-response","116","150022","0.0-1.0-157.0","0","0","29174","","null","","","null","17","","NaN","","","","","","","","","","","","","",""
"","response","","html-keyboard-response","117","150044","0.0-1.0-158.0-0.0","0","0","29174","","19","","","68","17","","","1","17","training","adjacent","CB","3","2","O.jpg","Q.jpg","1","0","0","",""
"","feedback","","html-keyboard-response","118","151057","0.0-1.0-159.0-0.0","0","0","29174","","null","","","null","17","","","","","","","","","","","","","","","",""
"","time_out","","html-keyboard-response","119","153062","0.0-1.0-161.0-0.0","0","0","29174","","null","","","null","17","","","","","","","","","","","","","","","",""
"","ITI","","html-keyboard-response","120","154070","0.0-1.0-162.0","0","0","29174","","null","","","null","17","","","","","","","","","","","","","","","NaN",""
"","S1","","html-keyboard-response","121","154326","0.0-1.0-164.0","0","0","29174","","null","","","null","18","","","","","","","","","","","","","","","",""
"","ISI","","html-keyboard-response","122","154838","0.0-1.0-165.0","0","0","29174","","null","","","null","18","NaN","","","","","","","","","","","","","","",""
"","S2","","html-keyboard-response","123","155094","0.0-1.0-166.0","0","0","29174","","null","","","null","18","","NaN","","","","","","","","","","","","","",""
"","response","","html-keyboard-response","124","155136","0.0-1.0-167.0-0.0","0","0","29174","","40","","","68","18","","","1","18","training","adjacent","FG","6","7","N.jpg","M.jpg","1","1","1","",""
"","feedback","","html-keyboard-response","125","156145","0.0-1.0-168.0-0.0","0","0","29174","","null","","","null","18","","","","","","","","","","","","","","","",""
"","ITI","","html-keyboard-response","126","157153","0.0-1.0-171.0","0","0","29174","","null","","","null","18","","","","","","","","","","","","","","","NaN",""
"","S1","","html-keyboard-response","127","157414","0.0-1.0-173.0","0","0","29174","","null","","","null","19","","","","","","","","","","","","","","","",""
"","ISI","","html-keyboard-response","128","157926","0.0-1.0-174.0","0","0","29174","","null","","","null","19","NaN","","","","","","","","","","","","","","",""
"","S2","","html-keyboard-response","129","158182","0.0-1.0-175.0","0","0","29174","","null","","","null","19","","NaN","","","","","","","","","","","","","",""
"","response","","html-keyboard-response","130","158363","0.0-1.0-176.0-0.0","0","0","29174","","179","","","75","19","","","1","19","training","adjacent","BA","2","1","Q.jpg","R.jpg","0","0","1","",""
"","feedback","","html-keyboard-response","131","159377","0.0-1.0-177.0-0.0","0","0","29174","","null","","","null","19","","","","","","","","","","","","","","","",""
"","ITI","","html-keyboard-response","132","160384","0.0-1.0-180.0","0","0","29174","","null","","","null","19","","","","","","","","","","","","","","","NaN",""
"","S1","","html-keyboard-response","133","160646","0.0-1.0-182.0","0","0","29174","","null","","","null","20","","","","","","","","","","","","","","","",""
"","ISI","","html-keyboard-response","134","161158","0.0-1.0-183.0","0","0","29174","","null","","","null","20","NaN","","","","","","","","","","","","","","",""
"","S2","","html-keyboard-response","135","161414","0.0-1.0-184.0","0","0","29174","","null","","","null","20","","NaN","","","","","","","","","","","","","",""
"","response","","html-keyboard-response","136","161656","0.0-1.0-185.0-0.0","0","0","29174","","239","","","68","20","","","1","20","training","adjacent","FG","6","7","N.jpg","M.jpg","1","1","1","",""
"","feedback","","html-keyboard-response","137","162662","0.0-1.0-186.0-0.0","0","0","29174","","null","","","null","20","","","","","","","","","","","","","","","",""
"","ITI","","html-keyboard-response","138","163670","0.0-1.0-189.0","0","0","29174","","null","","","null","20","","","","","","","","","","","","","","","NaN",""
"","S1","","html-keyboard-response","139","163926","0.0-1.0-191.0","0","0","29174","","null","","","null","21","","","","","","","","","","","","","","","",""
"","ISI","","html-keyboard-response","140","164438","0.0-1.0-192.0","0","0","29174","","null","","","null","21","NaN","","","","","","","","","","","","","","",""
"","S2","","html-keyboard-response","141","164694","0.0-1.0-193.0","0","0","29174","","null","","","null","21","","NaN","","","","","","","","","","","","","",""
"","response","","html-keyboard-response","142","164936","0.0-1.0-194.0-0.0","0","0","29174","","239","","","75","21","","","1","21","training","adjacent","GF","7","6","M.jpg","N.jpg","0","0","1","",""
"","feedback","","html-keyboard-response","143","165942","0.0-1.0-195.0-0.0","0","0","29174","","null","","","null","21","","","","","","","","","","","","","","","",""
"","ITI","","html-keyboard-response","144","166951","0.0-1.0-198.0","0","0","29174","","null","","","null","21","","","","","","","","","","","","","","","NaN",""
"","S1","","html-keyboard-response","145","167206","0.0-1.0-200.0","0","0","29174","","null","","","null","22","","","","","","","","","","","","","","","",""
"","ISI","","html-keyboard-response","146","167718","0.0-1.0-201.0","0","0","29174","","null","","","null","22","NaN","","","","","","","","","","","","","","",""
"","S2","","html-keyboard-response","147","167974","0.0-1.0-202.0","0","0","29174","","null","","","null","22","","NaN","","","","","","","","","","","","","",""
"","response","","html-keyboard-response","148","168014","0.0-1.0-203.0-0.0","0","0","29174","","38","","","68","22","","","1","22","training","adjacent","FG","6","7","N.jpg","M.jpg","1","1","1","",""
"","feedback","","html-keyboard-response","149","169025","0.0-1.0-204.0-0.0","0","0","29174","","null","","","null","22","","","","","","","","","","","","","","","",""
"","ITI","","html-keyboard-response","150","170032","0.0-1.0-207.0","0","0","29174","","null","","","null","22","","","","","","","","","","","","","","","NaN",""
"","S1","","html-keyboard-response","151","170294","0.0-1.0-209.0","0","0","29174","","null","","","null","23","","","","","","","","","","","","","","","",""
"","ISI","","html-keyboard-response","152","170806","0.0-1.0-210.0","0","0","29174","","null","","","null","23","NaN","","","","","","","","","","","","","","",""
"","S2","","html-keyboard-response","153","171062","0.0-1.0-211.0","0","0","29174","","null","","","null","23","","NaN","","","","","","","","","","","","","",""
"","response","","html-keyboard-response","154","171068","0.0-1.0-212.0-0.0","0","0","29174","","3","","","75","23","","","1","23","training","adjacent","DE","4","5","L.jpg","P.jpg","0","1","0","",""
"","feedback","","html-keyboard-response","155","172081","0.0-1.0-213.0-0.0","0","0","29174","","null","","","null","23","","","","","","","","","","","","","","","",""
"","time_out","","html-keyboard-response","156","174087","0.0-1.0-215.0-0.0","0","0","29174","","null","","","null","23","","","","","","","","","","","","","","","",""
"","ITI","","html-keyboard-response","157","175094","0.0-1.0-216.0","0","0","29174","","null","","","null","23","","","","","","","","","","","","","","","NaN",""
"","S1","","html-keyboard-response","158","175350","0.0-1.0-218.0","0","0","29174","","null","","","null","24","","","","","","","","","","","","","","","",""
"","ISI","","html-keyboard-response","159","175862","0.0-1.0-219.0","0","0","29174","","null","","","null","24","NaN","","","","","","","","","","","","","","",""
"","S2","","html-keyboard-response","160","176118","0.0-1.0-220.0","0","0","29174","","null","","","null","24","","NaN","","","","","","","","","","","","","",""
"","response","","html-keyboard-response","161","176469","0.0-1.0-221.0-0.0","0","0","29174","","348","","","75","24","","","1","24","training","adjacent","DC","4","3","L.jpg","O.jpg","0","0","1","",""
"","feedback","","html-keyboard-response","162","177478","0.0-1.0-222.0-0.0","0","0","29174","","null","","","null","24","","","","","","","","","","","","","","","",""
"","ITI","","html-keyboard-response","163","178486","0.0-1.0-225.0","0","0","29174","","null","","","null","24","","","","","","","","","","","","","","","NaN",""
"","S1","","html-keyboard-response","164","178742","0.0-1.0-227.0","0","0","29174","","null","","","null","25","","","","","","","","","","","","","","","",""
"","ISI","","html-keyboard-response","165","179254","0.0-1.0-228.0","0","0","29174","","null","","","null","25","NaN","","","","","","","","","","","","","","",""
"","S2","","html-keyboard-response","166","179510","0.0-1.0-229.0","0","0","29174","","null","","","null","25","","NaN","","","","","","","","","","","","","",""
"","response","","html-keyboard-response","167","179904","0.0-1.0-230.0-0.0","0","0","29174","","392","","","68","25","","","1","25","training","adjacent","CB","3","2","O.jpg","Q.jpg","1","0","0","",""
"","feedback","","html-keyboard-response","168","180913","0.0-1.0-231.0-0.0","0","0","29174","","null","","","null","25","","","","","","","","","","","","","","","",""
"","time_out","","html-keyboard-response","169","182918","0.0-1.0-233.0-0.0","0","0","29174","","null","","","null","25","","","","","","","","","","","","","","","",""
"","ITI","","html-keyboard-response","170","183926","0.0-1.0-234.0","0","0","29174","","null","","","null","25","","","","","","","","","","","","","","","NaN",""
"","S1","","html-keyboard-response","171","184182","0.0-1.0-236.0","0","0","29174","","null","","","null","26","","","","","","","","","","","","","","","",""
"","ISI","","html-keyboard-response","172","184694","0.0-1.0-237.0","0","0","29174","","null","","","null","26","NaN","","","","","","","","","","","","","","",""
"","S2","","html-keyboard-response","173","184950","0.0-1.0-238.0","0","0","29174","","null","","","null","26","","NaN","","","","","","","","","","","","","",""
"","response","","html-keyboard-response","174","185288","0.0-1.0-239.0-0.0","0","0","29174","","335","","","75","26","","","1","26","training","adjacent","CD","3","4","O.jpg","L.jpg","0","1","0","",""
"","feedback","","html-keyboard-response","175","186294","0.0-1.0-240.0-0.0","0","0","29174","","null","","","null","26","","","","","","","","","","","","","","","",""
"","time_out","","html-keyboard-response","176","188305","0.0-1.0-242.0-0.0","0","0","29174","","null","","","null","26","","","","","","","","","","","","","","","",""
"","ITI","","html-keyboard-response","177","189313","0.0-1.0-243.0","0","0","29174","","null","","","null","26","","","","","","","","","","","","","","","NaN",""
"","S1","","html-keyboard-response","178","189574","0.0-1.0-245.0","0","0","29174","","null","","","null","27","","","","","","","","","","","","","","","",""
"","ISI","","html-keyboard-response","179","190086","0.0-1.0-246.0","0","0","29174","","null","","","null","27","NaN","","","","","","","","","","","","","","",""
"","S2","","html-keyboard-response","180","190342","0.0-1.0-247.0","0","0","29174","","null","","","null","27","","NaN","","","","","","","","","","","","","",""
"","response","","html-keyboard-response","181","190609","0.0-1.0-248.0-0.0","0","0","29174","","264","","","68","27","","","1","27","training","adjacent","BC","2","3","Q.jpg","O.jpg","1","1","1","",""
"","feedback","","html-keyboard-response","182","191617","0.0-1.0-249.0-0.0","0","0","29174","","null","","","null","27","","","","","","","","","","","","","","","",""
"","ITI","","html-keyboard-response","183","192625","0.0-1.0-252.0","0","0","29174","","null","","","null","27","","","","","","","","","","","","","","","NaN",""
"","S1","","html-keyboard-response","184","192887","0.0-1.0-254.0","0","0","29174","","null","","","null","28","","","","","","","","","","","","","","","",""
"","ISI","","html-keyboard-response","185","193398","0.0-1.0-255.0","0","0","29174","","null","","","null","28","NaN","","","","","","","","","","","","","","",""
"","S2","","html-keyboard-response","186","193654","0.0-1.0-256.0","0","0","29174","","null","","","null","28","","NaN","","","","","","","","","","","","","",""
"","response","","html-keyboard-response","187","193919","0.0-1.0-257.0-0.0","0","0","29174","","262","","","68","28","","","1","28","training","adjacent","BC","2","3","Q.jpg","O.jpg","1","1","1","",""
"","feedback","","html-keyboard-response","188","194929","0.0-1.0-258.0-0.0","0","0","29174","","null","","","null","28","","","","","","","","","","","","","","","",""
"","ITI","","html-keyboard-response","189","195937","0.0-1.0-261.0","0","0","29174","","null","","","null","28","","","","","","","","","","","","","","","NaN",""
"","S1","","html-keyboard-response","190","196198","0.0-1.0-263.0","0","0","29174","","null","","","null","29","","","","","","","","","","","","","","","",""
"","ISI","","html-keyboard-response","191","196710","0.0-1.0-264.0","0","0","29174","","null","","","null","29","NaN","","","","","","","","","","","","","","",""
"","S2","","html-keyboard-response","192","196966","0.0-1.0-265.0","0","0","29174","","null","","","null","29","","NaN","","","","","","","","","","","","","",""
"","response","","html-keyboard-response","193","197245","0.0-1.0-266.0-0.0","0","0","29174","","276","","","75","29","","","1","29","training","adjacent","ED","5","4","P.jpg","L.jpg","0","0","1","",""
"","feedback","","html-keyboard-response","194","198257","0.0-1.0-267.0-0.0","0","0","29174","","null","","","null","29","","","","","","","","","","","","","","","",""
"","ITI","","html-keyboard-response","195","199264","0.0-1.0-270.0","0","0","29174","","null","","","null","29","","","","","","","","","","","","","","","NaN",""
"","S1","","html-keyboard-response","196","199526","0.0-1.0-272.0","0","0","29174","","null","","","null","30","","","","","","","","","","","","","","","",""
"","ISI","","html-keyboard-response","197","200038","0.0-1.0-273.0","0","0","29174","","null","","","null","30","NaN","","","","","","","","","","","","","","",""
"","S2","","html-keyboard-response","198","200294","0.0-1.0-274.0","0","0","29174","","null","","","null","30","","NaN","","","","","","","","","","","","","",""
"","response","","html-keyboard-response","199","200598","0.0-1.0-275.0-0.0","0","0","29174","","301","","","75","30","","","1","30","training","adjacent","GF","7","6","M.jpg","N.jpg","0","0","1","",""
"","feedback","","html-keyboard-response","200","201606","0.0-1.0-276.0-0.0","0","0","29174","","null","","","null","30","","","","","","","","","","","","","","","",""
"","ITI","","html-keyboard-response","201","202614","0.0-1.0-279.0","0","0","29174","","null","","","null","30","","","","","","","","","","","","","","","NaN",""
"","S1","","html-keyboard-response","202","202871","0.0-1.0-281.0","0","0","29174","","null","","","null","31","","","","","","","","","","","","","","","",""
"","ISI","","html-keyboard-response","203","203382","0.0-1.0-282.0","0","0","29174","","null","","","null","31","NaN","","","","","","","","","","","","","","",""
"","S2","","html-keyboard-response","204","203638","0.0-1.0-283.0","0","0","29174","","null","","","null","31","","NaN","","","","","","","","","","","","","",""
"","response","","html-keyboard-response","205","203960","0.0-1.0-284.0-0.0","0","0","29174","","320","","","68","31","","","1","31","training","adjacent","DE","4","5","L.jpg","P.jpg","1","1","1","",""
"","feedback","","html-keyboard-response","206","204966","0.0-1.0-285.0-0.0","0","0","29174","","null","","","null","31","","","","","","","","","","","","","","","",""
"","ITI","","html-keyboard-response","207","205974","0.0-1.0-288.0","0","0","29174","","null","","","null","31","","","","","","","","","","","","","","","NaN",""
"","S1","","html-keyboard-response","208","206230","0.0-1.0-290.0","0","0","29174","","null","","","null","32","","","","","","","","","","","","","","","",""
"","ISI","","html-keyboard-response","209","206742","0.0-1.0-291.0","0","0","29174","","null","","","null","32","NaN","","","","","","","","","","","","","","",""
"","S2","","html-keyboard-response","210","207000","0.0-1.0-292.0","0","0","29174","","null","","","null","32","","NaN","","","","","","","","","","","","","",""
"","response","","html-keyboard-response","211","207398","0.0-1.0-293.0-0.0","0","0","29174","","395","","","68","32","","","1","32","training","adjacent","ED","5","4","P.jpg","L.jpg","1","0","0","",""
"","feedback","","html-keyboard-response","212","208406","0.0-1.0-294.0-0.0","0","0","29174","","null","","","null","32","","","","","","","","","","","","","","","",""
"","time_out","","html-keyboard-response","213","210417","0.0-1.0-296.0-0.0","0","0","29174","","null","","","null","32","","","","","","","","","","","","","","","",""
"","ITI","","html-keyboard-response","214","211424","0.0-1.0-297.0","0","0","29174","","null","","","null","32","","","","","","","","","","","","","","","NaN",""
"","S1","","html-keyboard-response","215","211686","0.0-1.0-299.0","0","0","29174","","null","","","null","33","","","","","","","","","","","","","","","",""
"","ISI","","html-keyboard-response","216","212198","0.0-1.0-300.0","0","0","29174","","null","","","null","33","NaN","","","","","","","","","","","","","","",""
"","S2","","html-keyboard-response","217","212454","0.0-1.0-301.0","0","0","29174","","null","","","null","33","","NaN","","","","","","","","","","","","","",""
"","response","","html-keyboard-response","218","212762","0.0-1.0-302.0-0.0","0","0","29174","","305","","","75","33","","","1","33","training","adjacent","BC","2","3","Q.jpg","O.jpg","0","1","0","",""
"","feedback","","html-keyboard-response","219","213777","0.0-1.0-303.0-0.0","0","0","29174","","null","","","null","33","","","","","","","","","","","","","","","",""
"","time_out","","html-keyboard-response","220","215782","0.0-1.0-305.0-0.0","0","0","29174","","null","","","null","33","","","","","","","","","","","","","","","",""
"","ITI","","html-keyboard-response","221","216791","0.0-1.0-306.0","0","0","29174","","null","","","null","33","","","","","","","","","","","","","","","NaN",""
"","S1","","html-keyboard-response","222","217046","0.0-1.0-308.0","0","0","29174","","null","","","null","34","","","","","","","","","","","","","","","",""
"","ISI","","html-keyboard-response","223","217559","0.0-1.0-309.0","0","0","29174","","null","","","null","34","NaN","","","","","","","","","","","","","","",""
"","S2","","html-keyboard-response","224","217814","0.0-1.0-310.0","0","0","29174","","null","","","null","34","","NaN","","","","","","","","","","","","","",""
"","response","","html-keyboard-response","225","218073","0.0-1.0-311.0-0.0","0","0","29174","","257","","","68","34","","","1","34","training","adjacent","DC","4","3","L.jpg","O.jpg","1","0","0","",""
"","feedback","","html-keyboard-response","226","219089","0.0-1.0-312.0-0.0","0","0","29174","","null","","","null","34","","","","","","","","","","","","","","","",""
"","time_out","","html-keyboard-response","227","221094","0.0-1.0-314.0-0.0","0","0","29174","","null","","","null","34","","","","","","","","","","","","","","","",""
"","ITI","","html-keyboard-response","228","222103","0.0-1.0-315.0","0","0","29174","","null","","","null","34","","","","","","","","","","","","","","","NaN",""
"","S1","","html-keyboard-response","229","222358","0.0-1.0-317.0","0","0","29174","","null","","","null","35","","","","","","","","","","","","","","","",""
"","ISI","","html-keyboard-response","230","222870","0.0-1.0-318.0","0","0","29174","","null","","","null","35","NaN","","","","","","","","","","","","","","",""
"","S2","","html-keyboard-response","231","223002","0.0-1.0-319.0","0","0","29174","","129","","","75","35","","k","1","35","training","adjacent","CD","3","4","O.jpg","L.jpg","0","1","0","",""
"","feedback","","html-keyboard-response","232","224017","0.0-1.0-321.0-0.0","0","0","29174","","null","","","null","35","","","","","","","","","","","","","","","",""
"","time_out","","html-keyboard-response","233","226023","0.0-1.0-323.0-0.0","0","0","29174","","null","","","null","35","","","","","","","","","","","","","","","",""
"","ITI","","html-keyboard-response","234","227030","0.0-1.0-324.0","0","0","29174","","null","","","null","35","","","","","","","","","","","","","","","NaN",""
"","S1","","html-keyboard-response","235","227286","0.0-1.0-326.0","0","0","29174","","null","","","null","36","","","","","","","","","","","","","","","",""
"","ISI","","html-keyboard-response","236","227798","0.0-1.0-327.0","0","0","29174","","null","","","null","36","NaN","","","","","","","","","","","","","","",""
"","S2","","html-keyboard-response","237","228055","0.0-1.0-328.0","0","0","29174","","null","","","null","36","","NaN","","","","","","","","","","","","","",""
"","response","","html-keyboard-response","238","228362","0.0-1.0-329.0-0.0","0","0","29174","","305","","","68","36","","","1","36","training","adjacent","AB","1","2","R.jpg","Q.jpg","1","1","1","",""
"","feedback","","html-keyboard-response","239","229366","0.0-1.0-330.0-0.0","0","0","29174","","null","","","null","36","","","","","","","","","","","","","","","",""
"","ITI","","html-keyboard-response","240","230374","0.0-1.0-333.0","0","0","29174","","null","","","null","36","","","","","","","","","","","","","","","NaN",""
"","S1","","html-keyboard-response","241","230631","0.0-1.0-335.0","0","0","29174","","null","","","null","37","","","","","","","","","","","","","","","",""
"","ISI","","html-keyboard-response","242","231142","0.0-1.0-336.0","0","0","29174","","null","","","null","37","NaN","","","","","","","","","","","","","","",""
"","S2","","html-keyboard-response","243","231398","0.0-1.0-337.0","0","0","29174","","null","","","null","37","","NaN","","","","","","","","","","","","","",""
"","response","","html-keyboard-response","244","231692","0.0-1.0-338.0-0.0","0","0","29174","","290","","","68","37","","","1","37","training","adjacent","EF","5","6","P.jpg","N.jpg","1","1","1","",""
"","feedback","","html-keyboard-response","245","232705","0.0-1.0-339.0-0.0","0","0","29174","","null","","","null","37","","","","","","","","","","","","","","","",""
"","ITI","","html-keyboard-response","246","233713","0.0-1.0-342.0","0","0","29174","","null","","","null","37","","","","","","","","","","","","","","","NaN",""
"","S1","","html-keyboard-response","247","233974","0.0-1.0-344.0","0","0","29174","","null","","","null","38","","","","","","","","","","","","","","","",""
"","ISI","","html-keyboard-response","248","234487","0.0-1.0-345.0","0","0","29174","","null","","","null","38","NaN","","","","","","","","","","","","","","",""
"","S2","","html-keyboard-response","249","234742","0.0-1.0-346.0","0","0","29174","","null","","","null","38","","NaN","","","","","","","","","","","","","",""
"","response","","html-keyboard-response","250","234987","0.0-1.0-347.0-0.0","0","0","29174","","242","","","68","38","","","1","38","training","adjacent","GF","7","6","M.jpg","N.jpg","1","0","0","",""
"","feedback","","html-keyboard-response","251","236001","0.0-1.0-348.0-0.0","0","0","29174","","null","","","null","38","","","","","","","","","","","","","","","",""
"","time_out","","html-keyboard-response","252","238006","0.0-1.0-350.0-0.0","0","0","29174","","null","","","null","38","","","","","","","","","","","","","","","",""
"","ITI","","html-keyboard-response","253","239014","0.0-1.0-351.0","0","0","29174","","null","","","null","38","","","","","","","","","","","","","","","NaN",""
"","S1","","html-keyboard-response","254","239270","0.0-1.0-353.0","0","0","29174","","null","","","null","39","","","","","","","","","","","","","","","",""
"","ISI","","html-keyboard-response","255","239783","0.0-1.0-354.0","0","0","29174","","null","","","null","39","NaN","","","","","","","","","","","","","","",""
"","S2","","html-keyboard-response","256","240038","0.0-1.0-355.0","0","0","29174","","null","","","null","39","","NaN","","","","","","","","","","","","","",""
"","response","","html-keyboard-response","257","240297","0.0-1.0-356.0-0.0","0","0","29174","","256","","","75","39","","","1","39","training","adjacent","EF","5","6","P.jpg","N.jpg","0","1","0","",""
"","feedback","","html-keyboard-response","258","241302","0.0-1.0-357.0-0.0","0","0","29174","","null","","","null","39","","","","","","","","","","","","","","","",""
"","time_out","","html-keyboard-response","259","243313","0.0-1.0-359.0-0.0","0","0","29174","","null","","","null","39","","","","","","","","","","","","","","","",""
"","ITI","","html-keyboard-response","260","244321","0.0-1.0-360.0","0","0","29174","","null","","","null","39","","","","","","","","","","","","","","","NaN",""
"","S1","","html-keyboard-response","261","244582","0.0-1.0-362.0","0","0","29174","","null","","","null","40","","","","","","","","","","","","","","","",""
"","ISI","","html-keyboard-response","262","245094","0.0-1.0-363.0","0","0","29174","","null","","","null","40","NaN","","","","","","","","","","","","","","",""
"","S2","","html-keyboard-response","263","245350","0.0-1.0-364.0","0","0","29174","","null","","","null","40","","NaN","","","","","","","","","","","","","",""
"","response","","html-keyboard-response","264","245616","0.0-1.0-365.0-0.0","0","0","29174","","263","","","68","40","","","1","40","training","adjacent","GF","7","6","M.jpg","N.jpg","1","0","0","",""
"","feedback","","html-keyboard-response","265","246625","0.0-1.0-366.0-0.0","0","0","29174","","null","","","null","40","","","","","","","","","","","","","","","",""
"","time_out","","html-keyboard-response","266","248631","0.0-1.0-368.0-0.0","0","0","29174","","null","","","null","40","","","","","","","","","","","","","","","",""
"","ITI","","html-keyboard-response","267","249638","0.0-1.0-369.0","0","0","29174","","null","","","null","40","","","","","","","","","","","","","","","NaN",""
"","S1","","html-keyboard-response","268","249894","0.0-1.0-371.0","0","0","29174","","null","","","null","41","","","","","","","","","","","","","","","",""
"","ISI","","html-keyboard-response","269","250406","0.0-1.0-372.0","0","0","29174","","null","","","null","41","NaN","","","","","","","","","","","","","","",""
"","S2","","html-keyboard-response","270","250662","0.0-1.0-373.0","0","0","29174","","null","","","null","41","","NaN","","","","","","","","","","","","","",""
"","response","","html-keyboard-response","271","250761","0.0-1.0-374.0-0.0","0","0","29174","","96","","","75","41","","","1","41","training","adjacent","FG","6","7","N.jpg","M.jpg","0","1","0","",""
"","feedback","","html-keyboard-response","272","251766","0.0-1.0-375.0-0.0","0","0","29174","","null","","","null","41","","","","","","","","","","","","","","","",""
"","time_out","","html-keyboard-response","273","253777","0.0-1.0-377.0-0.0","0","0","29174","","null","","","null","41","","","","","","","","","","","","","","","",""
"","ITI","","html-keyboard-response","274","254785","0.0-1.0-378.0","0","0","29174","","null","","","null","41","","","","","","","","","","","","","","","NaN",""
"","S1","","html-keyboard-response","275","255046","0.0-1.0-380.0","0","0","29174","","null","","","null","42","","","","","","","","","","","","","","","",""
"","ISI","","html-keyboard-response","276","255558","0.0-1.0-381.0","0","0","29174","","null","","","null","42","NaN","","","","","","","","","","","","","","",""
"","S2","","html-keyboard-response","277","255814","0.0-1.0-382.0","0","0","29174","","null","","","null","42","","NaN","","","","","","","","","","","","","",""
"","response","","html-keyboard-response","278","256073","0.0-1.0-383.0-0.0","0","0","29174","","256","","","68","42","","","1","42","training","adjacent","BA","2","1","Q.jpg","R.jpg","1","0","0","",""
"","feedback","","html-keyboard-response","279","257078","0.0-1.0-384.0-0.0","0","0","29174","","null","","","null","42","","","","","","","","","","","","","","","",""
"","time_out","","html-keyboard-response","280","259089","0.0-1.0-386.0-0.0","0","0","29174","","null","","","null","42","","","","","","","","","","","","","","","",""
"","ITI","","html-keyboard-response","281","260097","0.0-1.0-387.0","0","0","29174","","null","","","null","42","","","","","","","","","","","","","","","NaN",""
"","S1","","html-keyboard-response","282","260358","0.0-1.0-389.0","0","0","29174","","null","","","null","43","","","","","","","","","","","","","","","",""
"","ISI","","html-keyboard-response","283","260870","0.0-1.0-390.0","0","0","29174","","132","","","75","43","k","","","","","","","","","","","","","","",""
"","S2","","html-keyboard-response","284","261126","0.0-1.0-391.0","0","0","29174","","null","","","null","43","","NaN","","","","","","","","","","","","","",""
"","response","","html-keyboard-response","285","261402","0.0-1.0-392.0-0.0","0","0","29174","","273","","","75","43","","","1","43","training","adjacent","CD","3","4","O.jpg","L.jpg","0","1","0","",""
"","feedback","","html-keyboard-response","286","262417","0.0-1.0-393.0-0.0","0","0","29174","","null","","","null","43","","","","","","","","","","","","","","","",""
"","time_out","","html-keyboard-response","287","264423","0.0-1.0-395.0-0.0","0","0","29174","","null","","","null","43","","","","","","","","","","","","","","","",""
"","ITI","","html-keyboard-response","288","265430","0.0-1.0-396.0","0","0","29174","","null","","","null","43","","","","","","","","","","","","","","","NaN",""
"","S1","","html-keyboard-response","289","265686","0.0-1.0-398.0","0","0","29174","","null","","","null","44","","","","","","","","","","","","","","","",""
"","ISI","","html-keyboard-response","290","266199","0.0-1.0-399.0","0","0","29174","","null","","","null","44","NaN","","","","","","","","","","","","","","",""
"","S2","","html-keyboard-response","291","266454","0.0-1.0-400.0","0","0","29174","","null","","","null","44","","NaN","","","","","","","","","","","","","",""
"","response","","html-keyboard-response","292","266810","0.0-1.0-401.0-0.0","0","0","29174","","354","","","68","44","","","1","44","training","adjacent","EF","5","6","P.jpg","N.jpg","1","1","1","",""
"","feedback","","html-keyboard-response","293","267825","0.0-1.0-402.0-0.0","0","0","29174","","null","","","null","44","","","","","","","","","","","","","","","",""
"","ITI","","html-keyboard-response","294","268833","0.0-1.0-405.0","0","0","29174","","null","","","null","44","","","","","","","","","","","","","","","NaN",""
"","S1","","html-keyboard-response","295","269094","0.0-1.0-407.0","0","0","29174","","null","","","null","45","","","","","","","","","","","","","","","",""
"","ISI","","html-keyboard-response","296","269606","0.0-1.0-408.0","0","0","29174","","null","","","null","45","NaN","","","","","","","","","","","","","","",""
"","S2","","html-keyboard-response","297","269862","0.0-1.0-409.0","0","0","29174","","null","","","null","45","","NaN","","","","","","","","","","","","","",""
"","response","","html-keyboard-response","298","270195","0.0-1.0-410.0-0.0","0","0","29174","","330","","","75","45","","","1","45","training","adjacent","AB","1","2","R.jpg","Q.jpg","0","1","0","",""
"","feedback","","html-keyboard-response","299","271206","0.0-1.0-411.0-0.0","0","0","29174","","null","","","null","45","","","","","","","","","","","","","","","",""
"","time_out","","html-keyboard-response","300","273217","0.0-1.0-413.0-0.0","0","0","29174","","null","","","null","45","","","","","","","","","","","","","","","",""
"","ITI","","html-keyboard-response","301","274225","0.0-1.0-414.0","0","0","29174","","null","","","null","45","","","","","","","","","","","","","","","NaN",""
"","S1","","html-keyboard-response","302","274486","0.0-1.0-416.0","0","0","29174","","null","","","null","46","","","","","","","","","","","","","","","",""
"","ISI","","html-keyboard-response","303","274998","0.0-1.0-417.0","0","0","29174","","null","","","null","46","NaN","","","","","","","","","","","","","","",""
"","S2","","html-keyboard-response","304","275254","0.0-1.0-418.0","0","0","29174","","null","","","null","46","","NaN","","","","","","","","","","","","","",""
"","response","","html-keyboard-response","305","275740","0.0-1.0-419.0-0.0","0","0","29174","","483","","","68","46","","","1","46","training","adjacent","AB","1","2","R.jpg","Q.jpg","1","1","1","",""
"","feedback","","html-keyboard-response","306","276750","0.0-1.0-420.0-0.0","0","0","29174","","null","","","null","46","","","","","","","","","","","","","","","",""
"","ITI","","html-keyboard-response","307","277761","0.0-1.0-423.0","0","0","29174","","null","","","null","46","","","","","","","","","","","","","","","NaN",""
"","S1","","html-keyboard-response","308","278022","0.0-1.0-425.0","0","0","29174","","null","","","null","47","","","","","","","","","","","","","","","",""
"","ISI","","html-keyboard-response","309","278537","0.0-1.0-426.0","0","0","29174","","null","","","null","47","NaN","","","","","","","","","","","","","","",""
"","S2","","html-keyboard-response","310","278801","0.0-1.0-427.0","0","0","29174","","null","","","null","47","","NaN","","","","","","","","","","","","","",""
"","response","","html-keyboard-response","311","279201","0.0-1.0-428.0-0.0","0","0","29174","","397","","","68","47","","","1","47","training","adjacent","ED","5","4","P.jpg","L.jpg","1","0","0","",""
"","feedback","","html-keyboard-response","312","280209","0.0-1.0-429.0-0.0","0","0","29174","","null","","","null","47","","","","","","","","","","","","","","","",""
"","time_out","","html-keyboard-response","313","282214","0.0-1.0-431.0-0.0","0","0","29174","","null","","","null","47","","","","","","","","","","","","","","","",""
"","ITI","","html-keyboard-response","314","283222","0.0-1.0-432.0","0","0","29174","","null","","","null","47","","","","","","","","","","","","","","","NaN",""
"","block_over","","html-keyboard-response","315","287663","0.0-1.0-433.0-0.0","0","0","29174","","4437","","","32","47","","","","","","","","","","","","","","","",""
"","S1","","html-keyboard-response","316","287921","0.0-1.0-434.0","0","0","29174","","null","","","null","48","","","","","","","","","","","","","","","",""
"","ISI","","html-keyboard-response","317","288433","0.0-1.0-435.0","0","0","29174","","null","","","null","48","NaN","","","","","","","","","","","","","","",""
"","S2","","html-keyboard-response","318","288694","0.0-1.0-436.0","0","0","29174","","null","","","null","48","","NaN","","","","","","","","","","","","","",""
"","response","","html-keyboard-response","319","289039","0.0-1.0-437.0-0.0","0","0","29174","","342","","","75","48","","","2","48","training","adjacent","CD","3","4","O.jpg","L.jpg","0","1","0","",""
"","feedback","","html-keyboard-response","320","290049","0.0-1.0-438.0-0.0","0","0","29174","","null","","","null","48","","","","","","","","","","","","","","","",""
"","time_out","","html-keyboard-response","321","292054","0.0-1.0-440.0-0.0","0","0","29174","","null","","","null","48","","","","","","","","","","","","","","","",""
"","ITI","","html-keyboard-response","322","293063","0.0-1.0-441.0","0","0","29174","","null","","","null","48","","","","","","","","","","","","","","","NaN",""
"","S1","","html-keyboard-response","323","293318","0.0-1.0-443.0","0","0","29174","","null","","","null","49","","","","","","","","","","","","","","","",""
"","ISI","","html-keyboard-response","324","293830","0.0-1.0-444.0","0","0","29174","","null","","","null","49","NaN","","","","","","","","","","","","","","",""
"","S2","","html-keyboard-response","325","294086","0.0-1.0-445.0","0","0","29174","","null","","","null","49","","NaN","","","","","","","","","","","","","",""
"","response","","html-keyboard-response","326","294496","0.0-1.0-446.0-0.0","0","0","29174","","407","","","75","49","","","2","49","training","adjacent","FG","6","7","N.jpg","M.jpg","0","1","0","",""
"","feedback","","html-keyboard-response","327","295505","0.0-1.0-447.0-0.0","0","0","29174","","null","","","null","49","","","","","","","","","","","","","","","",""
"","time_out","","html-keyboard-response","328","297511","0.0-1.0-449.0-0.0","0","0","29174","","null","","","null","49","","","","","","","","","","","","","","","",""
"","ITI","","html-keyboard-response","329","298518","0.0-1.0-450.0","0","0","29174","","null","","","null","49","","","","","","","","","","","","","","","NaN",""
"","S1","","html-keyboard-response","330","298774","0.0-1.0-452.0","0","0","29174","","null","","","null","50","","","","","","","","","","","","","","","",""
"","ISI","","html-keyboard-response","331","299286","0.0-1.0-453.0","0","0","29174","","null","","","null","50","NaN","","","","","","","","","","","","","","",""
"","S2","","html-keyboard-response","332","299542","0.0-1.0-454.0","0","0","29174","","null","","","null","50","","NaN","","","","","","","","","","","","","",""
"","response","","html-keyboard-response","333","299913","0.0-1.0-455.0-0.0","0","0","29174","","368","","","68","50","","","2","50","training","adjacent","ED","5","4","P.jpg","L.jpg","1","0","0","",""
"","feedback","","html-keyboard-response","334","300918","0.0-1.0-456.0-0.0","0","0","29174","","null","","","null","50","","","","","","","","","","","","","","","",""
"","time_out","","html-keyboard-response","335","302929","0.0-1.0-458.0-0.0","0","0","29174","","null","","","null","50","","","","","","","","","","","","","","","",""
"","ITI","","html-keyboard-response","336","303936","0.0-1.0-459.0","0","0","29174","","null","","","null","50","","","","","","","","","","","","","","","NaN",""
"","S1","","html-keyboard-response","337","304198","0.0-1.0-461.0","0","0","29174","","null","","","null","51","","","","","","","","","","","","","","","",""
"","ISI","","html-keyboard-response","338","304710","0.0-1.0-462.0","0","0","29174","","null","","","null","51","NaN","","","","","","","","","","","","","","",""
"","S2","","html-keyboard-response","339","304966","0.0-1.0-463.0","0","0","29174","","null","","","null","51","","NaN","","","","","","","","","","","","","",""
"","response","","html-keyboard-response","340","305285","0.0-1.0-464.0-0.0","0","0","29174","","316","","","68","51","","","2","51","training","adjacent","DC","4","3","L.jpg","O.jpg","1","0","0","",""
"","feedback","","html-keyboard-response","341","306294","0.0-1.0-465.0-0.0","0","0","29174","","null","","","null","51","","","","","","","","","","","","","","","",""
"","time_out","","html-keyboard-response","342","308305","0.0-1.0-467.0-0.0","0","0","29174","","null","","","null","51","","","","","","","","","","","","","","","",""
"","ITI","","html-keyboard-response","343","309312","0.0-1.0-468.0","0","0","29174","","null","","","null","51","","","","","","","","","","","","","","","NaN",""
"","S1","","html-keyboard-response","344","309575","0.0-1.0-470.0","0","0","29174","","null","","","null","52","","","","","","","","","","","","","","","",""
"","ISI","","html-keyboard-response","345","310086","0.0-1.0-471.0","0","0","29174","","null","","","null","52","NaN","","","","","","","","","","","","","","",""
"","S2","","html-keyboard-response","346","310342","0.0-1.0-472.0","0","0","29174","","null","","","null","52","","NaN","","","","","","","","","","","","","",""
"","response","","html-keyboard-response","347","310645","0.0-1.0-473.0-0.0","0","0","29174","","301","","","75","52","","","2","52","training","adjacent","DE","4","5","L.jpg","P.jpg","0","1","0","",""
"","feedback","","html-keyboard-response","348","311655","0.0-1.0-474.0-0.0","0","0","29174","","null","","","null","52","","","","","","","","","","","","","","","",""
"","time_out","","html-keyboard-response","349","313665","0.0-1.0-476.0-0.0","0","0","29174","","null","","","null","52","","","","","","","","","","","","","","","",""
"","ITI","","html-keyboard-response","350","314672","0.0-1.0-477.0","0","0","29174","","null","","","null","52","","","","","","","","","","","","","","","NaN",""
"","S1","","html-keyboard-response","351","314934","0.0-1.0-479.0","0","0","29174","","null","","","null","53","","","","","","","","","","","","","","","",""
"","ISI","","html-keyboard-response","352","315446","0.0-1.0-480.0","0","0","29174","","null","","","null","53","NaN","","","","","","","","","","","","","","",""
"","S2","","html-keyboard-response","353","315702","0.0-1.0-481.0","0","0","29174","","null","","","null","53","","NaN","","","","","","","","","","","","","",""
"","response","","html-keyboard-response","354","316061","0.0-1.0-482.0-0.0","0","0","29174","","356","","","75","53","","","2","53","training","adjacent","ED","5","4","P.jpg","L.jpg","0","0","1","",""
"","feedback","","html-keyboard-response","355","317073","0.0-1.0-483.0-0.0","0","0","29174","","null","","","null","53","","","","","","","","","","","","","","","",""
"","ITI","","html-keyboard-response","356","318081","0.0-1.0-486.0","0","0","29174","","null","","","null","53","","","","","","","","","","","","","","","NaN",""
"","S1","","html-keyboard-response","357","318342","0.0-1.0-488.0","0","0","29174","","null","","","null","54","","","","","","","","","","","","","","","",""
"","ISI","","html-keyboard-response","358","318854","0.0-1.0-489.0","0","0","29174","","null","","","null","54","NaN","","","","","","","","","","","","","","",""
"","S2","","html-keyboard-response","359","319110","0.0-1.0-490.0","0","0","29174","","null","","","null","54","","NaN","","","","","","","","","","","","","",""
"","response","","html-keyboard-response","360","319193","0.0-1.0-491.0-0.0","0","0","29174","","80","","","75","54","","","2","54","training","adjacent","DC","4","3","L.jpg","O.jpg","0","0","1","",""
"","feedback","","html-keyboard-response","361","320198","0.0-1.0-492.0-0.0","0","0","29174","","null","","","null","54","","","","","","","","","","","","","","","",""
"","ITI","","html-keyboard-response","362","321206","0.0-1.0-495.0","0","0","29174","","null","","","null","54","","","","","","","","","","","","","","","NaN",""
"","S1","","html-keyboard-response","363","321462","0.0-1.0-497.0","0","0","29174","","null","","","null","55","","","","","","","","","","","","","","","",""
"","ISI","","html-keyboard-response","364","321974","0.0-1.0-498.0","0","0","29174","","null","","","null","55","NaN","","","","","","","","","","","","","","",""
"","S2","","html-keyboard-response","365","322230","0.0-1.0-499.0","0","0","29174","","null","","","null","55","","NaN","","","","","","","","","","","","","",""
"","response","","html-keyboard-response","366","322467","0.0-1.0-500.0-0.0","0","0","29174","","234","","","75","55","","","2","55","training","adjacent","DC","4","3","L.jpg","O.jpg","0","0","1","",""
"","feedback","","html-keyboard-response","367","323478","0.0-1.0-501.0-0.0","0","0","29174","","null","","","null","55","","","","","","","","","","","","","","","",""
"","ITI","","html-keyboard-response","368","324487","0.0-1.0-504.0","0","0","29174","","null","","","null","55","","","","","","","","","","","","","","","NaN",""
"","S1","","html-keyboard-response","369","324742","0.0-1.0-506.0","0","0","29174","","null","","","null","56","","","","","","","","","","","","","","","",""
"","ISI","","html-keyboard-response","370","325254","0.0-1.0-507.0","0","0","29174","","null","","","null","56","NaN","","","","","","","","","","","","","","",""
"","S2","","html-keyboard-response","371","325510","0.0-1.0-508.0","0","0","29174","","null","","","null","56","","NaN","","","","","","","","","","","","","",""
"","response","","html-keyboard-response","372","325791","0.0-1.0-509.0-0.0","0","0","29174","","279","","","75","56","","","2","56","training","adjacent","FG","6","7","N.jpg","M.jpg","0","1","0","",""
"","feedback","","html-keyboard-response","373","326801","0.0-1.0-510.0-0.0","0","0","29174","","null","","","null","56","","","","","","","","","","","","","","","",""
"","time_out","","html-keyboard-response","374","328806","0.0-1.0-512.0-0.0","0","0","29174","","null","","","null","56","","","","","","","","","","","","","","","",""
"","ITI","","html-keyboard-response","375","329814","0.0-1.0-513.0","0","0","29174","","null","","","null","56","","","","","","","","","","","","","","","NaN",""
"","S1","","html-keyboard-response","376","330070","0.0-1.0-515.0","0","0","29174","","null","","","null","57","","","","","","","","","","","","","","","",""
"","ISI","","html-keyboard-response","377","330582","0.0-1.0-516.0","0","0","29174","","null","","","null","57","NaN","","","","","","","","","","","","","","",""
"","S2","","html-keyboard-response","378","330838","0.0-1.0-517.0","0","0","29174","","null","","","null","57","","NaN","","","","","","","","","","","","","",""
"","response","","html-keyboard-response","379","331242","0.0-1.0-518.0-0.0","0","0","29174","","402","","","75","57","","","2","57","training","adjacent","BC","2","3","Q.jpg","O.jpg","0","1","0","",""
"","feedback","","html-keyboard-response","380","332257","0.0-1.0-519.0-0.0","0","0","29174","","null","","","null","57","","","","","","","","","","","","","","","",""
"","time_out","","html-keyboard-response","381","334262","0.0-1.0-521.0-0.0","0","0","29174","","null","","","null","57","","","","","","","","","","","","","","","",""
"","ITI","","html-keyboard-response","382","335270","0.0-1.0-522.0","0","0","29174","","null","","","null","57","","","","","","","","","","","","","","","NaN",""
"","S1","","html-keyboard-response","383","335527","0.0-1.0-524.0","0","0","29174","","null","","","null","58","","","","","","","","","","","","","","","",""
"","ISI","","html-keyboard-response","384","336038","0.0-1.0-525.0","0","0","29174","","null","","","null","58","NaN","","","","","","","","","","","","","","",""
"","S2","","html-keyboard-response","385","336294","0.0-1.0-526.0","0","0","29174","","null","","","null","58","","NaN","","","","","","","","","","","","","",""
"","response","","html-keyboard-response","386","336640","0.0-1.0-527.0-0.0","0","0","29174","","343","","","68","58","","","2","58","training","adjacent","FE","6","5","N.jpg","P.jpg","1","0","0","",""
"","feedback","","html-keyboard-response","387","337649","0.0-1.0-528.0-0.0","0","0","29174","","null","","","null","58","","","","","","","","","","","","","","","",""
"","time_out","","html-keyboard-response","388","339654","0.0-1.0-530.0-0.0","0","0","29174","","null","","","null","58","","","","","","","","","","","","","","","",""
"","ITI","","html-keyboard-response","389","340662","0.0-1.0-531.0","0","0","29174","","null","","","null","58","","","","","","","","","","","","","","","NaN",""
"","S1","","html-keyboard-response","390","340918","0.0-1.0-533.0","0","0","29174","","null","","","null","59","","","","","","","","","","","","","","","",""
"","ISI","","html-keyboard-response","391","341430","0.0-1.0-534.0","0","0","29174","","null","","","null","59","NaN","","","","","","","","","","","","","","",""
"","S2","","html-keyboard-response","392","341686","0.0-1.0-535.0","0","0","29174","","null","","","null","59","","NaN","","","","","","","","","","","","","",""
"","response","","html-keyboard-response","393","341975","0.0-1.0-536.0-0.0","0","0","29174","","286","","","75","59","","","2","59","training","adjacent","FG","6","7","N.jpg","M.jpg","0","1","0","",""
"","feedback","","html-keyboard-response","394","342982","0.0-1.0-537.0-0.0","0","0","29174","","null","","","null","59","","","","","","","","","","","","","","","",""
"","time_out","","html-keyboard-response","395","344993","0.0-1.0-539.0-0.0","0","0","29174","","null","","","null","59","","","","","","","","","","","","","","","",""
"","ITI","","html-keyboard-response","396","346001","0.0-1.0-540.0","0","0","29174","","null","","","null","59","","","","","","","","","","","","","","","NaN",""
"","S1","","html-keyboard-response","397","346262","0.0-1.0-542.0","0","0","29174","","null","","","null","60","","","","","","","","","","","","","","","",""
"","ISI","","html-keyboard-response","398","346774","0.0-1.0-543.0","0","0","29174","","null","","","null","60","NaN","","","","","","","","","","","","","","",""
"","S2","","html-keyboard-response","399","347031","0.0-1.0-544.0","0","0","29174","","null","","","null","60","","NaN","","","","","","","","","","","","","",""
"","response","","html-keyboard-response","400","348022","0.0-1.0-545.0-0.0","0","0","29174","","989","","","68","60","","","2","60","training","adjacent","CD","3","4","O.jpg","L.jpg","1","1","1","",""
"","feedback","","html-keyboard-response","401","349030","0.0-1.0-546.0-0.0","0","0","29174","","null","","","null","60","","","","","","","","","","","","","","","",""
"","ITI","","html-keyboard-response","402","350033","0.0-1.0-549.0","0","0","29174","","null","","","null","60","","","","","","","","","","","","","","","NaN",""
"","S1","","html-keyboard-response","403","350294","0.0-1.0-551.0","0","0","29174","","null","","","null","61","","","","","","","","","","","","","","","",""
"","ISI","","html-keyboard-response","404","350806","0.0-1.0-552.0","0","0","29174","","null","","","null","61","NaN","","","","","","","","","","","","","","",""
"","S2","","html-keyboard-response","405","351062","0.0-1.0-553.0","0","0","29174","","null","","","null","61","","NaN","","","","","","","","","","","","","",""
"","response","","html-keyboard-response","406","351648","0.0-1.0-554.0-0.0","0","0","29174","","583","","","68","61","","","2","61","training","adjacent","GF","7","6","M.jpg","N.jpg","1","0","0","",""
"","feedback","","html-keyboard-response","407","352657","0.0-1.0-555.0-0.0","0","0","29174","","null","","","null","61","","","","","","","","","","","","","","","",""
"","time_out","","html-keyboard-response","408","354662","0.0-1.0-557.0-0.0","0","0","29174","","null","","","null","61","","","","","","","","","","","","","","","",""
"","ITI","","html-keyboard-response","409","355671","0.0-1.0-558.0","0","0","29174","","null","","","null","61","","","","","","","","","","","","","","","NaN",""
"","S1","","html-keyboard-response","410","355926","0.0-1.0-560.0","0","0","29174","","null","","","null","62","","","","","","","","","","","","","","","",""
"","ISI","","html-keyboard-response","411","356438","0.0-1.0-561.0","0","0","29174","","null","","","null","62","NaN","","","","","","","","","","","","","","",""
"","S2","","html-keyboard-response","412","356694","0.0-1.0-562.0","0","0","29174","","null","","","null","62","","NaN","","","","","","","","","","","","","",""
"","response","","html-keyboard-response","413","357216","0.0-1.0-563.0-0.0","0","0","29174","","519","","","75","62","","","2","62","training","adjacent","AB","1","2","R.jpg","Q.jpg","0","1","0","",""
"","feedback","","html-keyboard-response","414","358225","0.0-1.0-564.0-0.0","0","0","29174","","null","","","null","62","","","","","","","","","","","","","","","",""
"","time_out","","html-keyboard-response","415","360230","0.0-1.0-566.0-0.0","0","0","29174","","null","","","null","62","","","","","","","","","","","","","","","",""
"","ITI","","html-keyboard-response","416","361238","0.0-1.0-567.0","0","0","29174","","null","","","null","62","","","","","","","","","","","","","","","NaN",""
"","S1","","html-keyboard-response","417","361495","0.0-1.0-569.0","0","0","29174","","null","","","null","63","","","","","","","","","","","","","","","",""
"","ISI","","html-keyboard-response","418","362006","0.0-1.0-570.0","0","0","29174","","null","","","null","63","NaN","","","","","","","","","","","","","","",""
"","S2","","html-keyboard-response","419","362262","0.0-1.0-571.0","0","0","29174","","null","","","null","63","","NaN","","","","","","","","","","","","","",""
"","response","","html-keyboard-response","420","362623","0.0-1.0-572.0-0.0","0","0","29174","","358","","","75","63","","","2","63","training","adjacent","BC","2","3","Q.jpg","O.jpg","0","1","0","",""
"","feedback","","html-keyboard-response","421","363633","0.0-1.0-573.0-0.0","0","0","29174","","null","","","null","63","","","","","","","","","","","","","","","",""
"","time_out","","html-keyboard-response","422","365638","0.0-1.0-575.0-0.0","0","0","29174","","null","","","null","63","","","","","","","","","","","","","","","",""
"","ITI","","html-keyboard-response","423","366647","0.0-1.0-576.0","0","0","29174","","null","","","null","63","","","","","","","","","","","","","","","NaN",""
"","S1","","html-keyboard-response","424","366903","0.0-1.0-578.0","0","0","29174","","null","","","null","64","","","","","","","","","","","","","","","",""
"","ISI","","html-keyboard-response","425","367414","0.0-1.0-579.0","0","0","29174","","null","","","null","64","NaN","","","","","","","","","","","","","","",""
"","S2","","html-keyboard-response","426","367670","0.0-1.0-580.0","0","0","29174","","null","","","null","64","","NaN","","","","","","","","","","","","","",""
"","response","","html-keyboard-response","427","368074","0.0-1.0-581.0-0.0","0","0","29174","","402","","","68","64","","","2","64","training","adjacent","GF","7","6","M.jpg","N.jpg","1","0","0","",""
"","feedback","","html-keyboard-response","428","369089","0.0-1.0-582.0-0.0","0","0","29174","","null","","","null","64","","","","","","","","","","","","","","","",""
"","time_out","","html-keyboard-response","429","371095","0.0-1.0-584.0-0.0","0","0","29174","","null","","","null","64","","","","","","","","","","","","","","","",""
"","ITI","","html-keyboard-response","430","372103","0.0-1.0-585.0","0","0","29174","","null","","","null","64","","","","","","","","","","","","","","","NaN",""
"","S1","","html-keyboard-response","431","372358","0.0-1.0-587.0","0","0","29174","","null","","","null","65","","","","","","","","","","","","","","","",""
"","ISI","","html-keyboard-response","432","372870","0.0-1.0-588.0","0","0","29174","","null","","","null","65","NaN","","","","","","","","","","","","","","",""
"","S2","","html-keyboard-response","433","373126","0.0-1.0-589.0","0","0","29174","","null","","","null","65","","NaN","","","","","","","","","","","","","",""
"","response","","html-keyboard-response","434","373516","0.0-1.0-590.0-0.0","0","0","29174","","388","","","75","65","","","2","65","training","adjacent","BA","2","1","Q.jpg","R.jpg","0","0","1","",""
"","feedback","","html-keyboard-response","435","374529","0.0-1.0-591.0-0.0","0","0","29174","","null","","","null","65","","","","","","","","","","","","","","","",""
"","ITI","","html-keyboard-response","436","375537","0.0-1.0-594.0","0","0","29174","","null","","","null","65","","","","","","","","","","","","","","","NaN",""
"","S1","","html-keyboard-response","437","375798","0.0-1.0-596.0","0","0","29174","","null","","","null","66","","","","","","","","","","","","","","","",""
"","ISI","","html-keyboard-response","438","376310","0.0-1.0-597.0","0","0","29174","","null","","","null","66","NaN","","","","","","","","","","","","","","",""
"","S2","","html-keyboard-response","439","376566","0.0-1.0-598.0","0","0","29174","","null","","","null","66","","NaN","","","","","","","","","","","","","",""
"","response","","html-keyboard-response","440","376968","0.0-1.0-599.0-0.0","0","0","29174","","399","","","75","66","","","2","66","training","adjacent","DE","4","5","L.jpg","P.jpg","0","1","0","",""
"","feedback","","html-keyboard-response","441","377974","0.0-1.0-600.0-0.0","0","0","29174","","null","","","null","66","","","","","","","","","","","","","","","",""
"","time_out","","html-keyboard-response","442","379985","0.0-1.0-602.0-0.0","0","0","29174","","null","","","null","66","","","","","","","","","","","","","","","",""
"","ITI","","html-keyboard-response","443","380993","0.0-1.0-603.0","0","0","29174","","null","","","null","66","","","","","","","","","","","","","","","NaN",""
"","S1","","html-keyboard-response","444","381254","0.0-1.0-605.0","0","0","29174","","null","","","null","67","","","","","","","","","","","","","","","",""
"","ISI","","html-keyboard-response","445","381766","0.0-1.0-606.0","0","0","29174","","null","","","null","67","NaN","","","","","","","","","","","","","","",""
"","S2","","html-keyboard-response","446","382022","0.0-1.0-607.0","0","0","29174","","null","","","null","67","","NaN","","","","","","","","","","","","","",""
"","response","","html-keyboard-response","447","382410","0.0-1.0-608.0-0.0","0","0","29174","","385","","","68","67","","","2","67","training","adjacent","CB","3","2","O.jpg","Q.jpg","1","0","0","",""
"","feedback","","html-keyboard-response","448","383425","0.0-1.0-609.0-0.0","0","0","29174","","null","","","null","67","","","","","","","","","","","","","","","",""
"","time_out","","html-keyboard-response","449","385430","0.0-1.0-611.0-0.0","0","0","29174","","null","","","null","67","","","","","","","","","","","","","","","",""
"","ITI","","html-keyboard-response","450","386439","0.0-1.0-612.0","0","0","29174","","null","","","null","67","","","","","","","","","","","","","","","NaN",""
"","S1","","html-keyboard-response","451","386697","0.0-1.0-614.0","0","0","29174","","null","","","null","68","","","","","","","","","","","","","","","",""
"","ISI","","html-keyboard-response","452","387206","0.0-1.0-615.0","0","0","29174","","null","","","null","68","NaN","","","","","","","","","","","","","","",""
"","S2","","html-keyboard-response","453","387462","0.0-1.0-616.0","0","0","29174","","null","","","null","68","","NaN","","","","","","","","","","","","","",""
"","response","","html-keyboard-response","454","387700","0.0-1.0-617.0-0.0","0","0","29174","","235","","","75","68","","","2","68","training","adjacent","DE","4","5","L.jpg","P.jpg","0","1","0","",""
"","feedback","","html-keyboard-response","455","388710","0.0-1.0-618.0-0.0","0","0","29174","","null","","","null","68","","","","","","","","","","","","","","","",""
"","time_out","","html-keyboard-response","456","390721","0.0-1.0-620.0-0.0","0","0","29174","","null","","","null","68","","","","","","","","","","","","","","","",""
"","ITI","","html-keyboard-response","457","391729","0.0-1.0-621.0","0","0","29174","","null","","","null","68","","","","","","","","","","","","","","","NaN",""
"","S1","","html-keyboard-response","458","391990","0.0-1.0-623.0","0","0","29174","","null","","","null","69","","","","","","","","","","","","","","","",""
"","ISI","","html-keyboard-response","459","392502","0.0-1.0-624.0","0","0","29174","","null","","","null","69","NaN","","","","","","","","","","","","","","",""
"","S2","","html-keyboard-response","460","392758","0.0-1.0-625.0","0","0","29174","","null","","","null","69","","NaN","","","","","","","","","","","","","",""
"","response","","html-keyboard-response","461","393231","0.0-1.0-626.0-0.0","0","0","29174","","470","","","68","69","","","2","69","training","adjacent","GF","7","6","M.jpg","N.jpg","1","0","0","",""
"","feedback","","html-keyboard-response","462","394241","0.0-1.0-627.0-0.0","0","0","29174","","null","","","null","69","","","","","","","","","","","","","","","",""
"","time_out","","html-keyboard-response","463","396246","0.0-1.0-629.0-0.0","0","0","29174","","null","","","null","69","","","","","","","","","","","","","","","",""
"","ITI","","html-keyboard-response","464","397254","0.0-1.0-630.0","0","0","29174","","null","","","null","69","","","","","","","","","","","","","","","NaN",""
"","S1","","html-keyboard-response","465","397510","0.0-1.0-632.0","0","0","29174","","null","","","null","70","","","","","","","","","","","","","","","",""
"","ISI","","html-keyboard-response","466","398022","0.0-1.0-633.0","0","0","29174","","null","","","null","70","NaN","","","","","","","","","","","","","","",""
"","S2","","html-keyboard-response","467","398278","0.0-1.0-634.0","0","0","29174","","null","","","null","70","","NaN","","","","","","","","","","","","","",""
"","response","","html-keyboard-response","468","398736","0.0-1.0-635.0-0.0","0","0","29174","","456","","","68","70","","","2","70","training","adjacent","BC","2","3","Q.jpg","O.jpg","1","1","1","",""
"","feedback","","html-keyboard-response","469","399745","0.0-1.0-636.0-0.0","0","0","29174","","null","","","null","70","","","","","","","","","","","","","","","",""
"","ITI","","html-keyboard-response","470","400753","0.0-1.0-639.0","0","0","29174","","null","","","null","70","","","","","","","","","","","","","","","NaN",""
"","S1","","html-keyboard-response","471","401014","0.0-1.0-641.0","0","0","29174","","null","","","null","71","","","","","","","","","","","","","","","",""
"","ISI","","html-keyboard-response","472","401526","0.0-1.0-642.0","0","0","29174","","null","","","null","71","NaN","","","","","","","","","","","","","","",""
"","S2","","html-keyboard-response","473","401782","0.0-1.0-643.0","0","0","29174","","null","","","null","71","","NaN","","","","","","","","","","","","","",""
"","response","","html-keyboard-response","474","402269","0.0-1.0-644.0-0.0","0","0","29174","","485","","","75","71","","","2","71","training","adjacent","CB","3","2","O.jpg","Q.jpg","0","0","1","",""
"","feedback","","html-keyboard-response","475","403281","0.0-1.0-645.0-0.0","0","0","29174","","null","","","null","71","","","","","","","","","","","","","","","",""
"","ITI","","html-keyboard-response","476","404289","0.0-1.0-648.0","0","0","29174","","null","","","null","71","","","","","","","","","","","","","","","NaN",""
"","S1","","html-keyboard-response","477","404551","0.0-1.0-650.0","0","0","29174","","null","","","null","72","","","","","","","","","","","","","","","",""
"","ISI","","html-keyboard-response","478","405062","0.0-1.0-651.0","0","0","29174","","null","","","null","72","NaN","","","","","","","","","","","","","","",""
"","S2","","html-keyboard-response","479","405318","0.0-1.0-652.0","0","0","29174","","null","","","null","72","","NaN","","","","","","","","","","","","","",""
"","response","","html-keyboard-response","480","405862","0.0-1.0-653.0-0.0","0","0","29174","","541","","","68","72","","","2","72","training","adjacent","DC","4","3","L.jpg","O.jpg","1","0","0","",""
"","feedback","","html-keyboard-response","481","406870","0.0-1.0-654.0-0.0","0","0","29174","","null","","","null","72","","","","","","","","","","","","","","","",""
"","time_out","","html-keyboard-response","482","408881","0.0-1.0-656.0-0.0","0","0","29174","","null","","","null","72","","","","","","","","","","","","","","","",""
"","ITI","","html-keyboard-response","483","409889","0.0-1.0-657.0","0","0","29174","","null","","","null","72","","","","","","","","","","","","","","","NaN",""
"","S1","","html-keyboard-response","484","410150","0.0-1.0-659.0","0","0","29174","","null","","","null","73","","","","","","","","","","","","","","","",""
"","ISI","","html-keyboard-response","485","410662","0.0-1.0-660.0","0","0","29174","","null","","","null","73","NaN","","","","","","","","","","","","","","",""
"","S2","","html-keyboard-response","486","410919","0.0-1.0-661.0","0","0","29174","","null","","","null","73","","NaN","","","","","","","","","","","","","",""
"","response","","html-keyboard-response","487","411199","0.0-1.0-662.0-0.0","0","0","29174","","277","","","68","73","","","2","73","training","adjacent","FE","6","5","N.jpg","P.jpg","1","0","0","",""
"","feedback","","html-keyboard-response","488","412209","0.0-1.0-663.0-0.0","0","0","29174","","null","","","null","73","","","","","","","","","","","","","","","",""
"","time_out","","html-keyboard-response","489","414214","0.0-1.0-665.0-0.0","0","0","29174","","null","","","null","73","","","","","","","","","","","","","","","",""
"","ITI","","html-keyboard-response","490","415222","0.0-1.0-666.0","0","0","29174","","null","","","null","73","","","","","","","","","","","","","","","NaN",""
"","S1","","html-keyboard-response","491","415478","0.0-1.0-668.0","0","0","29174","","null","","","null","74","","","","","","","","","","","","","","","",""
"","ISI","","html-keyboard-response","492","415990","0.0-1.0-669.0","0","0","29174","","null","","","null","74","NaN","","","","","","","","","","","","","","",""
"","S2","","html-keyboard-response","493","416247","0.0-1.0-670.0","0","0","29174","","null","","","null","74","","NaN","","","","","","","","","","","","","",""
"","response","","html-keyboard-response","494","416789","0.0-1.0-671.0-0.0","0","0","29174","","541","","","68","74","","","2","74","training","adjacent","EF","5","6","P.jpg","N.jpg","1","1","1","",""
"","feedback","","html-keyboard-response","495","417799","0.0-1.0-672.0-0.0","0","0","29174","","null","","","null","74","","","","","","","","","","","","","","","",""
"","ITI","","html-keyboard-response","496","418806","0.0-1.0-675.0","0","0","29174","","null","","","null","74","","","","","","","","","","","","","","","NaN",""
"","S1","","html-keyboard-response","497","419062","0.0-1.0-677.0","0","0","29174","","null","","","null","75","","","","","","","","","","","","","","","",""
"","ISI","","html-keyboard-response","498","419574","0.0-1.0-678.0","0","0","29174","","null","","","null","75","NaN","","","","","","","","","","","","","","",""
"","S2","","html-keyboard-response","499","419830","0.0-1.0-679.0","0","0","29174","","null","","","null","75","","NaN","","","","","","","","","","","","","",""
"","response","","html-keyboard-response","500","420173","0.0-1.0-680.0-0.0","0","0","29174","","340","","","68","75","","","2","75","training","adjacent","EF","5","6","P.jpg","N.jpg","1","1","1","",""
"","feedback","","html-keyboard-response","501","421185","0.0-1.0-681.0-0.0","0","0","29174","","null","","","null","75","","","","","","","","","","","","","","","",""
"","ITI","","html-keyboard-response","502","422193","0.0-1.0-684.0","0","0","29174","","null","","","null","75","","","","","","","","","","","","","","","NaN",""
"","S1","","html-keyboard-response","503","422454","0.0-1.0-686.0","0","0","29174","","null","","","null","76","","","","","","","","","","","","","","","",""
"","ISI","","html-keyboard-response","504","422967","0.0-1.0-687.0","0","0","29174","","null","","","null","76","NaN","","","","","","","","","","","","","","",""
"","S2","","html-keyboard-response","505","423222","0.0-1.0-688.0","0","0","29174","","null","","","null","76","","NaN","","","","","","","","","","","","","",""
"","response","","html-keyboard-response","506","423531","0.0-1.0-689.0-0.0","0","0","29174","","306","","","68","76","","","2","76","training","adjacent","BA","2","1","Q.jpg","R.jpg","1","0","0","",""
"","feedback","","html-keyboard-response","507","424545","0.0-1.0-690.0-0.0","0","0","29174","","null","","","null","76","","","","","","","","","","","","","","","",""
"","time_out","","html-keyboard-response","508","426551","0.0-1.0-692.0-0.0","0","0","29174","","null","","","null","76","","","","","","","","","","","","","","","",""
"","ITI","","html-keyboard-response","509","427559","0.0-1.0-693.0","0","0","29174","","null","","","null","76","","","","","","","","","","","","","","","NaN",""
"","S1","","html-keyboard-response","510","427814","0.0-1.0-695.0","0","0","29174","","null","","","null","77","","","","","","","","","","","","","","","",""
"","ISI","","html-keyboard-response","511","428326","0.0-1.0-696.0","0","0","29174","","null","","","null","77","NaN","","","","","","","","","","","","","","",""
"","S2","","html-keyboard-response","512","428583","0.0-1.0-697.0","0","0","29174","","null","","","null","77","","NaN","","","","","","","","","","","","","",""
"","response","","html-keyboard-response","513","428985","0.0-1.0-698.0-0.0","0","0","29174","","401","","","75","77","","","2","77","training","adjacent","FE","6","5","N.jpg","P.jpg","0","0","1","",""
"","feedback","","html-keyboard-response","514","430001","0.0-1.0-699.0-0.0","0","0","29174","","null","","","null","77","","","","","","","","","","","","","","","",""
"","ITI","","html-keyboard-response","515","431009","0.0-1.0-702.0","0","0","29174","","null","","","null","77","","","","","","","","","","","","","","","NaN",""
"","S1","","html-keyboard-response","516","431271","0.0-1.0-704.0","0","0","29174","","null","","","null","78","","","","","","","","","","","","","","","",""
"","ISI","","html-keyboard-response","517","431782","0.0-1.0-705.0","0","0","29174","","null","","","null","78","NaN","","","","","","","","","","","","","","",""
"","S2","","html-keyboard-response","518","432038","0.0-1.0-706.0","0","0","29174","","null","","","null","78","","NaN","","","","","","","","","","","","","",""
"","response","","html-keyboard-response","519","432468","0.0-1.0-707.0-0.0","0","0","29174","","427","","","75","78","","","2","78","training","adjacent","CD","3","4","O.jpg","L.jpg","0","1","0","",""
"","feedback","","html-keyboard-response","520","433479","0.0-1.0-708.0-0.0","0","0","29174","","null","","","null","78","","","","","","","","","","","","","","","",""
"","time_out","","html-keyboard-response","521","435489","0.0-1.0-710.0-0.0","0","0","29174","","null","","","null","78","","","","","","","","","","","","","","","",""
"","ITI","","html-keyboard-response","522","436497","0.0-1.0-711.0","0","0","29174","","null","","","null","78","","","","","","","","","","","","","","","NaN",""
"","S1","","html-keyboard-response","523","436758","0.0-1.0-713.0","0","0","29174","","null","","","null","79","","","","","","","","","","","","","","","",""
"","ISI","","html-keyboard-response","524","437270","0.0-1.0-714.0","0","0","29174","","null","","","null","79","NaN","","","","","","","","","","","","","","",""
"","S2","","html-keyboard-response","525","437526","0.0-1.0-715.0","0","0","29174","","null","","","null","79","","NaN","","","","","","","","","","","","","",""
"","response","","html-keyboard-response","526","437805","0.0-1.0-716.0-0.0","0","0","29174","","276","","","68","79","","","2","79","training","adjacent","BA","2","1","Q.jpg","R.jpg","1","0","0","",""
"","feedback","","html-keyboard-response","527","438817","0.0-1.0-717.0-0.0","0","0","29174","","null","","","null","79","","","","","","","","","","","","","","","",""
"","time_out","","html-keyboard-response","528","440823","0.0-1.0-719.0-0.0","0","0","29174","","null","","","null","79","","","","","","","","","","","","","","","",""
"","ITI","","html-keyboard-response","529","441830","0.0-1.0-720.0","0","0","29174","","null","","","null","79","","","","","","","","","","","","","","","NaN",""
"","S1","","html-keyboard-response","530","442087","0.0-1.0-722.0","0","0","29174","","null","","","null","80","","","","","","","","","","","","","","","",""
"","ISI","","html-keyboard-response","531","442599","0.0-1.0-723.0","0","0","29174","","null","","","null","80","NaN","","","","","","","","","","","","","","",""
"","S2","","html-keyboard-response","532","442855","0.0-1.0-724.0","0","0","29174","","null","","","null","80","","NaN","","","","","","","","","","","","","",""
"","response","","html-keyboard-response","533","443472","0.0-1.0-725.0-0.0","0","0","29174","","614","","","68","80","","","2","80","training","adjacent","EF","5","6","P.jpg","N.jpg","1","1","1","",""
"","feedback","","html-keyboard-response","534","444481","0.0-1.0-726.0-0.0","0","0","29174","","null","","","null","80","","","","","","","","","","","","","","","",""
"","ITI","","html-keyboard-response","535","445489","0.0-1.0-729.0","0","0","29174","","null","","","null","80","","","","","","","","","","","","","","","NaN",""
"","S1","","html-keyboard-response","536","445750","0.0-1.0-731.0","0","0","29174","","null","","","null","81","","","","","","","","","","","","","","","",""
"","ISI","","html-keyboard-response","537","446262","0.0-1.0-732.0","0","0","29174","","null","","","null","81","NaN","","","","","","","","","","","","","","",""
"","S2","","html-keyboard-response","538","446522","0.0-1.0-733.0","0","0","29174","","null","","","null","81","","NaN","","","","","","","","","","","","","",""
"","response","","html-keyboard-response","539","447239","0.0-1.0-734.0-0.0","0","0","29174","","715","","","75","81","","","2","81","training","adjacent","CD","3","4","O.jpg","L.jpg","0","1","0","",""
"","feedback","","html-keyboard-response","540","448246","0.0-1.0-735.0-0.0","0","0","29174","","null","","","null","81","","","","","","","","","","","","","","","",""
"","time_out","","html-keyboard-response","541","450257","0.0-1.0-737.0-0.0","0","0","29174","","null","","","null","81","","","","","","","","","","","","","","","",""
"","ITI","","html-keyboard-response","542","451265","0.0-1.0-738.0","0","0","29174","","null","","","null","81","","","","","","","","","","","","","","","NaN",""
"","S1","","html-keyboard-response","543","451527","0.0-1.0-740.0","0","0","29174","","null","","","null","82","","","","","","","","","","","","","","","",""
"","ISI","","html-keyboard-response","544","452038","0.0-1.0-741.0","0","0","29174","","null","","","null","82","NaN","","","","","","","","","","","","","","",""
"","S2","","html-keyboard-response","545","452294","0.0-1.0-742.0","0","0","29174","","null","","","null","82","","NaN","","","","","","","","","","","","","",""
"","response","","html-keyboard-response","546","452733","0.0-1.0-743.0-0.0","0","0","29174","","436","","","68","82","","","2","82","training","adjacent","AB","1","2","R.jpg","Q.jpg","1","1","1","",""
"","feedback","","html-keyboard-response","547","453745","0.0-1.0-744.0-0.0","0","0","29174","","null","","","null","82","","","","","","","","","","","","","","","",""
"","ITI","","html-keyboard-response","548","454753","0.0-1.0-747.0","0","0","29174","","null","","","null","82","","","","","","","","","","","","","","","NaN",""
"","S1","","html-keyboard-response","549","455015","0.0-1.0-749.0","0","0","29174","","null","","","null","83","","","","","","","","","","","","","","","",""
"","ISI","","html-keyboard-response","550","455526","0.0-1.0-750.0","0","0","29174","","null","","","null","83","NaN","","","","","","","","","","","","","","",""
"","S2","","html-keyboard-response","551","455782","0.0-1.0-751.0","0","0","29174","","null","","","null","83","","NaN","","","","","","","","","","","","","",""
"","response","","html-keyboard-response","552","456140","0.0-1.0-752.0-0.0","0","0","29174","","355","","","68","83","","","2","83","training","adjacent","EF","5","6","P.jpg","N.jpg","1","1","1","",""
"","feedback","","html-keyboard-response","553","457153","0.0-1.0-753.0-0.0","0","0","29174","","null","","","null","83","","","","","","","","","","","","","","","",""
"","ITI","","html-keyboard-response","554","458161","0.0-1.0-756.0","0","0","29174","","null","","","null","83","","","","","","","","","","","","","","","NaN",""
"","S1","","html-keyboard-response","555","458423","0.0-1.0-758.0","0","0","29174","","null","","","null","84","","","","","","","","","","","","","","","",""
"","ISI","","html-keyboard-response","556","458935","0.0-1.0-759.0","0","0","29174","","null","","","null","84","NaN","","","","","","","","","","","","","","",""
"","S2","","html-keyboard-response","557","459191","0.0-1.0-760.0","0","0","29174","","null","","","null","84","","NaN","","","","","","","","","","","","","",""
"","response","","html-keyboard-response","558","459827","0.0-1.0-761.0-0.0","0","0","29174","","633","","","75","84","","","2","84","training","adjacent","FG","6","7","N.jpg","M.jpg","0","1","0","",""
"","feedback","","html-keyboard-response","559","460838","0.0-1.0-762.0-0.0","0","0","29174","","null","","","null","84","","","","","","","","","","","","","","","",""
"","time_out","","html-keyboard-response","560","462849","0.0-1.0-764.0-0.0","0","0","29174","","null","","","null","84","","","","","","","","","","","","","","","",""
"","ITI","","html-keyboard-response","561","463857","0.0-1.0-765.0","0","0","29174","","null","","","null","84","","","","","","","","","","","","","","","NaN",""
"","S1","","html-keyboard-response","562","464119","0.0-1.0-767.0","0","0","29174","","null","","","null","85","","","","","","","","","","","","","","","",""
"","ISI","","html-keyboard-response","563","464631","0.0-1.0-768.0","0","0","29174","","null","","","null","85","NaN","","","","","","","","","","","","","","",""
"","S2","","html-keyboard-response","564","464887","0.0-1.0-769.0","0","0","29174","","null","","","null","85","","NaN","","","","","","","","","","","","","",""
"","response","","html-keyboard-response","565","465226","0.0-1.0-770.0-0.0","0","0","29174","","336","","","68","85","","","2","85","training","adjacent","BC","2","3","Q.jpg","O.jpg","1","1","1","",""
"","feedback","","html-keyboard-response","566","466241","0.0-1.0-771.0-0.0","0","0","29174","","null","","","null","85","","","","","","","","","","","","","","","",""
"","ITI","","html-keyboard-response","567","467249","0.0-1.0-774.0","0","0","29174","","null","","","null","85","","","","","","","","","","","","","","","NaN",""
"","S1","","html-keyboard-response","568","467511","0.0-1.0-776.0","0","0","29174","","null","","","null","86","","","","","","","","","","","","","","","",""
"","ISI","","html-keyboard-response","569","468026","0.0-1.0-777.0","0","0","29174","","null","","","null","86","NaN","","","","","","","","","","","","","","",""
"","S2","","html-keyboard-response","570","468289","0.0-1.0-778.0","0","0","29174","","null","","","null","86","","NaN","","","","","","","","","","","","","",""
"","response","","html-keyboard-response","571","468787","0.0-1.0-779.0-0.0","0","0","29174","","495","","","75","86","","","2","86","training","adjacent","GF","7","6","M.jpg","N.jpg","0","0","1","",""
"","feedback","","html-keyboard-response","572","469799","0.0-1.0-780.0-0.0","0","0","29174","","null","","","null","86","","","","","","","","","","","","","","","",""
"","ITI","","html-keyboard-response","573","470807","0.0-1.0-783.0","0","0","29174","","null","","","null","86","","","","","","","","","","","","","","","NaN",""
"","S1","","html-keyboard-response","574","471063","0.0-1.0-785.0","0","0","29174","","null","","","null","87","","","","","","","","","","","","","","","",""
"","ISI","","html-keyboard-response","575","471575","0.0-1.0-786.0","0","0","29174","","null","","","null","87","NaN","","","","","","","","","","","","","","",""
"","S2","","html-keyboard-response","576","471831","0.0-1.0-787.0","0","0","29174","","null","","","null","87","","NaN","","","","","","","","","","","","","",""
"","response","","html-keyboard-response","577","472330","0.0-1.0-788.0-0.0","0","0","29174","","497","","","75","87","","","2","87","training","adjacent","CB","3","2","O.jpg","Q.jpg","0","0","1","",""
"","feedback","","html-keyboard-response","578","473345","0.0-1.0-789.0-0.0","0","0","29174","","null","","","null","87","","","","","","","","","","","","","","","",""
"","ITI","","html-keyboard-response","579","474353","0.0-1.0-792.0","0","0","29174","","null","","","null","87","","","","","","","","","","","","","","","NaN",""
"","S1","","html-keyboard-response","580","474615","0.0-1.0-794.0","0","0","29174","","null","","","null","88","","","","","","","","","","","","","","","",""
"","ISI","","html-keyboard-response","581","475127","0.0-1.0-795.0","0","0","29174","","null","","","null","88","NaN","","","","","","","","","","","","","","",""
"","S2","","html-keyboard-response","582","475383","0.0-1.0-796.0","0","0","29174","","null","","","null","88","","NaN","","","","","","","","","","","","","",""
"","response","","html-keyboard-response","583","475876","0.0-1.0-797.0-0.0","0","0","29174","","491","","","68","88","","","2","88","training","adjacent","ED","5","4","P.jpg","L.jpg","1","0","0","",""
