"success","ttype","start_time","trial_type","trial_index","time_elapsed","internal_node_id","warning","missed_checkup","PID","view_history","rt","responses","repeat_instructions","key_press","index","keypress_isi","keypress_S2","block","trial_num","phase","group_type","pair_type","S1_stim","S2_stim","S1_img","S2_img","S1_chosen","S1_higher","accuracy","keypress_iti","total_bonus_tally"
"true","full_screen","d03072023hr1839","fullscreen","0","3454","0.0-0.0","0","0","63397","","","","","","","","","","","","","","","","","","","","","",""
"","instructions","","instructions","1","37105","0.0-1.0-0.0-0.0","0","0","63397","[{""page_index"":0,""viewing_time"":7367},{""page_index"":1,""viewing_time"":19863},{""page_index"":2,""viewing_time"":2792},{""page_index"":3,""viewing_time"":3626}]","33648","","","","","","","","","","","","","","","","","","","",""
"","comprehension_check","","survey-multi-choice","2","63351","0.0-1.0-0.0-1.0","0","0","63397","","26242","{""Q0"":""True"",""Q1"":""K"",""Q2"":""Only when the screen 'MAKE A CHOICE' is shown"",""Q3"":""Green mark"",""Q4"":""either D or K""}","1","","","","","","","","","","","","","","","","","",""
"","missed_instruction_checkup","","html-keyboard-response","3","67383","0.0-1.0-0.0-2.0-0.0","0","1","63397","","4026","","","32","","","","","","","","","","","","","","","","",""
"","instructions","","instructions","4","92939","0.0-1.0-0.1-0.1","0","0","63397","[{""page_index"":0,""viewing_time"":2170},{""page_index"":1,""viewing_time"":16909},{""page_index"":2,""viewing_time"":3967},{""page_index"":3,""viewing_time"":2507}]","25554","","","","","","","","","","","","","","","","","","","",""
"","comprehension_check","","survey-multi-choice","5","130584","0.0-1.0-0.1-1.1","0","0","63397","","37640","{""Q0"":""True"",""Q1"":""K"",""Q2"":""Once the second image appears and while the screen 'MAKE A CHOICE' is shown"",""Q3"":""Green mark"",""Q4"":""either D or K""}","0","","","","","","","","","","","","","","","","","",""
"","start_exp","","html-keyboard-response","6","135707","0.0-1.0-1.0","0","0","63397","","5120","","","32","","","","","","","","","","","","","","","","",""
"","S1","","html-keyboard-response","7","135968","0.0-1.0-2.0","0","0","63397","","null","","","null","0","","","","","","","","","","","","","","","",""
"","ISI","","html-keyboard-response","8","136970","0.0-1.0-3.0","0","0","63397","","null","","","null","0","NaN","","","","","","","","","","","","","","",""
"","S2","","html-keyboard-response","9","137222","0.0-1.0-4.0","0","0","63397","","null","","","null","0","","NaN","","","","","","","","","","","","","",""
"","response","","html-keyboard-response","10","138338","0.0-1.0-5.0-0.0","0","0","63397","","1114","","","68","0","","","1","0","training","adjacent","DC","4","3","O.jpg","Q.jpg","0","0","1","",""
"","feedback","","html-keyboard-response","11","139342","0.0-1.0-6.0-0.0","0","0","63397","","null","","","null","0","","","","","","","","","","","","","","","",""
"","ITI","","html-keyboard-response","12","140344","0.0-1.0-9.0","0","0","63397","","78","","","68","0","","","","","","","","","","","","","","","d",""
"","S1","","html-keyboard-response","13","140600","0.0-1.0-11.0","0","0","63397","","null","","","null","1","","","","","","","","","","","","","","","",""
"","ISI","","html-keyboard-response","14","141612","0.0-1.0-12.0","0","0","63397","","259","","","75","1","k","","","","","","","","","","","","","","",""
"","S2","","html-keyboard-response","15","141623","0.0-1.0-13.0","0","0","63397","","10","","","68","1","","d","1","1","training","adjacent","BC","2","3","N.jpg","Q.jpg","0","1","0","",""
"","feedback","","html-keyboard-response","16","142627","0.0-1.0-15.0-0.0","0","0","63397","","null","","","null","1","","","","","","","","","","","","","","","",""
"","time_out","","html-keyboard-response","17","144629","0.0-1.0-17.0-0.0","0","0","63397","","null","","","null","1","","","","","","","","","","","","","","","",""
"","ITI","","html-keyboard-response","18","145638","0.0-1.0-18.0","0","0","63397","","91","","","75","1","","","","","","","","","","","","","","","k",""
"","S1","","html-keyboard-response","19","145891","0.0-1.0-20.0","0","0","63397","","null","","","null","2","","","","","","","","","","","","","","","",""
"","ISI","","html-keyboard-response","20","146892","0.0-1.0-21.0","0","0","63397","","21","","","75","2","k","","","","","","","","","","","","","","",""
"","S2","","html-keyboard-response","21","146928","0.0-1.0-22.0","0","0","63397","","35","","","75","2","","k","1","2","training","adjacent","BA","2","1","N.jpg","R.jpg","1","0","0","",""
"","feedback","","html-keyboard-response","22","147930","0.0-1.0-24.0-0.0","0","0","63397","","null","","","null","2","","","","","","","","","","","","","","","",""
"","time_out","","html-keyboard-response","23","149934","0.0-1.0-26.0-0.0","0","0","63397","","null","","","null","2","","","","","","","","","","","","","","","",""
"","ITI","","html-keyboard-response","24","150939","0.0-1.0-27.0","0","0","63397","","65","","","75","2","","","","","","","","","","","","","","","k",""
"","S1","","html-keyboard-response","25","151192","0.0-1.0-29.0","0","0","63397","","null","","","null","3","","","","","","","","","","","","","","","",""
"","ISI","","html-keyboard-response","26","152193","0.0-1.0-30.0","0","0","63397","","131","","","75","3","k","","","","","","","","","","","","","","",""
"","S2","","html-keyboard-response","27","152209","0.0-1.0-31.0","0","0","63397","","14","","","75","3","","k","1","3","training","adjacent","FG","6","7","P.jpg","M.jpg","1","1","1","",""
"","feedback","","html-keyboard-response","28","153218","0.0-1.0-33.0-0.0","0","0","63397","","null","","","null","3","","","","","","","","","","","","","","","",""
"","ITI","","html-keyboard-response","29","154219","0.0-1.0-36.0","0","0","63397","","0","","","75","3","","","","","","","","","","","","","","","k",""
"","S1","","html-keyboard-response","30","154472","0.0-1.0-38.0","0","0","63397","","null","","","null","4","","","","","","","","","","","","","","","",""
"","ISI","","html-keyboard-response","31","155473","0.0-1.0-39.0","0","0","63397","","32","","","68","4","d","","","","","","","","","","","","","","",""
"","S2","","html-keyboard-response","32","155691","0.0-1.0-40.0","0","0","63397","","216","","","68","4","","d","1","4","training","adjacent","DC","4","3","O.jpg","Q.jpg","0","0","1","",""
"","feedback","","html-keyboard-response","33","156694","0.0-1.0-42.0-0.0","0","0","63397","","null","","","null","4","","","","","","","","","","","","","","","",""
"","ITI","","html-keyboard-response","34","157696","0.0-1.0-45.0","0","0","63397","","42","","","75","4","","","","","","","","","","","","","","","k",""
"","S1","","html-keyboard-response","35","157951","0.0-1.0-47.0","0","0","63397","","null","","","null","5","","","","","","","","","","","","","","","",""
"","ISI","","html-keyboard-response","36","158956","0.0-1.0-48.0","0","0","63397","","58","","","75","5","k","","","","","","","","","","","","","","",""
"","S2","","html-keyboard-response","37","159007","0.0-1.0-49.0","0","0","63397","","50","","","75","5","","k","1","5","training","adjacent","FE","6","5","P.jpg","L.jpg","1","0","0","",""
"","feedback","","html-keyboard-response","38","160016","0.0-1.0-51.0-0.0","0","0","63397","","null","","","null","5","","","","","","","","","","","","","","","",""
"","time_out","","html-keyboard-response","39","162019","0.0-1.0-53.0-0.0","0","0","63397","","null","","","null","5","","","","","","","","","","","","","","","",""
"","ITI","","html-keyboard-response","40","163024","0.0-1.0-54.0","0","0","63397","","11","","","75","5","","","","","","","","","","","","","","","k",""
"","S1","","html-keyboard-response","41","163276","0.0-1.0-56.0","0","0","63397","","null","","","null","6","","","","","","","","","","","","","","","",""
"","ISI","","html-keyboard-response","42","164278","0.0-1.0-57.0","0","0","63397","","139","","","75","6","k","","","","","","","","","","","","","","",""
"","S2","","html-keyboard-response","43","164303","0.0-1.0-58.0","0","0","63397","","23","","","68","6","","d","1","6","training","adjacent","ED","5","4","L.jpg","O.jpg","0","0","1","",""
"","feedback","","html-keyboard-response","44","165305","0.0-1.0-60.0-0.0","0","0","63397","","null","","","null","6","","","","","","","","","","","","","","","",""
"","ITI","","html-keyboard-response","45","166308","0.0-1.0-63.0","0","0","63397","","262","","","75","6","","","","","","","","","","","","","","","k",""
"","S1","","html-keyboard-response","46","166564","0.0-1.0-65.0","0","0","63397","","null","","","null","7","","","","","","","","","","","","","","","",""
"","ISI","","html-keyboard-response","47","167565","0.0-1.0-66.0","0","0","63397","","105","","","75","7","k","","","","","","","","","","","","","","",""
"","S2","","html-keyboard-response","48","167620","0.0-1.0-67.0","0","0","63397","","53","","","75","7","","k","1","7","training","adjacent","GF","7","6","M.jpg","P.jpg","1","0","0","",""
"","feedback","","html-keyboard-response","49","168624","0.0-1.0-69.0-0.0","0","0","63397","","null","","","null","7","","","","","","","","","","","","","","","",""
"","time_out","","html-keyboard-response","50","170627","0.0-1.0-71.0-0.0","0","0","63397","","null","","","null","7","","","","","","","","","","","","","","","",""
"","ITI","","html-keyboard-response","51","171629","0.0-1.0-72.0","0","0","63397","","121","","","75","7","","","","","","","","","","","","","","","k",""
"","S1","","html-keyboard-response","52","171885","0.0-1.0-74.0","0","0","63397","","null","","","null","8","","","","","","","","","","","","","","","",""
"","ISI","","html-keyboard-response","53","172887","0.0-1.0-75.0","0","0","63397","","58","","","68","8","d","","","","","","","","","","","","","","",""
"","S2","","html-keyboard-response","54","172895","0.0-1.0-76.0","0","0","63397","","6","","","75","8","","k","1","8","training","adjacent","FE","6","5","P.jpg","L.jpg","1","0","0","",""
"","feedback","","html-keyboard-response","55","173897","0.0-1.0-78.0-0.0","0","0","63397","","null","","","null","8","","","","","","","","","","","","","","","",""
"","time_out","","html-keyboard-response","56","175900","0.0-1.0-80.0-0.0","0","0","63397","","null","","","null","8","","","","","","","","","","","","","","","",""
"","ITI","","html-keyboard-response","57","176901","0.0-1.0-81.0","0","0","63397","","95","","","75","8","","","","","","","","","","","","","","","k",""
"","S1","","html-keyboard-response","58","177153","0.0-1.0-83.0","0","0","63397","","null","","","null","9","","","","","","","","","","","","","","","",""
"","ISI","","html-keyboard-response","59","178154","0.0-1.0-84.0","0","0","63397","","235","","","75","9","k","","","","","","","","","","","","","","",""
"","S2","","html-keyboard-response","60","178232","0.0-1.0-85.0","0","0","63397","","76","","","68","9","","d","1","9","training","adjacent","EF","5","6","L.jpg","P.jpg","0","1","0","",""
"","feedback","","html-keyboard-response","61","179235","0.0-1.0-87.0-0.0","0","0","63397","","null","","","null","9","","","","","","","","","","","","","","","",""
"","time_out","","html-keyboard-response","62","181236","0.0-1.0-89.0-0.0","0","0","63397","","null","","","null","9","","","","","","","","","","","","","","","",""
"","ITI","","html-keyboard-response","63","182243","0.0-1.0-90.0","0","0","63397","","64","","","75","9","","","","","","","","","","","","","","","k",""
"","S1","","html-keyboard-response","64","182499","0.0-1.0-92.0","0","0","63397","","null","","","null","10","","","","","","","","","","","","","","","",""
"","ISI","","html-keyboard-response","65","183507","0.0-1.0-93.0","0","0","63397","","11","","","68","10","d","","","","","","","","","","","","","","",""
"","S2","","html-keyboard-response","66","183512","0.0-1.0-94.0","0","0","63397","","3","","","68","10","","d","1","10","training","adjacent","FG","6","7","P.jpg","M.jpg","0","1","0","",""
"","feedback","","html-keyboard-response","67","184523","0.0-1.0-96.0-0.0","0","0","63397","","null","","","null","10","","","","","","","","","","","","","","","",""
"","time_out","","html-keyboard-response","68","186531","0.0-1.0-98.0-0.0","0","0","63397","","null","","","null","10","","","","","","","","","","","","","","","",""
"","ITI","","html-keyboard-response","69","187535","0.0-1.0-99.0","0","0","63397","","43","","","75","10","","","","","","","","","","","","","","","k",""
"","S1","","html-keyboard-response","70","187787","0.0-1.0-101.0","0","0","63397","","null","","","null","11","","","","","","","","","","","","","","","",""
"","ISI","","html-keyboard-response","71","188788","0.0-1.0-102.0","0","0","63397","","110","","","75","11","k","","","","","","","","","","","","","","",""
"","S2","","html-keyboard-response","72","188834","0.0-1.0-103.0","0","0","63397","","43","","","68","11","","d","1","11","training","adjacent","CB","3","2","Q.jpg","N.jpg","0","0","1","",""
"","feedback","","html-keyboard-response","73","189837","0.0-1.0-105.0-0.0","0","0","63397","","null","","","null","11","","","","","","","","","","","","","","","",""
"","ITI","","html-keyboard-response","74","190839","0.0-1.0-108.0","0","0","63397","","48","","","75","11","","","","","","","","","","","","","","","k",""
"","S1","","html-keyboard-response","75","191092","0.0-1.0-110.0","0","0","63397","","null","","","null","12","","","","","","","","","","","","","","","",""
"","ISI","","html-keyboard-response","76","192093","0.0-1.0-111.0","0","0","63397","","89","","","75","12","k","","","","","","","","","","","","","","",""
"","S2","","html-keyboard-response","77","192189","0.0-1.0-112.0","0","0","63397","","93","","","75","12","","k","1","12","training","adjacent","GF","7","6","M.jpg","P.jpg","1","0","0","",""
"","feedback","","html-keyboard-response","78","193190","0.0-1.0-114.0-0.0","0","0","63397","","null","","","null","12","","","","","","","","","","","","","","","",""
"","time_out","","html-keyboard-response","79","195192","0.0-1.0-116.0-0.0","0","0","63397","","null","","","null","12","","","","","","","","","","","","","","","",""
"","ITI","","html-keyboard-response","80","196193","0.0-1.0-117.0","0","0","63397","","87","","","75","12","","","","","","","","","","","","","","","k",""
"","S1","","html-keyboard-response","81","196447","0.0-1.0-119.0","0","0","63397","","null","","","null","13","","","","","","","","","","","","","","","",""
"","ISI","","html-keyboard-response","82","197449","0.0-1.0-120.0","0","0","63397","","34","","","68","13","d","","","","","","","","","","","","","","",""
"","S2","","html-keyboard-response","83","197543","0.0-1.0-121.0","0","0","63397","","91","","","75","13","","k","1","13","training","adjacent","DE","4","5","O.jpg","L.jpg","1","1","1","",""
"","feedback","","html-keyboard-response","84","198545","0.0-1.0-123.0-0.0","0","0","63397","","null","","","null","13","","","","","","","","","","","","","","","",""
"","ITI","","html-keyboard-response","85","199548","0.0-1.0-126.0","0","0","63397","","198","","","75","13","","","","","","","","","","","","","","","k",""
"","S1","","html-keyboard-response","86","199808","0.0-1.0-128.0","0","0","63397","","null","","","null","14","","","","","","","","","","","","","","","",""
"","ISI","","html-keyboard-response","87","200813","0.0-1.0-129.0","0","0","63397","","12","","","68","14","d","","","","","","","","","","","","","","",""
"","S2","","html-keyboard-response","88","200960","0.0-1.0-130.0","0","0","63397","","143","","","75","14","","k","1","14","training","adjacent","DE","4","5","O.jpg","L.jpg","1","1","1","",""
"","feedback","","html-keyboard-response","89","201964","0.0-1.0-132.0-0.0","0","0","63397","","null","","","null","14","","","","","","","","","","","","","","","",""
"","ITI","","html-keyboard-response","90","202966","0.0-1.0-135.0","0","0","63397","","23","","","75","14","","","","","","","","","","","","","","","k",""
"","S1","","html-keyboard-response","91","203218","0.0-1.0-137.0","0","0","63397","","null","","","null","15","","","","","","","","","","","","","","","",""
"","ISI","","html-keyboard-response","92","204225","0.0-1.0-138.0","0","0","63397","","35","","","68","15","d","","","","","","","","","","","","","","",""
"","S2","","html-keyboard-response","93","204371","0.0-1.0-139.0","0","0","63397","","143","","","75","15","","k","1","15","training","adjacent","BC","2","3","N.jpg","Q.jpg","1","1","1","",""
"","feedback","","html-keyboard-response","94","205375","0.0-1.0-141.0-0.0","0","0","63397","","null","","","null","15","","","","","","","","","","","","","","","",""
"","ITI","","html-keyboard-response","95","206376","0.0-1.0-144.0","0","0","63397","","168","","","75","15","","","","","","","","","","","","","","","k",""
"","S1","","html-keyboard-response","96","206629","0.0-1.0-146.0","0","0","63397","","null","","","null","16","","","","","","","","","","","","","","","",""
"","ISI","","html-keyboard-response","97","207630","0.0-1.0-147.0","0","0","63397","","74","","","75","16","k","","","","","","","","","","","","","","",""
"","S2","","html-keyboard-response","98","207782","0.0-1.0-148.0","0","0","63397","","151","","","75","16","","k","1","16","training","adjacent","FE","6","5","P.jpg","L.jpg","1","0","0","",""
"","feedback","","html-keyboard-response","99","208785","0.0-1.0-150.0-0.0","0","0","63397","","null","","","null","16","","","","","","","","","","","","","","","",""
"","time_out","","html-keyboard-response","100","210787","0.0-1.0-152.0-0.0","0","0","63397","","null","","","null","16","","","","","","","","","","","","","","","",""
"","ITI","","html-keyboard-response","101","211788","0.0-1.0-153.0","0","0","63397","","102","","","75","16","","","","","","","","","","","","","","","k",""
"","S1","","html-keyboard-response","102","212040","0.0-1.0-155.0","0","0","63397","","null","","","null","17","","","","","","","","","","","","","","","",""
"","ISI","","html-keyboard-response","103","213041","0.0-1.0-156.0","0","0","63397","","71","","","75","17","k","","","","","","","","","","","","","","",""
"","S2","","html-keyboard-response","104","213249","0.0-1.0-157.0","0","0","63397","","205","","","75","17","","k","1","17","training","adjacent","CD","3","4","Q.jpg","O.jpg","1","1","1","",""
"","feedback","","html-keyboard-response","105","214250","0.0-1.0-159.0-0.0","0","0","63397","","null","","","null","17","","","","","","","","","","","","","","","",""
"","ITI","","html-keyboard-response","106","215260","0.0-1.0-162.0","0","0","63397","","187","","","75","17","","","","","","","","","","","","","","","k",""
"","S1","","html-keyboard-response","107","215512","0.0-1.0-164.0","0","0","63397","","null","","","null","18","","","","","","","","","","","","","","","",""
"","ISI","","html-keyboard-response","108","216516","0.0-1.0-165.0","0","0","63397","","17","","","75","18","k","","","","","","","","","","","","","","",""
"","S2","","html-keyboard-response","109","216584","0.0-1.0-166.0","0","0","63397","","66","","","75","18","","k","1","18","training","adjacent","CB","3","2","Q.jpg","N.jpg","1","0","0","",""
"","feedback","","html-keyboard-response","110","217589","0.0-1.0-168.0-0.0","0","0","63397","","null","","","null","18","","","","","","","","","","","","","","","",""
"","time_out","","html-keyboard-response","111","219590","0.0-1.0-170.0-0.0","0","0","63397","","null","","","null","18","","","","","","","","","","","","","","","",""
"","ITI","","html-keyboard-response","112","220596","0.0-1.0-171.0","0","0","63397","","97","","","75","18","","","","","","","","","","","","","","","k",""
"","S1","","html-keyboard-response","113","220850","0.0-1.0-173.0","0","0","63397","","null","","","null","19","","","","","","","","","","","","","","","",""
"","ISI","","html-keyboard-response","114","221854","0.0-1.0-174.0","0","0","63397","","159","","","75","19","k","","","","","","","","","","","","","","",""
"","S2","","html-keyboard-response","115","221945","0.0-1.0-175.0","0","0","63397","","89","","","75","19","","k","1","19","training","adjacent","DC","4","3","O.jpg","Q.jpg","1","0","0","",""
"","feedback","","html-keyboard-response","116","222951","0.0-1.0-177.0-0.0","0","0","63397","","null","","","null","19","","","","","","","","","","","","","","","",""
"","time_out","","html-keyboard-response","117","224954","0.0-1.0-179.0-0.0","0","0","63397","","null","","","null","19","","","","","","","","","","","","","","","",""
"","ITI","","html-keyboard-response","118","225962","0.0-1.0-180.0","0","0","63397","","281","","","75","19","","","","","","","","","","","","","","","k",""
"","S1","","html-keyboard-response","119","226214","0.0-1.0-182.0","0","0","63397","","null","","","null","20","","","","","","","","","","","","","","","",""
"","ISI","","html-keyboard-response","120","227218","0.0-1.0-183.0","0","0","63397","","155","","","68","20","d","","","","","","","","","","","","","","",""
"","S2","","html-keyboard-response","121","227242","0.0-1.0-184.0","0","0","63397","","21","","","75","20","","k","1","20","training","adjacent","GF","7","6","M.jpg","P.jpg","1","0","0","",""
"","feedback","","html-keyboard-response","122","228245","0.0-1.0-186.0-0.0","0","0","63397","","null","","","null","20","","","","","","","","","","","","","","","",""
"","time_out","","html-keyboard-response","123","230247","0.0-1.0-188.0-0.0","0","0","63397","","null","","","null","20","","","","","","","","","","","","","","","",""
"","ITI","","html-keyboard-response","124","231256","0.0-1.0-189.0","0","0","63397","","161","","","75","20","","","","","","","","","","","","","","","k",""
"","S1","","html-keyboard-response","125","231509","0.0-1.0-191.0","0","0","63397","","null","","","null","21","","","","","","","","","","","","","","","",""
"","ISI","","html-keyboard-response","126","232511","0.0-1.0-192.0","0","0","63397","","99","","","75","21","k","","","","","","","","","","","","","","",""
"","S2","","html-keyboard-response","127","232549","0.0-1.0-193.0","0","0","63397","","37","","","68","21","","d","1","21","training","adjacent","AB","1","2","R.jpg","N.jpg","0","1","0","",""
"","feedback","","html-keyboard-response","128","233554","0.0-1.0-195.0-0.0","0","0","63397","","null","","","null","21","","","","","","","","","","","","","","","",""
"","time_out","","html-keyboard-response","129","235558","0.0-1.0-197.0-0.0","0","0","63397","","null","","","null","21","","","","","","","","","","","","","","","",""
"","ITI","","html-keyboard-response","130","236568","0.0-1.0-198.0","0","0","63397","","118","","","75","21","","","","","","","","","","","","","","","k",""
"","S1","","html-keyboard-response","131","236822","0.0-1.0-200.0","0","0","63397","","null","","","null","22","","","","","","","","","","","","","","","",""
"","ISI","","html-keyboard-response","132","237825","0.0-1.0-201.0","0","0","63397","","82","","","68","22","d","","","","","","","","","","","","","","",""
"","S2","","html-keyboard-response","133","237831","0.0-1.0-202.0","0","0","63397","","4","","","68","22","","d","1","22","training","adjacent","DE","4","5","O.jpg","L.jpg","0","1","0","",""
"","feedback","","html-keyboard-response","134","238837","0.0-1.0-204.0-0.0","0","0","63397","","null","","","null","22","","","","","","","","","","","","","","","",""
"","time_out","","html-keyboard-response","135","240849","0.0-1.0-206.0-0.0","0","0","63397","","null","","","null","22","","","","","","","","","","","","","","","",""
"","ITI","","html-keyboard-response","136","241851","0.0-1.0-207.0","0","0","63397","","120","","","75","22","","","","","","","","","","","","","","","k",""
"","S1","","html-keyboard-response","137","242107","0.0-1.0-209.0","0","0","63397","","null","","","null","23","","","","","","","","","","","","","","","",""
"","ISI","","html-keyboard-response","138","243109","0.0-1.0-210.0","0","0","63397","","59","","","75","23","k","","","","","","","","","","","","","","",""
"","S2","","html-keyboard-response","139","243129","0.0-1.0-211.0","0","0","63397","","18","","","68","23","","d","1","23","training","adjacent","CB","3","2","Q.jpg","N.jpg","0","0","1","",""
"","feedback","","html-keyboard-response","140","244131","0.0-1.0-213.0-0.0","0","0","63397","","null","","","null","23","","","","","","","","","","","","","","","",""
"","ITI","","html-keyboard-response","141","245134","0.0-1.0-216.0","0","0","63397","","17","","","68","23","","","","","","","","","","","","","","","d",""
"","S1","","html-keyboard-response","142","245386","0.0-1.0-218.0","0","0","63397","","null","","","null","24","","","","","","","","","","","","","","","",""
"","ISI","","html-keyboard-response","143","246389","0.0-1.0-219.0","0","0","63397","","31","","","68","24","d","","","","","","","","","","","","","","",""
"","S2","","html-keyboard-response","144","246392","0.0-1.0-220.0","0","0","63397","","1","","","75","24","","k","1","24","training","adjacent","BA","2","1","N.jpg","R.jpg","1","0","0","",""
"","feedback","","html-keyboard-response","145","247394","0.0-1.0-222.0-0.0","0","0","63397","","null","","","null","24","","","","","","","","","","","","","","","",""
"","time_out","","html-keyboard-response","146","249401","0.0-1.0-224.0-0.0","0","0","63397","","null","","","null","24","","","","","","","","","","","","","","","",""
"","ITI","","html-keyboard-response","147","250404","0.0-1.0-225.0","0","0","63397","","61","","","68","24","","","","","","","","","","","","","","","d",""
"","S1","","html-keyboard-response","148","250661","0.0-1.0-227.0","0","0","63397","","null","","","null","25","","","","","","","","","","","","","","","",""
"","ISI","","html-keyboard-response","149","251662","0.0-1.0-228.0","0","0","63397","","10","","","75","25","k","","","","","","","","","","","","","","",""
"","S2","","html-keyboard-response","150","251782","0.0-1.0-229.0","0","0","63397","","116","","","68","25","","d","1","25","training","adjacent","CD","3","4","Q.jpg","O.jpg","0","1","0","",""
"","feedback","","html-keyboard-response","151","252789","0.0-1.0-231.0-0.0","0","0","63397","","null","","","null","25","","","","","","","","","","","","","","","",""
"","time_out","","html-keyboard-response","152","254793","0.0-1.0-233.0-0.0","0","0","63397","","null","","","null","25","","","","","","","","","","","","","","","",""
"","ITI","","html-keyboard-response","153","255796","0.0-1.0-234.0","0","0","63397","","28","","","75","25","","","","","","","","","","","","","","","k",""
"","S1","","html-keyboard-response","154","256052","0.0-1.0-236.0","0","0","63397","","null","","","null","26","","","","","","","","","","","","","","","",""
"","ISI","","html-keyboard-response","155","257054","0.0-1.0-237.0","0","0","63397","","76","","","75","26","k","","","","","","","","","","","","","","",""
"","S2","","html-keyboard-response","156","257161","0.0-1.0-238.0","0","0","63397","","105","","","75","26","","k","1","26","training","adjacent","GF","7","6","M.jpg","P.jpg","1","0","0","",""
"","feedback","","html-keyboard-response","157","258164","0.0-1.0-240.0-0.0","0","0","63397","","null","","","null","26","","","","","","","","","","","","","","","",""
"","time_out","","html-keyboard-response","158","260178","0.0-1.0-242.0-0.0","0","0","63397","","null","","","null","26","","","","","","","","","","","","","","","",""
"","ITI","","html-keyboard-response","159","261181","0.0-1.0-243.0","0","0","63397","","212","","","75","26","","","","","","","","","","","","","","","k",""
"","S1","","html-keyboard-response","160","261433","0.0-1.0-245.0","0","0","63397","","null","","","null","27","","","","","","","","","","","","","","","",""
"","ISI","","html-keyboard-response","161","262443","0.0-1.0-246.0","0","0","63397","","63","","","68","27","d","","","","","","","","","","","","","","",""
"","S2","","html-keyboard-response","162","262563","0.0-1.0-247.0","0","0","63397","","116","","","75","27","","k","1","27","training","adjacent","CD","3","4","Q.jpg","O.jpg","1","1","1","",""
"","feedback","","html-keyboard-response","163","263566","0.0-1.0-249.0-0.0","0","0","63397","","null","","","null","27","","","","","","","","","","","","","","","",""
"","ITI","","html-keyboard-response","164","264573","0.0-1.0-252.0","0","0","63397","","97","","","75","27","","","","","","","","","","","","","","","k",""
"","S1","","html-keyboard-response","165","264834","0.0-1.0-254.0","0","0","63397","","null","","","null","28","","","","","","","","","","","","","","","",""
"","ISI","","html-keyboard-response","166","265836","0.0-1.0-255.0","0","0","63397","","58","","","75","28","k","","","","","","","","","","","","","","",""
"","S2","","html-keyboard-response","167","265929","0.0-1.0-256.0","0","0","63397","","92","","","75","28","","k","1","28","training","adjacent","FE","6","5","P.jpg","L.jpg","1","0","0","",""
"","feedback","","html-keyboard-response","168","266932","0.0-1.0-258.0-0.0","0","0","63397","","null","","","null","28","","","","","","","","","","","","","","","",""
"","time_out","","html-keyboard-response","169","268935","0.0-1.0-260.0-0.0","0","0","63397","","null","","","null","28","","","","","","","","","","","","","","","",""
"","ITI","","html-keyboard-response","170","269937","0.0-1.0-261.0","0","0","63397","","104","","","75","28","","","","","","","","","","","","","","","k",""
"","S1","","html-keyboard-response","171","270189","0.0-1.0-263.0","0","0","63397","","null","","","null","29","","","","","","","","","","","","","","","",""
"","ISI","","html-keyboard-response","172","271192","0.0-1.0-264.0","0","0","63397","","8","","","75","29","k","","","","","","","","","","","","","","",""
"","S2","","html-keyboard-response","173","271346","0.0-1.0-265.0","0","0","63397","","152","","","68","29","","d","1","29","training","adjacent","AB","1","2","R.jpg","N.jpg","0","1","0","",""
"","feedback","","html-keyboard-response","174","272348","0.0-1.0-267.0-0.0","0","0","63397","","null","","","null","29","","","","","","","","","","","","","","","",""
"","time_out","","html-keyboard-response","175","274350","0.0-1.0-269.0-0.0","0","0","63397","","null","","","null","29","","","","","","","","","","","","","","","",""
"","ITI","","html-keyboard-response","176","275353","0.0-1.0-270.0","0","0","63397","","6","","","75","29","","","","","","","","","","","","","","","k",""
"","S1","","html-keyboard-response","177","275604","0.0-1.0-272.0","0","0","63397","","null","","","null","30","","","","","","","","","","","","","","","",""
"","ISI","","html-keyboard-response","178","276606","0.0-1.0-273.0","0","0","63397","","24","","","75","30","k","","","","","","","","","","","","","","",""
"","S2","","html-keyboard-response","179","276608","0.0-1.0-274.0","0","0","63397","","1","","","75","30","","k","1","30","training","adjacent","ED","5","4","L.jpg","O.jpg","1","0","0","",""
"","feedback","","html-keyboard-response","180","277609","0.0-1.0-276.0-0.0","0","0","63397","","null","","","null","30","","","","","","","","","","","","","","","",""
"","time_out","","html-keyboard-response","181","279609","0.0-1.0-278.0-0.0","0","0","63397","","null","","","null","30","","","","","","","","","","","","","","","",""
"","ITI","","html-keyboard-response","182","280618","0.0-1.0-279.0","0","0","63397","","35","","","75","30","","","","","","","","","","","","","","","k",""
"","S1","","html-keyboard-response","183","280880","0.0-1.0-281.0","0","0","63397","","null","","","null","31","","","","","","","","","","","","","","","",""
"","ISI","","html-keyboard-response","184","281881","0.0-1.0-282.0","0","0","63397","","21","","","75","31","k","","","","","","","","","","","","","","",""
"","S2","","html-keyboard-response","185","281887","0.0-1.0-283.0","0","0","63397","","4","","","75","31","","k","1","31","training","adjacent","EF","5","6","L.jpg","P.jpg","1","1","1","",""
"","feedback","","html-keyboard-response","186","282889","0.0-1.0-285.0-0.0","0","0","63397","","null","","","null","31","","","","","","","","","","","","","","","",""
"","ITI","","html-keyboard-response","187","283894","0.0-1.0-288.0","0","0","63397","","175","","","75","31","","","","","","","","","","","","","","","k",""
"","S1","","html-keyboard-response","188","284147","0.0-1.0-290.0","0","0","63397","","null","","","null","32","","","","","","","","","","","","","","","",""
"","ISI","","html-keyboard-response","189","285149","0.0-1.0-291.0","0","0","63397","","36","","","75","32","k","","","","","","","","","","","","","","",""
"","S2","","html-keyboard-response","190","285218","0.0-1.0-292.0","0","0","63397","","68","","","68","32","","d","1","32","training","adjacent","FG","6","7","P.jpg","M.jpg","0","1","0","",""
"","feedback","","html-keyboard-response","191","286225","0.0-1.0-294.0-0.0","0","0","63397","","null","","","null","32","","","","","","","","","","","","","","","",""
"","time_out","","html-keyboard-response","192","288228","0.0-1.0-296.0-0.0","0","0","63397","","null","","","null","32","","","","","","","","","","","","","","","",""
"","ITI","","html-keyboard-response","193","289234","0.0-1.0-297.0","0","0","63397","","6","","","75","32","","","","","","","","","","","","","","","k",""
"","S1","","html-keyboard-response","194","289488","0.0-1.0-299.0","0","0","63397","","null","","","null","33","","","","","","","","","","","","","","","",""
"","ISI","","html-keyboard-response","195","290489","0.0-1.0-300.0","0","0","63397","","177","","","68","33","d","","","","","","","","","","","","","","",""
"","S2","","html-keyboard-response","196","290672","0.0-1.0-301.0","0","0","63397","","181","","","75","33","","k","1","33","training","adjacent","BC","2","3","N.jpg","Q.jpg","1","1","1","",""
"","feedback","","html-keyboard-response","197","291675","0.0-1.0-303.0-0.0","0","0","63397","","null","","","null","33","","","","","","","","","","","","","","","",""
"","ITI","","html-keyboard-response","198","292677","0.0-1.0-306.0","0","0","63397","","233","","","75","33","","","","","","","","","","","","","","","k",""
"","S1","","html-keyboard-response","199","292928","0.0-1.0-308.0","0","0","63397","","null","","","null","34","","","","","","","","","","","","","","","",""
"","ISI","","html-keyboard-response","200","293929","0.0-1.0-309.0","0","0","63397","","96","","","75","34","k","","","","","","","","","","","","","","",""
"","S2","","html-keyboard-response","201","293952","0.0-1.0-310.0","0","0","63397","","22","","","75","34","","k","1","34","training","adjacent","EF","5","6","L.jpg","P.jpg","1","1","1","",""
"","feedback","","html-keyboard-response","202","294954","0.0-1.0-312.0-0.0","0","0","63397","","null","","","null","34","","","","","","","","","","","","","","","",""
"","ITI","","html-keyboard-response","203","295955","0.0-1.0-315.0","0","0","63397","","133","","","75","34","","","","","","","","","","","","","","","k",""
"","S1","","html-keyboard-response","204","296207","0.0-1.0-317.0","0","0","63397","","null","","","null","35","","","","","","","","","","","","","","","",""
"","ISI","","html-keyboard-response","205","297209","0.0-1.0-318.0","0","0","63397","","25","","","75","35","k","","","","","","","","","","","","","","",""
"","S2","","html-keyboard-response","206","297216","0.0-1.0-319.0","0","0","63397","","6","","","75","35","","k","1","35","training","adjacent","BA","2","1","N.jpg","R.jpg","1","0","0","",""
"","feedback","","html-keyboard-response","207","298218","0.0-1.0-321.0-0.0","0","0","63397","","null","","","null","35","","","","","","","","","","","","","","","",""
"","time_out","","html-keyboard-response","208","300227","0.0-1.0-323.0-0.0","0","0","63397","","null","","","null","35","","","","","","","","","","","","","","","",""
"","ITI","","html-keyboard-response","209","301229","0.0-1.0-324.0","0","0","63397","","185","","","75","35","","","","","","","","","","","","","","","k",""
"","S1","","html-keyboard-response","210","301483","0.0-1.0-326.0","0","0","63397","","null","","","null","36","","","","","","","","","","","","","","","",""
"","ISI","","html-keyboard-response","211","302485","0.0-1.0-327.0","0","0","63397","","99","","","68","36","d","","","","","","","","","","","","","","",""
"","S2","","html-keyboard-response","212","302544","0.0-1.0-328.0","0","0","63397","","56","","","75","36","","k","1","36","training","adjacent","DC","4","3","O.jpg","Q.jpg","1","0","0","",""
"","feedback","","html-keyboard-response","213","303546","0.0-1.0-330.0-0.0","0","0","63397","","null","","","null","36","","","","","","","","","","","","","","","",""
"","time_out","","html-keyboard-response","214","305547","0.0-1.0-332.0-0.0","0","0","63397","","null","","","null","36","","","","","","","","","","","","","","","",""
"","ITI","","html-keyboard-response","215","306549","0.0-1.0-333.0","0","0","63397","","187","","","75","36","","","","","","","","","","","","","","","k",""
"","S1","","html-keyboard-response","216","306801","0.0-1.0-335.0","0","0","63397","","null","","","null","37","","","","","","","","","","","","","","","",""
"","ISI","","html-keyboard-response","217","307802","0.0-1.0-336.0","0","0","63397","","72","","","75","37","k","","","","","","","","","","","","","","",""
"","S2","","html-keyboard-response","218","307910","0.0-1.0-337.0","0","0","63397","","105","","","75","37","","k","1","37","training","adjacent","ED","5","4","L.jpg","O.jpg","1","0","0","",""
"","feedback","","html-keyboard-response","219","308913","0.0-1.0-339.0-0.0","0","0","63397","","null","","","null","37","","","","","","","","","","","","","","","",""
"","time_out","","html-keyboard-response","220","310917","0.0-1.0-341.0-0.0","0","0","63397","","null","","","null","37","","","","","","","","","","","","","","","",""
"","ITI","","html-keyboard-response","221","311923","0.0-1.0-342.0","0","0","63397","","206","","","75","37","","","","","","","","","","","","","","","k",""
"","S1","","html-keyboard-response","222","312176","0.0-1.0-344.0","0","0","63397","","null","","","null","38","","","","","","","","","","","","","","","",""
"","ISI","","html-keyboard-response","223","313179","0.0-1.0-345.0","0","0","63397","","149","","","75","38","k","","","","","","","","","","","","","","",""
"","S2","","html-keyboard-response","224","313271","0.0-1.0-346.0","0","0","63397","","90","","","68","38","","d","1","38","training","adjacent","FG","6","7","P.jpg","M.jpg","0","1","0","",""
"","feedback","","html-keyboard-response","225","314278","0.0-1.0-348.0-0.0","0","0","63397","","null","","","null","38","","","","","","","","","","","","","","","",""
"","time_out","","html-keyboard-response","226","316281","0.0-1.0-350.0-0.0","0","0","63397","","null","","","null","38","","","","","","","","","","","","","","","",""
"","ITI","","html-keyboard-response","227","317284","0.0-1.0-351.0","0","0","63397","","183","","","75","38","","","","","","","","","","","","","","","k",""
"","S1","","html-keyboard-response","228","317537","0.0-1.0-353.0","0","0","63397","","null","","","null","39","","","","","","","","","","","","","","","",""
"","ISI","","html-keyboard-response","229","318543","0.0-1.0-354.0","0","0","63397","","158","","","68","39","d","","","","","","","","","","","","","","",""
"","S2","","html-keyboard-response","230","318667","0.0-1.0-355.0","0","0","63397","","122","","","75","39","","k","1","39","training","adjacent","BC","2","3","N.jpg","Q.jpg","1","1","1","",""
"","feedback","","html-keyboard-response","231","319669","0.0-1.0-357.0-0.0","0","0","63397","","null","","","null","39","","","","","","","","","","","","","","","",""
"","ITI","","html-keyboard-response","232","320671","0.0-1.0-360.0","0","0","63397","","25","","","75","39","","","","","","","","","","","","","","","k",""
"","S1","","html-keyboard-response","233","320923","0.0-1.0-362.0","0","0","63397","","null","","","null","40","","","","","","","","","","","","","","","",""
"","ISI","","html-keyboard-response","234","321934","0.0-1.0-363.0","0","0","63397","","53","","","68","40","d","","","","","","","","","","","","","","",""
"","S2","","html-keyboard-response","235","322048","0.0-1.0-364.0","0","0","63397","","112","","","68","40","","d","1","40","training","adjacent","CD","3","4","Q.jpg","O.jpg","0","1","0","",""
"","feedback","","html-keyboard-response","236","323050","0.0-1.0-366.0-0.0","0","0","63397","","null","","","null","40","","","","","","","","","","","","","","","",""
"","time_out","","html-keyboard-response","237","325057","0.0-1.0-368.0-0.0","0","0","63397","","null","","","null","40","","","","","","","","","","","","","","","",""
"","ITI","","html-keyboard-response","238","326059","0.0-1.0-369.0","0","0","63397","","159","","","75","40","","","","","","","","","","","","","","","k",""
"","S1","","html-keyboard-response","239","326312","0.0-1.0-371.0","0","0","63397","","null","","","null","41","","","","","","","","","","","","","","","",""
"","ISI","","html-keyboard-response","240","327314","0.0-1.0-372.0","0","0","63397","","53","","","75","41","k","","","","","","","","","","","","","","",""
"","S2","","html-keyboard-response","241","327424","0.0-1.0-373.0","0","0","63397","","108","","","75","41","","k","1","41","training","adjacent","BA","2","1","N.jpg","R.jpg","1","0","0","",""
"","feedback","","html-keyboard-response","242","328434","0.0-1.0-375.0-0.0","0","0","63397","","null","","","null","41","","","","","","","","","","","","","","","",""
"","time_out","","html-keyboard-response","243","330437","0.0-1.0-377.0-0.0","0","0","63397","","null","","","null","41","","","","","","","","","","","","","","","",""
"","ITI","","html-keyboard-response","244","331438","0.0-1.0-378.0","0","0","63397","","41","","","75","41","","","","","","","","","","","","","","","k",""
"","S1","","html-keyboard-response","245","331690","0.0-1.0-380.0","0","0","63397","","null","","","null","42","","","","","","","","","","","","","","","",""
"","ISI","","html-keyboard-response","246","332692","0.0-1.0-381.0","0","0","63397","","87","","","75","42","k","","","","","","","","","","","","","","",""
"","S2","","html-keyboard-response","247","332696","0.0-1.0-382.0","0","0","63397","","3","","","75","42","","k","1","42","training","adjacent","AB","1","2","R.jpg","N.jpg","1","1","1","",""
"","feedback","","html-keyboard-response","248","333700","0.0-1.0-384.0-0.0","0","0","63397","","null","","","null","42","","","","","","","","","","","","","","","",""
"","ITI","","html-keyboard-response","249","334704","0.0-1.0-387.0","0","0","63397","","122","","","75","42","","","","","","","","","","","","","","","k",""
"","S1","","html-keyboard-response","250","334958","0.0-1.0-389.0","0","0","63397","","null","","","null","43","","","","","","","","","","","","","","","",""
"","ISI","","html-keyboard-response","251","335959","0.0-1.0-390.0","0","0","63397","","62","","","75","43","k","","","","","","","","","","","","","","",""
"","S2","","html-keyboard-response","252","335997","0.0-1.0-391.0","0","0","63397","","36","","","68","43","","d","1","43","training","adjacent","EF","5","6","L.jpg","P.jpg","0","1","0","",""
"","feedback","","html-keyboard-response","253","336999","0.0-1.0-393.0-0.0","0","0","63397","","null","","","null","43","","","","","","","","","","","","","","","",""
"","time_out","","html-keyboard-response","254","339001","0.0-1.0-395.0-0.0","0","0","63397","","null","","","null","43","","","","","","","","","","","","","","","",""
"","ITI","","html-keyboard-response","255","340004","0.0-1.0-396.0","0","0","63397","","4","","","75","43","","","","","","","","","","","","","","","k",""
"","S1","","html-keyboard-response","256","340257","0.0-1.0-398.0","0","0","63397","","null","","","null","44","","","","","","","","","","","","","","","",""
"","ISI","","html-keyboard-response","257","341259","0.0-1.0-399.0","0","0","63397","","74","","","75","44","k","","","","","","","","","","","","","","",""
"","S2","","html-keyboard-response","258","341287","0.0-1.0-400.0","0","0","63397","","26","","","68","44","","d","1","44","training","adjacent","DE","4","5","O.jpg","L.jpg","0","1","0","",""
"","feedback","","html-keyboard-response","259","342297","0.0-1.0-402.0-0.0","0","0","63397","","null","","","null","44","","","","","","","","","","","","","","","",""
"","time_out","","html-keyboard-response","260","344300","0.0-1.0-404.0-0.0","0","0","63397","","null","","","null","44","","","","","","","","","","","","","","","",""
"","ITI","","html-keyboard-response","261","345302","0.0-1.0-405.0","0","0","63397","","121","","","75","44","","","","","","","","","","","","","","","k",""
"","S1","","html-keyboard-response","262","345554","0.0-1.0-407.0","0","0","63397","","null","","","null","45","","","","","","","","","","","","","","","",""
"","ISI","","html-keyboard-response","263","346556","0.0-1.0-408.0","0","0","63397","","412","","","75","45","k","","","","","","","","","","","","","","",""
"","S2","","html-keyboard-response","264","346648","0.0-1.0-409.0","0","0","63397","","90","","","75","45","","k","1","45","training","adjacent","CB","3","2","Q.jpg","N.jpg","1","0","0","",""
"","feedback","","html-keyboard-response","265","347652","0.0-1.0-411.0-0.0","0","0","63397","","null","","","null","45","","","","","","","","","","","","","","","",""
"","time_out","","html-keyboard-response","266","349662","0.0-1.0-413.0-0.0","0","0","63397","","null","","","null","45","","","","","","","","","","","","","","","",""
"","ITI","","html-keyboard-response","267","350665","0.0-1.0-414.0","0","0","63397","","30","","","75","45","","","","","","","","","","","","","","","k",""
"","S1","","html-keyboard-response","268","350918","0.0-1.0-416.0","0","0","63397","","null","","","null","46","","","","","","","","","","","","","","","",""
"","ISI","","html-keyboard-response","269","351920","0.0-1.0-417.0","0","0","63397","","60","","","75","46","k","","","","","","","","","","","","","","",""
"","S2","","html-keyboard-response","270","351981","0.0-1.0-418.0","0","0","63397","","60","","","68","46","","d","1","46","training","adjacent","ED","5","4","L.jpg","O.jpg","0","0","1","",""
"","feedback","","html-keyboard-response","271","352988","0.0-1.0-420.0-0.0","0","0","63397","","null","","","null","46","","","","","","","","","","","","","","","",""
"","ITI","","html-keyboard-response","272","353992","0.0-1.0-423.0","0","0","63397","","48","","","68","46","","","","","","","","","","","","","","","d",""
"","S1","","html-keyboard-response","273","354244","0.0-1.0-425.0","0","0","63397","","null","","","null","47","","","","","","","","","","","","","","","",""
"","ISI","","html-keyboard-response","274","355246","0.0-1.0-426.0","0","0","63397","","203","","","68","47","d","","","","","","","","","","","","","","",""
"","S2","","html-keyboard-response","275","355270","0.0-1.0-427.0","0","0","63397","","21","","","75","47","","k","1","47","training","adjacent","AB","1","2","R.jpg","N.jpg","1","1","1","",""
"","feedback","","html-keyboard-response","276","356272","0.0-1.0-429.0-0.0","0","0","63397","","null","","","null","47","","","","","","","","","","","","","","","",""
"","ITI","","html-keyboard-response","277","357278","0.0-1.0-432.0","0","0","63397","","117","","","68","47","","","","","","","","","","","","","","","d",""
"","block_over","","html-keyboard-response","278","362679","0.0-1.0-433.0-0.0","0","0","63397","","5398","","","32","47","","","","","","","","","","","","","","","",""
"","S1","","html-keyboard-response","279","362939","0.0-1.0-434.0","0","0","63397","","null","","","null","48","","","","","","","","","","","","","","","",""
"","ISI","","html-keyboard-response","280","363941","0.0-1.0-435.0","0","0","63397","","476","","","68","48","d","","","","","","","","","","","","","","",""
"","S2","","html-keyboard-response","281","363983","0.0-1.0-436.0","0","0","63397","","41","","","68","48","","d","2","48","training","adjacent","EF","5","6","L.jpg","P.jpg","0","1","0","",""
"","feedback","","html-keyboard-response","282","364989","0.0-1.0-438.0-0.0","0","0","63397","","null","","","null","48","","","","","","","","","","","","","","","",""
"","time_out","","html-keyboard-response","283","366993","0.0-1.0-440.0-0.0","0","0","63397","","null","","","null","48","","","","","","","","","","","","","","","",""
"","ITI","","html-keyboard-response","284","367998","0.0-1.0-441.0","0","0","63397","","50","","","75","48","","","","","","","","","","","","","","","k",""
"","S1","","html-keyboard-response","285","368251","0.0-1.0-443.0","0","0","63397","","null","","","null","49","","","","","","","","","","","","","","","",""
"","ISI","","html-keyboard-response","286","369255","0.0-1.0-444.0","0","0","63397","","95","","","68","49","d","","","","","","","","","","","","","","",""
"","S2","","html-keyboard-response","287","369280","0.0-1.0-445.0","0","0","63397","","23","","","75","49","","k","2","49","training","adjacent","BA","2","1","N.jpg","R.jpg","1","0","0","",""
"","feedback","","html-keyboard-response","288","370288","0.0-1.0-447.0-0.0","0","0","63397","","null","","","null","49","","","","","","","","","","","","","","","",""
"","time_out","","html-keyboard-response","289","372294","0.0-1.0-449.0-0.0","0","0","63397","","null","","","null","49","","","","","","","","","","","","","","","",""
"","ITI","","html-keyboard-response","290","373305","0.0-1.0-450.0","0","0","63397","","86","","","68","49","","","","","","","","","","","","","","","d",""
"","S1","","html-keyboard-response","291","373558","0.0-1.0-452.0","0","0","63397","","null","","","null","50","","","","","","","","","","","","","","","",""
"","ISI","","html-keyboard-response","292","374559","0.0-1.0-453.0","0","0","63397","","131","","","75","50","k","","","","","","","","","","","","","","",""
"","S2","","html-keyboard-response","293","374666","0.0-1.0-454.0","0","0","63397","","105","","","75","50","","k","2","50","training","adjacent","EF","5","6","L.jpg","P.jpg","1","1","1","",""
"","feedback","","html-keyboard-response","294","375670","0.0-1.0-456.0-0.0","0","0","63397","","null","","","null","50","","","","","","","","","","","","","","","",""
"","ITI","","html-keyboard-response","295","376672","0.0-1.0-459.0","0","0","63397","","38","","","68","50","","","","","","","","","","","","","","","d",""
"","S1","","html-keyboard-response","296","376927","0.0-1.0-461.0","0","0","63397","","null","","","null","51","","","","","","","","","","","","","","","",""
"","ISI","","html-keyboard-response","297","377941","0.0-1.0-462.0","0","0","63397","","60","","","68","51","d","","","","","","","","","","","","","","",""
"","S2","","html-keyboard-response","298","378015","0.0-1.0-463.0","0","0","63397","","72","","","68","51","","d","2","51","training","adjacent","DC","4","3","O.jpg","Q.jpg","0","0","1","",""
"","feedback","","html-keyboard-response","299","379018","0.0-1.0-465.0-0.0","0","0","63397","","null","","","null","51","","","","","","","","","","","","","","","",""
"","ITI","","html-keyboard-response","300","380028","0.0-1.0-468.0","0","0","63397","","0","","","68","51","","","","","","","","","","","","","","","d",""
"","S1","","html-keyboard-response","301","380281","0.0-1.0-470.0","0","0","63397","","null","","","null","52","","","","","","","","","","","","","","","",""
"","ISI","","html-keyboard-response","302","381282","0.0-1.0-471.0","0","0","63397","","132","","","75","52","k","","","","","","","","","","","","","","",""
"","S2","","html-keyboard-response","303","381485","0.0-1.0-472.0","0","0","63397","","202","","","75","52","","k","2","52","training","adjacent","BA","2","1","N.jpg","R.jpg","1","0","0","",""
"","feedback","","html-keyboard-response","304","382488","0.0-1.0-474.0-0.0","0","0","63397","","null","","","null","52","","","","","","","","","","","","","","","",""
"","time_out","","html-keyboard-response","305","384491","0.0-1.0-476.0-0.0","0","0","63397","","null","","","null","52","","","","","","","","","","","","","","","",""
"","ITI","","html-keyboard-response","306","385494","0.0-1.0-477.0","0","0","63397","","null","","","null","52","","","","","","","","","","","","","","","NaN",""
"","S1","","html-keyboard-response","307","385746","0.0-1.0-479.0","0","0","63397","","null","","","null","53","","","","","","","","","","","","","","","",""
"","ISI","","html-keyboard-response","308","386754","0.0-1.0-480.0","0","0","63397","","null","","","null","53","NaN","","","","","","","","","","","","","","",""
"","S2","","html-keyboard-response","309","387006","0.0-1.0-481.0","0","0","63397","","null","","","null","53","","NaN","","","","","","","","","","","","","",""
"","response","","html-keyboard-response","310","388081","0.0-1.0-482.0-0.0","0","0","63397","","1074","","","75","53","","","2","53","training","adjacent","AB","1","2","R.jpg","N.jpg","1","1","1","",""
"","feedback","","html-keyboard-response","311","389088","0.0-1.0-483.0-0.0","0","0","63397","","null","","","null","53","","","","","","","","","","","","","","","",""
"","ITI","","html-keyboard-response","312","390096","0.0-1.0-486.0","0","0","63397","","62","","","75","53","","","","","","","","","","","","","","","k",""
"","S1","","html-keyboard-response","313","390348","0.0-1.0-488.0","0","0","63397","","null","","","null","54","","","","","","","","","","","","","","","",""
"","ISI","","html-keyboard-response","314","391351","0.0-1.0-489.0","0","0","63397","","129","","","75","54","k","","","","","","","","","","","","","","",""
"","S2","","html-keyboard-response","315","391424","0.0-1.0-490.0","0","0","63397","","71","","","68","54","","d","2","54","training","adjacent","GF","7","6","M.jpg","P.jpg","0","0","1","",""
"","feedback","","html-keyboard-response","316","392426","0.0-1.0-492.0-0.0","0","0","63397","","null","","","null","54","","","","","","","","","","","","","","","",""
"","ITI","","html-keyboard-response","317","393428","0.0-1.0-495.0","0","0","63397","","2","","","75","54","","","","","","","","","","","","","","","k",""
"","S1","","html-keyboard-response","318","393680","0.0-1.0-497.0","0","0","63397","","null","","","null","55","","","","","","","","","","","","","","","",""
"","ISI","","html-keyboard-response","319","394683","0.0-1.0-498.0","0","0","63397","","62","","","75","55","k","","","","","","","","","","","","","","",""
"","S2","","html-keyboard-response","320","394744","0.0-1.0-499.0","0","0","63397","","59","","","68","55","","d","2","55","training","adjacent","GF","7","6","M.jpg","P.jpg","0","0","1","",""
"","feedback","","html-keyboard-response","321","395746","0.0-1.0-501.0-0.0","0","0","63397","","null","","","null","55","","","","","","","","","","","","","","","",""
"","ITI","","html-keyboard-response","322","396748","0.0-1.0-504.0","0","0","63397","","115","","","75","55","","","","","","","","","","","","","","","k",""
"","S1","","html-keyboard-response","323","397007","0.0-1.0-506.0","0","0","63397","","null","","","null","56","","","","","","","","","","","","","","","",""
"","ISI","","html-keyboard-response","324","398009","0.0-1.0-507.0","0","0","63397","","111","","","68","56","d","","","","","","","","","","","","","","",""
"","S2","","html-keyboard-response","325","398268","0.0-1.0-508.0","0","0","63397","","null","","","null","56","","NaN","","","","","","","","","","","","","",""
"","response","","html-keyboard-response","326","398487","0.0-1.0-509.0-0.0","0","0","63397","","218","","","68","56","","","2","56","training","adjacent","BC","2","3","N.jpg","Q.jpg","0","1","0","",""
"","feedback","","html-keyboard-response","327","399492","0.0-1.0-510.0-0.0","0","0","63397","","null","","","null","56","","","","","","","","","","","","","","","",""
"","time_out","","html-keyboard-response","328","401497","0.0-1.0-512.0-0.0","0","0","63397","","null","","","null","56","","","","","","","","","","","","","","","",""
"","ITI","","html-keyboard-response","329","402499","0.0-1.0-513.0","0","0","63397","","21","","","75","56","","","","","","","","","","","","","","","k",""
"","S1","","html-keyboard-response","330","402753","0.0-1.0-515.0","0","0","63397","","null","","","null","57","","","","","","","","","","","","","","","",""
"","ISI","","html-keyboard-response","331","403755","0.0-1.0-516.0","0","0","63397","","28","","","68","57","d","","","","","","","","","","","","","","",""
"","S2","","html-keyboard-response","332","403994","0.0-1.0-517.0","0","0","63397","","238","","","68","57","","d","2","57","training","adjacent","BA","2","1","N.jpg","R.jpg","0","0","1","",""
"","feedback","","html-keyboard-response","333","404997","0.0-1.0-519.0-0.0","0","0","63397","","null","","","null","57","","","","","","","","","","","","","","","",""
"","ITI","","html-keyboard-response","334","405999","0.0-1.0-522.0","0","0","63397","","103","","","68","57","","","","","","","","","","","","","","","d",""
"","S1","","html-keyboard-response","335","406252","0.0-1.0-524.0","0","0","63397","","null","","","null","58","","","","","","","","","","","","","","","",""
"","ISI","","html-keyboard-response","336","407256","0.0-1.0-525.0","0","0","63397","","143","","","75","58","k","","","","","","","","","","","","","","",""
"","S2","","html-keyboard-response","337","407502","0.0-1.0-526.0","0","0","63397","","244","","","68","58","","d","2","58","training","adjacent","DE","4","5","O.jpg","L.jpg","0","1","0","",""
"","feedback","","html-keyboard-response","338","408504","0.0-1.0-528.0-0.0","0","0","63397","","null","","","null","58","","","","","","","","","","","","","","","",""
"","time_out","","html-keyboard-response","339","410509","0.0-1.0-530.0-0.0","0","0","63397","","null","","","null","58","","","","","","","","","","","","","","","",""
"","ITI","","html-keyboard-response","340","411515","0.0-1.0-531.0","0","0","63397","","177","","","75","58","","","","","","","","","","","","","","","k",""
"","S1","","html-keyboard-response","341","411773","0.0-1.0-533.0","0","0","63397","","null","","","null","59","","","","","","","","","","","","","","","",""
"","ISI","","html-keyboard-response","342","412781","0.0-1.0-534.0","0","0","63397","","130","","","75","59","k","","","","","","","","","","","","","","",""
"","S2","","html-keyboard-response","343","412849","0.0-1.0-535.0","0","0","63397","","66","","","75","59","","k","2","59","training","adjacent","CB","3","2","Q.jpg","N.jpg","1","0","0","",""
"","feedback","","html-keyboard-response","344","413851","0.0-1.0-537.0-0.0","0","0","63397","","null","","","null","59","","","","","","","","","","","","","","","",""
"","time_out","","html-keyboard-response","345","415854","0.0-1.0-539.0-0.0","0","0","63397","","null","","","null","59","","","","","","","","","","","","","","","",""
"","ITI","","html-keyboard-response","346","416857","0.0-1.0-540.0","0","0","63397","","125","","","75","59","","","","","","","","","","","","","","","k",""
"","S1","","html-keyboard-response","347","417111","0.0-1.0-542.0","0","0","63397","","null","","","null","60","","","","","","","","","","","","","","","",""
"","ISI","","html-keyboard-response","348","418117","0.0-1.0-543.0","0","0","63397","","86","","","75","60","k","","","","","","","","","","","","","","",""
"","S2","","html-keyboard-response","349","418142","0.0-1.0-544.0","0","0","63397","","21","","","68","60","","d","2","60","training","adjacent","FG","6","7","P.jpg","M.jpg","0","1","0","",""
"","feedback","","html-keyboard-response","350","419146","0.0-1.0-546.0-0.0","0","0","63397","","null","","","null","60","","","","","","","","","","","","","","","",""
"","time_out","","html-keyboard-response","351","421149","0.0-1.0-548.0-0.0","0","0","63397","","null","","","null","60","","","","","","","","","","","","","","","",""
"","ITI","","html-keyboard-response","352","422151","0.0-1.0-549.0","0","0","63397","","8","","","75","60","","","","","","","","","","","","","","","k",""
"","S1","","html-keyboard-response","353","422414","0.0-1.0-551.0","0","0","63397","","null","","","null","61","","","","","","","","","","","","","","","",""
"","ISI","","html-keyboard-response","354","423417","0.0-1.0-552.0","0","0","63397","","108","","","75","61","k","","","","","","","","","","","","","","",""
"","S2","","html-keyboard-response","355","423457","0.0-1.0-553.0","0","0","63397","","38","","","75","61","","k","2","61","training","adjacent","CD","3","4","Q.jpg","O.jpg","1","1","1","",""
"","feedback","","html-keyboard-response","356","424468","0.0-1.0-555.0-0.0","0","0","63397","","null","","","null","61","","","","","","","","","","","","","","","",""
"","ITI","","html-keyboard-response","357","425472","0.0-1.0-558.0","0","0","63397","","34","","","68","61","","","","","","","","","","","","","","","d",""
"","S1","","html-keyboard-response","358","425726","0.0-1.0-560.0","0","0","63397","","null","","","null","62","","","","","","","","","","","","","","","",""
"","ISI","","html-keyboard-response","359","426729","0.0-1.0-561.0","0","0","63397","","44","","","75","62","k","","","","","","","","","","","","","","",""
"","S2","","html-keyboard-response","360","426731","0.0-1.0-562.0","0","0","63397","","1","","","75","62","","k","2","62","training","adjacent","ED","5","4","L.jpg","O.jpg","1","0","0","",""
"","feedback","","html-keyboard-response","361","427731","0.0-1.0-564.0-0.0","0","0","63397","","null","","","null","62","","","","","","","","","","","","","","","",""
"","time_out","","html-keyboard-response","362","429733","0.0-1.0-566.0-0.0","0","0","63397","","null","","","null","62","","","","","","","","","","","","","","","",""
"","ITI","","html-keyboard-response","363","430735","0.0-1.0-567.0","0","0","63397","","138","","","68","62","","","","","","","","","","","","","","","d",""
"","S1","","html-keyboard-response","364","430988","0.0-1.0-569.0","0","0","63397","","null","","","null","63","","","","","","","","","","","","","","","",""
"","ISI","","html-keyboard-response","365","431990","0.0-1.0-570.0","0","0","63397","","95","","","75","63","k","","","","","","","","","","","","","","",""
"","S2","","html-keyboard-response","366","431999","0.0-1.0-571.0","0","0","63397","","5","","","68","63","","d","2","63","training","adjacent","AB","1","2","R.jpg","N.jpg","0","1","0","",""
"","feedback","","html-keyboard-response","367","433002","0.0-1.0-573.0-0.0","0","0","63397","","null","","","null","63","","","","","","","","","","","","","","","",""
"","time_out","","html-keyboard-response","368","435010","0.0-1.0-575.0-0.0","0","0","63397","","null","","","null","63","","","","","","","","","","","","","","","",""
"","ITI","","html-keyboard-response","369","436012","0.0-1.0-576.0","0","0","63397","","13","","","75","63","","","","","","","","","","","","","","","k",""
"","S1","","html-keyboard-response","370","436271","0.0-1.0-578.0","0","0","63397","","null","","","null","64","","","","","","","","","","","","","","","",""
"","ISI","","html-keyboard-response","371","437275","0.0-1.0-579.0","0","0","63397","","12","","","68","64","d","","","","","","","","","","","","","","",""
"","S2","","html-keyboard-response","372","437460","0.0-1.0-580.0","0","0","63397","","184","","","75","64","","k","2","64","training","adjacent","AB","1","2","R.jpg","N.jpg","1","1","1","",""
"","feedback","","html-keyboard-response","373","438464","0.0-1.0-582.0-0.0","0","0","63397","","null","","","null","64","","","","","","","","","","","","","","","",""
"","ITI","","html-keyboard-response","374","439465","0.0-1.0-585.0","0","0","63397","","0","","","68","64","","","","","","","","","","","","","","","d",""
"","S1","","html-keyboard-response","375","439718","0.0-1.0-587.0","0","0","63397","","null","","","null","65","","","","","","","","","","","","","","","",""
"","ISI","","html-keyboard-response","376","440721","0.0-1.0-588.0","0","0","63397","","18","","","68","65","d","","","","","","","","","","","","","","",""
"","S2","","html-keyboard-response","377","440737","0.0-1.0-589.0","0","0","63397","","12","","","68","65","","d","2","65","training","adjacent","DE","4","5","O.jpg","L.jpg","0","1","0","",""
"","feedback","","html-keyboard-response","378","441739","0.0-1.0-591.0-0.0","0","0","63397","","null","","","null","65","","","","","","","","","","","","","","","",""
"","time_out","","html-keyboard-response","379","443740","0.0-1.0-593.0-0.0","0","0","63397","","null","","","null","65","","","","","","","","","","","","","","","",""
"","ITI","","html-keyboard-response","380","444741","0.0-1.0-594.0","0","0","63397","","184","","","75","65","","","","","","","","","","","","","","","k",""
"","S1","","html-keyboard-response","381","444994","0.0-1.0-596.0","0","0","63397","","null","","","null","66","","","","","","","","","","","","","","","",""
"","ISI","","html-keyboard-response","382","445996","0.0-1.0-597.0","0","0","63397","","128","","","68","66","d","","","","","","","","","","","","","","",""
"","S2","","html-keyboard-response","383","446156","0.0-1.0-598.0","0","0","63397","","159","","","75","66","","k","2","66","training","adjacent","ED","5","4","L.jpg","O.jpg","1","0","0","",""
"","feedback","","html-keyboard-response","384","447162","0.0-1.0-600.0-0.0","0","0","63397","","null","","","null","66","","","","","","","","","","","","","","","",""
"","time_out","","html-keyboard-response","385","449164","0.0-1.0-602.0-0.0","0","0","63397","","null","","","null","66","","","","","","","","","","","","","","","",""
"","ITI","","html-keyboard-response","386","450167","0.0-1.0-603.0","0","0","63397","","126","","","68","66","","","","","","","","","","","","","","","d",""
"","S1","","html-keyboard-response","387","450420","0.0-1.0-605.0","0","0","63397","","null","","","null","67","","","","","","","","","","","","","","","",""
"","ISI","","html-keyboard-response","388","451423","0.0-1.0-606.0","0","0","63397","","374","","","75","67","k","","","","","","","","","","","","","","",""
"","S2","","html-keyboard-response","389","451635","0.0-1.0-607.0","0","0","63397","","211","","","75","67","","k","2","67","training","adjacent","FE","6","5","P.jpg","L.jpg","1","0","0","",""
"","feedback","","html-keyboard-response","390","452637","0.0-1.0-609.0-0.0","0","0","63397","","null","","","null","67","","","","","","","","","","","","","","","",""
"","time_out","","html-keyboard-response","391","454638","0.0-1.0-611.0-0.0","0","0","63397","","null","","","null","67","","","","","","","","","","","","","","","",""
"","ITI","","html-keyboard-response","392","455640","0.0-1.0-612.0","0","0","63397","","53","","","68","67","","","","","","","","","","","","","","","d",""
"","S1","","html-keyboard-response","393","455895","0.0-1.0-614.0","0","0","63397","","null","","","null","68","","","","","","","","","","","","","","","",""
"","ISI","","html-keyboard-response","394","456907","0.0-1.0-615.0","0","0","63397","","68","","","75","68","k","","","","","","","","","","","","","","",""
"","S2","","html-keyboard-response","395","457002","0.0-1.0-616.0","0","0","63397","","92","","","68","68","","d","2","68","training","adjacent","BC","2","3","N.jpg","Q.jpg","0","1","0","",""
"","feedback","","html-keyboard-response","396","458004","0.0-1.0-618.0-0.0","0","0","63397","","null","","","null","68","","","","","","","","","","","","","","","",""
"","time_out","","html-keyboard-response","397","460006","0.0-1.0-620.0-0.0","0","0","63397","","null","","","null","68","","","","","","","","","","","","","","","",""
"","ITI","","html-keyboard-response","398","461007","0.0-1.0-621.0","0","0","63397","","88","","","75","68","","","","","","","","","","","","","","","k",""
"","S1","","html-keyboard-response","399","461259","0.0-1.0-623.0","0","0","63397","","null","","","null","69","","","","","","","","","","","","","","","",""
"","ISI","","html-keyboard-response","400","462261","0.0-1.0-624.0","0","0","63397","","160","","","68","69","d","","","","","","","","","","","","","","",""
"","S2","","html-keyboard-response","401","462318","0.0-1.0-625.0","0","0","63397","","56","","","75","69","","k","2","69","training","adjacent","DE","4","5","O.jpg","L.jpg","1","1","1","",""
"","feedback","","html-keyboard-response","402","463319","0.0-1.0-627.0-0.0","0","0","63397","","null","","","null","69","","","","","","","","","","","","","","","",""
"","ITI","","html-keyboard-response","403","464322","0.0-1.0-630.0","0","0","63397","","178","","","75","69","","","","","","","","","","","","","","","k",""
"","S1","","html-keyboard-response","404","464574","0.0-1.0-632.0","0","0","63397","","null","","","null","70","","","","","","","","","","","","","","","",""
"","ISI","","html-keyboard-response","405","465580","0.0-1.0-633.0","0","0","63397","","71","","","75","70","k","","","","","","","","","","","","","","",""
"","S2","","html-keyboard-response","406","465727","0.0-1.0-634.0","0","0","63397","","145","","","75","70","","k","2","70","training","adjacent","DC","4","3","O.jpg","Q.jpg","1","0","0","",""
"","feedback","","html-keyboard-response","407","466730","0.0-1.0-636.0-0.0","0","0","63397","","null","","","null","70","","","","","","","","","","","","","","","",""
"","time_out","","html-keyboard-response","408","468732","0.0-1.0-638.0-0.0","0","0","63397","","null","","","null","70","","","","","","","","","","","","","","","",""
"","ITI","","html-keyboard-response","409","469735","0.0-1.0-639.0","0","0","63397","","123","","","75","70","","","","","","","","","","","","","","","k",""
"","S1","","html-keyboard-response","410","469987","0.0-1.0-641.0","0","0","63397","","null","","","null","71","","","","","","","","","","","","","","","",""
"","ISI","","html-keyboard-response","411","470989","0.0-1.0-642.0","0","0","63397","","18","","","68","71","d","","","","","","","","","","","","","","",""
"","S2","","html-keyboard-response","412","471191","0.0-1.0-643.0","0","0","63397","","199","","","75","71","","k","2","71","training","adjacent","FG","6","7","P.jpg","M.jpg","1","1","1","",""
"","feedback","","html-keyboard-response","413","472199","0.0-1.0-645.0-0.0","0","0","63397","","null","","","null","71","","","","","","","","","","","","","","","",""
"","ITI","","html-keyboard-response","414","473203","0.0-1.0-648.0","0","0","63397","","51","","","75","71","","","","","","","","","","","","","","","k",""
"","S1","","html-keyboard-response","415","473460","0.0-1.0-650.0","0","0","63397","","null","","","null","72","","","","","","","","","","","","","","","",""
"","ISI","","html-keyboard-response","416","474464","0.0-1.0-651.0","0","0","63397","","22","","","75","72","k","","","","","","","","","","","","","","",""
"","S2","","html-keyboard-response","417","474534","0.0-1.0-652.0","0","0","63397","","67","","","75","72","","k","2","72","training","adjacent","FE","6","5","P.jpg","L.jpg","1","0","0","",""
"","feedback","","html-keyboard-response","418","475540","0.0-1.0-654.0-0.0","0","0","63397","","null","","","null","72","","","","","","","","","","","","","","","",""
"","time_out","","html-keyboard-response","419","477544","0.0-1.0-656.0-0.0","0","0","63397","","null","","","null","72","","","","","","","","","","","","","","","",""
"","ITI","","html-keyboard-response","420","478551","0.0-1.0-657.0","0","0","63397","","1","","","75","72","","","","","","","","","","","","","","","k",""
"","S1","","html-keyboard-response","421","478807","0.0-1.0-659.0","0","0","63397","","null","","","null","73","","","","","","","","","","","","","","","",""
"","ISI","","html-keyboard-response","422","479809","0.0-1.0-660.0","0","0","63397","","53","","","68","73","d","","","","","","","","","","","","","","",""
"","S2","","html-keyboard-response","423","479815","0.0-1.0-661.0","0","0","63397","","5","","","68","73","","d","2","73","training","adjacent","BC","2","3","N.jpg","Q.jpg","0","1","0","",""
"","feedback","","html-keyboard-response","424","480818","0.0-1.0-663.0-0.0","0","0","63397","","null","","","null","73","","","","","","","","","","","","","","","",""
"","time_out","","html-keyboard-response","425","482821","0.0-1.0-665.0-0.0","0","0","63397","","null","","","null","73","","","","","","","","","","","","","","","",""
"","ITI","","html-keyboard-response","426","483822","0.0-1.0-666.0","0","0","63397","","63","","","75","73","","","","","","","","","","","","","","","k",""
"","S1","","html-keyboard-response","427","484076","0.0-1.0-668.0","0","0","63397","","null","","","null","74","","","","","","","","","","","","","","","",""
"","ISI","","html-keyboard-response","428","485087","0.0-1.0-669.0","0","0","63397","","46","","","75","74","k","","","","","","","","","","","","","","",""
"","S2","","html-keyboard-response","429","485100","0.0-1.0-670.0","0","0","63397","","10","","","75","74","","k","2","74","training","adjacent","CD","3","4","Q.jpg","O.jpg","1","1","1","",""
"","feedback","","html-keyboard-response","430","486101","0.0-1.0-672.0-0.0","0","0","63397","","null","","","null","74","","","","","","","","","","","","","","","",""
"","ITI","","html-keyboard-response","431","487104","0.0-1.0-675.0","0","0","63397","","6","","","75","74","","","","","","","","","","","","","","","k",""
"","S1","","html-keyboard-response","432","487365","0.0-1.0-677.0","0","0","63397","","null","","","null","75","","","","","","","","","","","","","","","",""
"","ISI","","html-keyboard-response","433","488368","0.0-1.0-678.0","0","0","63397","","165","","","68","75","d","","","","","","","","","","","","","","",""
"","S2","","html-keyboard-response","434","488426","0.0-1.0-679.0","0","0","63397","","55","","","75","75","","k","2","75","training","adjacent","AB","1","2","R.jpg","N.jpg","1","1","1","",""
"","feedback","","html-keyboard-response","435","489429","0.0-1.0-681.0-0.0","0","0","63397","","null","","","null","75","","","","","","","","","","","","","","","",""
"","ITI","","html-keyboard-response","436","490430","0.0-1.0-684.0","0","0","63397","","48","","","68","75","","","","","","","","","","","","","","","d",""
"","S1","","html-keyboard-response","437","490683","0.0-1.0-686.0","0","0","63397","","null","","","null","76","","","","","","","","","","","","","","","",""
"","ISI","","html-keyboard-response","438","491689","0.0-1.0-687.0","0","0","63397","","100","","","75","76","k","","","","","","","","","","","","","","",""
"","S2","","html-keyboard-response","439","491696","0.0-1.0-688.0","0","0","63397","","3","","","68","76","","d","2","76","training","adjacent","DC","4","3","O.jpg","Q.jpg","0","0","1","",""
"","feedback","","html-keyboard-response","440","492698","0.0-1.0-690.0-0.0","0","0","63397","","null","","","null","76","","","","","","","","","","","","","","","",""
"","ITI","","html-keyboard-response","441","493701","0.0-1.0-693.0","0","0","63397","","44","","","68","76","","","","","","","","","","","","","","","d",""
"","S1","","html-keyboard-response","442","493956","0.0-1.0-695.0","0","0","63397","","null","","","null","77","","","","","","","","","","","","","","","",""
"","ISI","","html-keyboard-response","443","494959","0.0-1.0-696.0","0","0","63397","","81","","","75","77","k","","","","","","","","","","","","","","",""
"","S2","","html-keyboard-response","444","495134","0.0-1.0-697.0","0","0","63397","","172","","","75","77","","k","2","77","training","adjacent","CD","3","4","Q.jpg","O.jpg","1","1","1","",""
"","feedback","","html-keyboard-response","445","496136","0.0-1.0-699.0-0.0","0","0","63397","","null","","","null","77","","","","","","","","","","","","","","","",""
"","ITI","","html-keyboard-response","446","497138","0.0-1.0-702.0","0","0","63397","","109","","","75","77","","","","","","","","","","","","","","","k",""
"","S1","","html-keyboard-response","447","497402","0.0-1.0-704.0","0","0","63397","","null","","","null","78","","","","","","","","","","","","","","","",""
"","ISI","","html-keyboard-response","448","498404","0.0-1.0-705.0","0","0","63397","","9","","","68","78","d","","","","","","","","","","","","","","",""
"","S2","","html-keyboard-response","449","498512","0.0-1.0-706.0","0","0","63397","","105","","","75","78","","k","2","78","training","adjacent","GF","7","6","M.jpg","P.jpg","1","0","0","",""
"","feedback","","html-keyboard-response","450","499517","0.0-1.0-708.0-0.0","0","0","63397","","null","","","null","78","","","","","","","","","","","","","","","",""
"","time_out","","html-keyboard-response","451","501530","0.0-1.0-710.0-0.0","0","0","63397","","null","","","null","78","","","","","","","","","","","","","","","",""
"","ITI","","html-keyboard-response","452","502533","0.0-1.0-711.0","0","0","63397","","2","","","75","78","","","","","","","","","","","","","","","k",""
"","S1","","html-keyboard-response","453","502793","0.0-1.0-713.0","0","0","63397","","null","","","null","79","","","","","","","","","","","","","","","",""
"","ISI","","html-keyboard-response","454","503801","0.0-1.0-714.0","0","0","63397","","64","","","75","79","k","","","","","","","","","","","","","","",""
"","S2","","html-keyboard-response","455","503846","0.0-1.0-715.0","0","0","63397","","43","","","75","79","","k","2","79","training","adjacent","ED","5","4","L.jpg","O.jpg","1","0","0","",""
"","feedback","","html-keyboard-response","456","504848","0.0-1.0-717.0-0.0","0","0","63397","","null","","","null","79","","","","","","","","","","","","","","","",""
"","time_out","","html-keyboard-response","457","506851","0.0-1.0-719.0-0.0","0","0","63397","","null","","","null","79","","","","","","","","","","","","","","","",""
"","ITI","","html-keyboard-response","458","507853","0.0-1.0-720.0","0","0","63397","","8","","","68","79","","","","","","","","","","","","","","","d",""
"","S1","","html-keyboard-response","459","508104","0.0-1.0-722.0","0","0","63397","","null","","","null","80","","","","","","","","","","","","","","","",""
"","ISI","","html-keyboard-response","460","509116","0.0-1.0-723.0","0","0","63397","","97","","","75","80","k","","","","","","","","","","","","","","",""
"","S2","","html-keyboard-response","461","509190","0.0-1.0-724.0","0","0","63397","","72","","","75","80","","k","2","80","training","adjacent","GF","7","6","M.jpg","P.jpg","1","0","0","",""
"","feedback","","html-keyboard-response","462","510192","0.0-1.0-726.0-0.0","0","0","63397","","null","","","null","80","","","","","","","","","","","","","","","",""
"","time_out","","html-keyboard-response","463","512195","0.0-1.0-728.0-0.0","0","0","63397","","null","","","null","80","","","","","","","","","","","","","","","",""
"","ITI","","html-keyboard-response","464","513197","0.0-1.0-729.0","0","0","63397","","31","","","75","80","","","","","","","","","","","","","","","k",""
"","S1","","html-keyboard-response","465","513452","0.0-1.0-731.0","0","0","63397","","null","","","null","81","","","","","","","","","","","","","","","",""
"","ISI","","html-keyboard-response","466","514465","0.0-1.0-732.0","0","0","63397","","69","","","75","81","k","","","","","","","","","","","","","","",""
"","S2","","html-keyboard-response","467","514574","0.0-1.0-733.0","0","0","63397","","107","","","75","81","","k","2","81","training","adjacent","FG","6","7","P.jpg","M.jpg","1","1","1","",""
"","feedback","","html-keyboard-response","468","515576","0.0-1.0-735.0-0.0","0","0","63397","","null","","","null","81","","","","","","","","","","","","","","","",""
"","ITI","","html-keyboard-response","469","516585","0.0-1.0-738.0","0","0","63397","","180","","","68","81","","","","","","","","","","","","","","","d",""
"","S1","","html-keyboard-response","470","516845","0.0-1.0-740.0","0","0","63397","","null","","","null","82","","","","","","","","","","","","","","","",""
"","ISI","","html-keyboard-response","471","517847","0.0-1.0-741.0","0","0","63397","","16","","","68","82","d","","","","","","","","","","","","","","",""
"","S2","","html-keyboard-response","472","518035","0.0-1.0-742.0","0","0","63397","","186","","","75","82","","k","2","82","training","adjacent","CB","3","2","Q.jpg","N.jpg","1","0","0","",""
"","feedback","","html-keyboard-response","473","519037","0.0-1.0-744.0-0.0","0","0","63397","","null","","","null","82","","","","","","","","","","","","","","","",""
"","time_out","","html-keyboard-response","474","521039","0.0-1.0-746.0-0.0","0","0","63397","","null","","","null","82","","","","","","","","","","","","","","","",""
"","ITI","","html-keyboard-response","475","522041","0.0-1.0-747.0","0","0","63397","","52","","","68","82","","","","","","","","","","","","","","","d",""
"","S1","","html-keyboard-response","476","522292","0.0-1.0-749.0","0","0","63397","","null","","","null","83","","","","","","","","","","","","","","","",""
"","ISI","","html-keyboard-response","477","523295","0.0-1.0-750.0","0","0","63397","","118","","","75","83","k","","","","","","","","","","","","","","",""
"","S2","","html-keyboard-response","478","523385","0.0-1.0-751.0","0","0","63397","","88","","","75","83","","k","2","83","training","adjacent","FE","6","5","P.jpg","L.jpg","1","0","0","",""
"","feedback","","html-keyboard-response","479","524392","0.0-1.0-753.0-0.0","0","0","63397","","null","","","null","83","","","","","","","","","","","","","","","",""
"","time_out","","html-keyboard-response","480","526394","0.0-1.0-755.0-0.0","0","0","63397","","null","","","null","83","","","","","","","","","","","","","","","",""
"","ITI","","html-keyboard-response","481","527395","0.0-1.0-756.0","0","0","63397","","98","","","75","83","","","","","","","","","","","","","","","k",""
"","S1","","html-keyboard-response","482","527648","0.0-1.0-758.0","0","0","63397","","null","","","null","84","","","","","","","","","","","","","","","",""
"","ISI","","html-keyboard-response","483","528651","0.0-1.0-759.0","0","0","63397","","53","","","75","84","k","","","","","","","","","","","","","","",""
"","S2","","html-keyboard-response","484","528729","0.0-1.0-760.0","0","0","63397","","76","","","75","84","","k","2","84","training","adjacent","DC","4","3","O.jpg","Q.jpg","1","0","0","",""
"","feedback","","html-keyboard-response","485","529736","0.0-1.0-762.0-0.0","0","0","63397","","null","","","null","84","","","","","","","","","","","","","","","",""
"","time_out","","html-keyboard-response","486","531737","0.0-1.0-764.0-0.0","0","0","63397","","null","","","null","84","","","","","","","","","","","","","","","",""
"","ITI","","html-keyboard-response","487","532739","0.0-1.0-765.0","0","0","63397","","178","","","75","84","","","","","","","","","","","","","","","k",""
"","S1","","html-keyboard-response","488","532997","0.0-1.0-767.0","0","0","63397","","null","","","null","85","","","","","","","","","","","","","","","",""
"","ISI","","html-keyboard-response","489","533998","0.0-1.0-768.0","0","0","63397","","25","","","75","85","k","","","","","","","","","","","","","","",""
"","S2","","html-keyboard-response","490","534087","0.0-1.0-769.0","0","0","63397","","87","","","75","85","","k","2","85","training","adjacent","ED","5","4","L.jpg","O.jpg","1","0","0","",""
"","feedback","","html-keyboard-response","491","535090","0.0-1.0-771.0-0.0","0","0","63397","","null","","","null","85","","","","","","","","","","","","","","","",""
"","time_out","","html-keyboard-response","492","537097","0.0-1.0-773.0-0.0","0","0","63397","","null","","","null","85","","","","","","","","","","","","","","","",""
"","ITI","","html-keyboard-response","493","538098","0.0-1.0-774.0","0","0","63397","","18","","","75","85","","","","","","","","","","","","","","","k",""
"","S1","","html-keyboard-response","494","538358","0.0-1.0-776.0","0","0","63397","","null","","","null","86","","","","","","","","","","","","","","","",""
"","ISI","","html-keyboard-response","495","539366","0.0-1.0-777.0","0","0","63397","","7","","","75","86","k","","","","","","","","","","","","","","",""
"","S2","","html-keyboard-response","496","539627","0.0-1.0-778.0","0","0","63397","","null","","","null","86","","NaN","","","","","","","","","","","","","",""
"","response","","html-keyboard-response","497","539629","0.0-1.0-779.0-0.0","0","0","63397","","0","","","75","86","","","2","86","training","adjacent","EF","5","6","L.jpg","P.jpg","1","1","1","",""
"","feedback","","html-keyboard-response","498","540630","0.0-1.0-780.0-0.0","0","0","63397","","null","","","null","86","","","","","","","","","","","","","","","",""
"","ITI","","html-keyboard-response","499","541632","0.0-1.0-783.0","0","0","63397","","60","","","75","86","","","","","","","","","","","","","","","k",""
"","S1","","html-keyboard-response","500","541884","0.0-1.0-785.0","0","0","63397","","null","","","null","87","","","","","","","","","","","","","","","",""
"","ISI","","html-keyboard-response","501","542889","0.0-1.0-786.0","0","0","63397","","224","","","75","87","k","","","","","","","","","","","","","","",""
"","S2","","html-keyboard-response","502","543056","0.0-1.0-787.0","0","0","63397","","164","","","68","87","","d","2","87","training","adjacent","CB","3","2","Q.jpg","N.jpg","0","0","1","",""
"","feedback","","html-keyboard-response","503","544060","0.0-1.0-789.0-0.0","0","0","63397","","null","","","null","87","","","","","","","","","","","","","","","",""
"","ITI","","html-keyboard-response","504","545067","0.0-1.0-792.0","0","0","63397","","143","","","75","87","","","","","","","","","","","","","","","k",""
"","S1","","html-keyboard-response","505","545319","0.0-1.0-794.0","0","0","63397","","null","","","null","88","","","","","","","","","","","","","","","",""
"","ISI","","html-keyboard-response","506","546321","0.0-1.0-795.0","0","0","63397","","67","","","75","88","k","","","","","","","","","","","","","","",""
"","S2","","html-keyboard-response","507","546375","0.0-1.0-796.0","0","0","63397","","52","","","68","88","","d","2","88","training","adjacent","BC","2","3","N.jpg","Q.jpg","0","1","0","",""
"","feedback","","html-keyboard-response","508","547378","0.0-1.0-798.0-0.0","0","0","63397","","null","","","null","88","","","","","","","","","","","","","","","",""
"","time_out","","html-keyboard-response","509","549380","0.0-1.0-800.0-0.0","0","0","63397","","null","","","null","88","","","","","","","","","","","","","","","",""
"","ITI","","html-keyboard-response","510","550382","0.0-1.0-801.0","0","0","63397","","23","","","68","88","","","","","","","","","","","","","","","d",""
"","S1","","html-keyboard-response","511","550636","0.0-1.0-803.0","0","0","63397","","null","","","null","89","","","","","","","","","","","","","","","",""
"","ISI","","html-keyboard-response","512","551639","0.0-1.0-804.0","0","0","63397","","2","","","75","89","k","","","","","","","","","","","","","","",""
"","S2","","html-keyboard-response","513","551699","0.0-1.0-805.0","0","0","63397","","57","","","75","89","","k","2","89","training","adjacent","EF","5","6","L.jpg","P.jpg","1","1","1","",""
"","feedback","","html-keyboard-response","514","552702","0.0-1.0-807.0-0.0","0","0","63397","","null","","","null","89","","","","","","","","","","","","","","","",""
"","ITI","","html-keyboard-response","515","553708","0.0-1.0-810.0","0","0","63397","","23","","","75","89","","","","","","","","","","","","","","","k",""
"","S1","","html-keyboard-response","516","553962","0.0-1.0-812.0","0","0","63397","","null","","","null","90","","","","","","","","","","","","","","","",""
"","ISI","","html-keyboard-response","517","554965","0.0-1.0-813.0","0","0","63397","","52","","","75","90","k","","","","","","","","","","","","","","",""
"","S2","","html-keyboard-response","518","554985","0.0-1.0-814.0","0","0","63397","","18","","","75","90","","k","2","90","training","adjacent","BA","2","1","N.jpg","R.jpg","1","0","0","",""
"","feedback","","html-keyboard-response","519","555987","0.0-1.0-816.0-0.0","0","0","63397","","null","","","null","90","","","","","","","","","","","","","","","",""
"","time_out","","html-keyboard-response","520","557997","0.0-1.0-818.0-0.0","0","0","63397","","null","","","null","90","","","","","","","","","","","","","","","",""
"","ITI","","html-keyboard-response","521","559001","0.0-1.0-819.0","0","0","63397","","2","","","68","90","","","","","","","","","","","","","","","d",""
"","S1","","html-keyboard-response","522","559254","0.0-1.0-821.0","0","0","63397","","null","","","null","91","","","","","","","","","","","","","","","",""
"","ISI","","html-keyboard-response","523","560255","0.0-1.0-822.0","0","0","63397","","33","","","75","91","k","","","","","","","","","","","","","","",""
"","S2","","html-keyboard-response","524","560343","0.0-1.0-823.0","0","0","63397","","86","","","75","91","","k","2","91","training","adjacent","FE","6","5","P.jpg","L.jpg","1","0","0","",""
"","feedback","","html-keyboard-response","525","561347","0.0-1.0-825.0-0.0","0","0","63397","","null","","","null","91","","","","","","","","","","","","","","","",""
"","time_out","","html-keyboard-response","526","563356","0.0-1.0-827.0-0.0","0","0","63397","","null","","","null","91","","","","","","","","","","","","","","","",""
"","ITI","","html-keyboard-response","527","564358","0.0-1.0-828.0","0","0","63397","","73","","","68","91","","","","","","","","","","","","","","","d",""
"","S1","","html-keyboard-response","528","564610","0.0-1.0-830.0","0","0","63397","","null","","","null","92","","","","","","","","","","","","","","","",""
"","ISI","","html-keyboard-response","529","565622","0.0-1.0-831.0","0","0","63397","","43","","","75","92","k","","","","","","","","","","","","","","",""
"","S2","","html-keyboard-response","530","565631","0.0-1.0-832.0","0","0","63397","","6","","","75","92","","k","2","92","training","adjacent","DE","4","5","O.jpg","L.jpg","1","1","1","",""
"","feedback","","html-keyboard-response","531","566637","0.0-1.0-834.0-0.0","0","0","63397","","null","","","null","92","","","","","","","","","","","","","","","",""
"","ITI","","html-keyboard-response","532","567640","0.0-1.0-837.0","0","0","63397","","51","","","75","92","","","","","","","","","","","","","","","k",""
"","S1","","html-keyboard-response","533","567901","0.0-1.0-839.0","0","0","63397","","null","","","null","93","","","","","","","","","","","","","","","",""
"","ISI","","html-keyboard-response","534","568905","0.0-1.0-840.0","0","0","63397","","136","","","75","93","k","","","","","","","","","","","","","","",""
"","S2","","html-keyboard-response","535","568973","0.0-1.0-841.0","0","0","63397","","66","","","75","93","","k","2","93","training","adjacent","CD","3","4","Q.jpg","O.jpg","1","1","1","",""
"","feedback","","html-keyboard-response","536","569978","0.0-1.0-843.0-0.0","0","0","63397","","null","","","null","93","","","","","","","","","","","","","","","",""
"","ITI","","html-keyboard-response","537","570981","0.0-1.0-846.0","0","0","63397","","89","","","75","93","","","","","","","","","","","","","","","k",""
"","S1","","html-keyboard-response","538","571233","0.0-1.0-848.0","0","0","63397","","null","","","null","94","","","","","","","","","","","","","","","",""
"","ISI","","html-keyboard-response","539","572235","0.0-1.0-849.0","0","0","63397","","70","","","68","94","d","","","","","","","","","","","","","","",""
"","S2","","html-keyboard-response","540","572273","0.0-1.0-850.0","0","0","63397","","35","","","75","94","","k","2","94","training","adjacent","CB","3","2","Q.jpg","N.jpg","1","0","0","",""
"","feedback","","html-keyboard-response","541","573276","0.0-1.0-852.0-0.0","0","0","63397","","null","","","null","94","","","","","","","","","","","","","","","",""
"","time_out","","html-keyboard-response","542","575278","0.0-1.0-854.0-0.0","0","0","63397","","null","","","null","94","","","","","","","","","","","","","","","",""
"","ITI","","html-keyboard-response","543","576287","0.0-1.0-855.0","0","0","63397","","46","","","75","94","","","","","","","","","","","","","","","k",""
"","S1","","html-keyboard-response","544","576540","0.0-1.0-857.0","0","0","63397","","null","","","null","95","","","","","","","","","","","","","","","",""
"","ISI","","html-keyboard-response","545","577548","0.0-1.0-858.0","0","0","63397","","48","","","75","95","k","","","","","","","","","","","","","","",""
"","S2","","html-keyboard-response","546","577588","0.0-1.0-859.0","0","0","63397","","38","","","75","95","","k","2","95","training","adjacent","FG","6","7","P.jpg","M.jpg","1","1","1","",""
"","feedback","","html-keyboard-response","547","578592","0.0-1.0-861.0-0.0","0","0","63397","","null","","","null","95","","","","","","","","","","","","","","","",""
"","ITI","","html-keyboard-response","548","579593","0.0-1.0-864.0","0","0","63397","","19","","","68","95","","","","","","","","","","","","","","","d",""
"","block_over","","html-keyboard-response","549","633848","0.0-1.0-865.0-0.0","0","0","63397","","54253","","","32","95","","","","","","","","","","","","","","","",""
"","S1","","html-keyboard-response","550","634101","0.0-1.0-866.0","0","0","63397","","null","","","null","96","","","","","","","","","","","","","","","",""
"","ISI","","html-keyboard-response","551","635113","0.0-1.0-867.0","0","0","63397","","351","","","75","96","k","","","","","","","","","","","","","","",""
"","S2","","html-keyboard-response","552","635175","0.0-1.0-868.0","0","0","63397","","61","","","75","96","","k","3","96","training","adjacent","GF","7","6","M.jpg","P.jpg","1","0","0","",""
"","feedback","","html-keyboard-response","553","636184","0.0-1.0-870.0-0.0","0","0","63397","","null","","","null","96","","","","","","","","","","","","","","","",""
"","time_out","","html-keyboard-response","554","638186","0.0-1.0-872.0-0.0","0","0","63397","","null","","","null","96","","","","","","","","","","","","","","","",""
"","ITI","","html-keyboard-response","555","639196","0.0-1.0-873.0","0","0","63397","","96","","","75","96","","","","","","","","","","","","","","","k",""
"","S1","","html-keyboard-response","556","639449","0.0-1.0-875.0","0","0","63397","","null","","","null","97","","","","","","","","","","","","","","","",""
"","ISI","","html-keyboard-response","557","640451","0.0-1.0-876.0","0","0","63397","","75","","","75","97","k","","","","","","","","","","","","","","",""
"","S2","","html-keyboard-response","558","640506","0.0-1.0-877.0","0","0","63397","","52","","","75","97","","k","3","97","training","adjacent","AB","1","2","R.jpg","N.jpg","1","1","1","",""
"","feedback","","html-keyboard-response","559","641509","0.0-1.0-879.0-0.0","0","0","63397","","null","","","null","97","","","","","","","","","","","","","","","",""
"","ITI","","html-keyboard-response","560","642518","0.0-1.0-882.0","0","0","63397","","36","","","75","97","","","","","","","","","","","","","","","k",""
"","S1","","html-keyboard-response","561","642778","0.0-1.0-884.0","0","0","63397","","null","","","null","98","","","","","","","","","","","","","","","",""
"","ISI","","html-keyboard-response","562","643793","0.0-1.0-885.0","0","0","63397","","69","","","68","98","d","","","","","","","","","","","","","","",""
"","S2","","html-keyboard-response","563","643828","0.0-1.0-886.0","0","0","63397","","33","","","75","98","","k","3","98","training","adjacent","CB","3","2","Q.jpg","N.jpg","1","0","0","",""
"","feedback","","html-keyboard-response","564","644831","0.0-1.0-888.0-0.0","0","0","63397","","null","","","null","98","","","","","","","","","","","","","","","",""
"","time_out","","html-keyboard-response","565","646835","0.0-1.0-890.0-0.0","0","0","63397","","null","","","null","98","","","","","","","","","","","","","","","",""
"","ITI","","html-keyboard-response","566","647838","0.0-1.0-891.0","0","0","63397","","25","","","68","98","","","","","","","","","","","","","","","d",""
"","S1","","html-keyboard-response","567","648093","0.0-1.0-893.0","0","0","63397","","null","","","null","99","","","","","","","","","","","","","","","",""
"","ISI","","html-keyboard-response","568","649094","0.0-1.0-894.0","0","0","63397","","84","","","68","99","d","","","","","","","","","","","","","","",""
"","S2","","html-keyboard-response","569","649238","0.0-1.0-895.0","0","0","63397","","142","","","68","99","","d","3","99","training","adjacent","GF","7","6","M.jpg","P.jpg","0","0","1","",""
"","feedback","","html-keyboard-response","570","650240","0.0-1.0-897.0-0.0","0","0","63397","","null","","","null","99","","","","","","","","","","","","","","","",""
"","ITI","","html-keyboard-response","571","651249","0.0-1.0-900.0","0","0","63397","","90","","","75","99","","","","","","","","","","","","","","","k",""
"","S1","","html-keyboard-response","572","651502","0.0-1.0-902.0","0","0","63397","","null","","","null","100","","","","","","","","","","","","","","","",""
"","ISI","","html-keyboard-response","573","652506","0.0-1.0-903.0","0","0","63397","","5","","","75","100","k","","","","","","","","","","","","","","",""
"","S2","","html-keyboard-response","574","652607","0.0-1.0-904.0","0","0","63397","","96","","","75","100","","k","3","100","training","adjacent","ED","5","4","L.jpg","O.jpg","1","0","0","",""
"","feedback","","html-keyboard-response","575","653638","0.0-1.0-906.0-0.0","0","0","63397","","null","","","null","100","","","","","","","","","","","","","","","",""
"","time_out","","html-keyboard-response","576","655640","0.0-1.0-908.0-0.0","0","0","63397","","null","","","null","100","","","","","","","","","","","","","","","",""
"","ITI","","html-keyboard-response","577","656642","0.0-1.0-909.0","0","0","63397","","155","","","75","100","","","","","","","","","","","","","","","k",""
"","S1","","html-keyboard-response","578","656903","0.0-1.0-911.0","0","0","63397","","null","","","null","101","","","","","","","","","","","","","","","",""
"","ISI","","html-keyboard-response","579","657905","0.0-1.0-912.0","0","0","63397","","81","","","75","101","k","","","","","","","","","","","","","","",""
"","S2","","html-keyboard-response","580","657970","0.0-1.0-913.0","0","0","63397","","63","","","75","101","","k","3","101","training","adjacent","CD","3","4","Q.jpg","O.jpg","1","1","1","",""
"","feedback","","html-keyboard-response","581","658980","0.0-1.0-915.0-0.0","0","0","63397","","null","","","null","101","","","","","","","","","","","","","","","",""
"","ITI","","html-keyboard-response","582","659982","0.0-1.0-918.0","0","0","63397","","76","","","68","101","","","","","","","","","","","","","","","d",""
"","S1","","html-keyboard-response","583","660235","0.0-1.0-920.0","0","0","63397","","null","","","null","102","","","","","","","","","","","","","","","",""
"","ISI","","html-keyboard-response","584","661236","0.0-1.0-921.0","0","0","63397","","134","","","75","102","k","","","","","","","","","","","","","","",""
"","S2","","html-keyboard-response","585","661341","0.0-1.0-922.0","0","0","63397","","103","","","75","102","","k","3","102","training","adjacent","CB","3","2","Q.jpg","N.jpg","1","0","0","",""
"","feedback","","html-keyboard-response","586","662345","0.0-1.0-924.0-0.0","0","0","63397","","null","","","null","102","","","","","","","","","","","","","","","",""
"","time_out","","html-keyboard-response","587","664346","0.0-1.0-926.0-0.0","0","0","63397","","null","","","null","102","","","","","","","","","","","","","","","",""
"","ITI","","html-keyboard-response","588","665348","0.0-1.0-927.0","0","0","63397","","58","","","68","102","","","","","","","","","","","","","","","d",""
