"success","ttype","start_time","trial_type","trial_index","time_elapsed","internal_node_id","warning","missed_checkup","PID","view_history","rt","responses","repeat_instructions","key_press","index","keypress_isi","keypress_S2","block","trial_num","phase","group_type","pair_type","S1_stim","S2_stim","S1_img","S2_img","S1_chosen","S1_higher","accuracy","keypress_iti","total_bonus_tally"
"true","full_screen","d03082023hr1451","fullscreen","0","29657","0.0-0.0","0","0","34414","","","","","","","","","","","","","","","","","","","","","",""
"","instructions","","instructions","1","79556","0.0-1.0-0.0-0.0","0","0","34414","[{""page_index"":0,""viewing_time"":5984},{""page_index"":1,""viewing_time"":29017},{""page_index"":2,""viewing_time"":12408},{""page_index"":3,""viewing_time"":2488}]","49897","","","","","","","","","","","","","","","","","","","",""
"","comprehension_check","","survey-multi-choice","2","110517","0.0-1.0-0.0-1.0","0","0","34414","","30958","{""Q0"":""True"",""Q1"":""D"",""Q2"":""Once the second image appears and while the screen 'MAKE A CHOICE' is shown"",""Q3"":""Green mark"",""Q4"":""either D or K""}","0","","","","","","","","","","","","","","","","","",""
"","start_exp","","html-keyboard-response","3","113078","0.0-1.0-1.0","0","0","34414","","2558","","","32","","","","","","","","","","","","","","","","",""
"","S1","","html-keyboard-response","4","113331","0.0-1.0-2.0","0","0","34414","","null","","","null","0","","","","","","","","","","","","","","","",""
"","ISI","","html-keyboard-response","5","113483","0.0-1.0-3.0","0","0","34414","","null","","","null","0","NaN","","","","","","","","","","","","","","",""
"","S2","","html-keyboard-response","6","113734","0.0-1.0-4.0","0","0","34414","","null","","","null","0","","NaN","","","","","","","","","","","","","",""
"","response","","html-keyboard-response","7","114165","0.0-1.0-5.0-0.0","0","0","34414","","430","","","68","0","","","1","0","training","adjacent","BA","2","1","M.jpg","L.jpg","1","0","0","",""
"","feedback","","html-keyboard-response","8","115168","0.0-1.0-6.0-0.0","0","0","34414","","null","","","null","0","","","","","","","","","","","","","","","",""
"","time_out","","html-keyboard-response","9","117171","0.0-1.0-8.0-0.0","0","0","34414","","null","","","null","0","","","","","","","","","","","","","","","",""
"","ITI","","html-keyboard-response","10","118174","0.0-1.0-9.0","0","0","34414","","null","","","null","0","","","","","","","","","","","","","","","NaN",""
"","S1","","html-keyboard-response","11","118426","0.0-1.0-11.0","0","0","34414","","null","","","null","1","","","","","","","","","","","","","","","",""
"","ISI","","html-keyboard-response","12","118578","0.0-1.0-12.0","0","0","34414","","null","","","null","1","NaN","","","","","","","","","","","","","","",""
"","S2","","html-keyboard-response","13","118830","0.0-1.0-13.0","0","0","34414","","null","","","null","1","","NaN","","","","","","","","","","","","","",""
"","response","","html-keyboard-response","14","119276","0.0-1.0-14.0-0.0","0","0","34414","","446","","","75","1","","","1","1","training","adjacent","CB","3","2","P.jpg","M.jpg","0","0","1","",""
"","feedback","","html-keyboard-response","15","120279","0.0-1.0-15.0-0.0","0","0","34414","","null","","","null","1","","","","","","","","","","","","","","","",""
"","ITI","","html-keyboard-response","16","121281","0.0-1.0-18.0","0","0","34414","","null","","","null","1","","","","","","","","","","","","","","","NaN",""
"","S1","","html-keyboard-response","17","121533","0.0-1.0-20.0","0","0","34414","","null","","","null","2","","","","","","","","","","","","","","","",""
"","ISI","","html-keyboard-response","18","121699","0.0-1.0-21.0","0","0","34414","","null","","","null","2","NaN","","","","","","","","","","","","","","",""
"","S2","","html-keyboard-response","19","121952","0.0-1.0-22.0","0","0","34414","","null","","","null","2","","NaN","","","","","","","","","","","","","",""
"","response","","html-keyboard-response","20","122308","0.0-1.0-23.0-0.0","0","0","34414","","356","","","68","2","","","1","2","training","adjacent","FE","6","5","N.jpg","Q.jpg","1","0","0","",""
"","feedback","","html-keyboard-response","21","123311","0.0-1.0-24.0-0.0","0","0","34414","","null","","","null","2","","","","","","","","","","","","","","","",""
"","time_out","","html-keyboard-response","22","125313","0.0-1.0-26.0-0.0","0","0","34414","","null","","","null","2","","","","","","","","","","","","","","","",""
"","ITI","","html-keyboard-response","23","126316","0.0-1.0-27.0","0","0","34414","","null","","","null","2","","","","","","","","","","","","","","","NaN",""
"","S1","","html-keyboard-response","24","126568","0.0-1.0-29.0","0","0","34414","","null","","","null","3","","","","","","","","","","","","","","","",""
"","ISI","","html-keyboard-response","25","126719","0.0-1.0-30.0","0","0","34414","","null","","","null","3","NaN","","","","","","","","","","","","","","",""
"","S2","","html-keyboard-response","26","126788","0.0-1.0-31.0","0","0","34414","","68","","","75","3","","k","1","3","training","adjacent","BC","2","3","M.jpg","P.jpg","0","1","0","",""
"","feedback","","html-keyboard-response","27","127790","0.0-1.0-33.0-0.0","0","0","34414","","null","","","null","3","","","","","","","","","","","","","","","",""
"","time_out","","html-keyboard-response","28","129792","0.0-1.0-35.0-0.0","0","0","34414","","null","","","null","3","","","","","","","","","","","","","","","",""
"","ITI","","html-keyboard-response","29","130808","0.0-1.0-36.0","0","0","34414","","null","","","null","3","","","","","","","","","","","","","","","NaN",""
"","S1","","html-keyboard-response","30","131060","0.0-1.0-38.0","0","0","34414","","null","","","null","4","","","","","","","","","","","","","","","",""
"","ISI","","html-keyboard-response","31","131211","0.0-1.0-39.0","0","0","34414","","null","","","null","4","NaN","","","","","","","","","","","","","","",""
"","S2","","html-keyboard-response","32","131465","0.0-1.0-40.0","0","0","34414","","null","","","null","4","","NaN","","","","","","","","","","","","","",""
"","response","","html-keyboard-response","33","132142","0.0-1.0-41.0-0.0","0","0","34414","","676","","","68","4","","","1","4","training","adjacent","GF","7","6","O.jpg","N.jpg","1","0","0","",""
"","feedback","","html-keyboard-response","34","133146","0.0-1.0-42.0-0.0","0","0","34414","","null","","","null","4","","","","","","","","","","","","","","","",""
"","time_out","","html-keyboard-response","35","135150","0.0-1.0-44.0-0.0","0","0","34414","","null","","","null","4","","","","","","","","","","","","","","","",""
"","ITI","","html-keyboard-response","36","136153","0.0-1.0-45.0","0","0","34414","","null","","","null","4","","","","","","","","","","","","","","","NaN",""
"","S1","","html-keyboard-response","37","136405","0.0-1.0-47.0","0","0","34414","","null","","","null","5","","","","","","","","","","","","","","","",""
"","ISI","","html-keyboard-response","38","136558","0.0-1.0-48.0","0","0","34414","","null","","","null","5","NaN","","","","","","","","","","","","","","",""
"","S2","","html-keyboard-response","39","136811","0.0-1.0-49.0","0","0","34414","","null","","","null","5","","NaN","","","","","","","","","","","","","",""
"","response","","html-keyboard-response","40","137061","0.0-1.0-50.0-0.0","0","0","34414","","248","","","75","5","","","1","5","training","adjacent","DE","4","5","R.jpg","Q.jpg","0","1","0","",""
"","feedback","","html-keyboard-response","41","138063","0.0-1.0-51.0-0.0","0","0","34414","","null","","","null","5","","","","","","","","","","","","","","","",""
"","time_out","","html-keyboard-response","42","140064","0.0-1.0-53.0-0.0","0","0","34414","","null","","","null","5","","","","","","","","","","","","","","","",""
"","ITI","","html-keyboard-response","43","141067","0.0-1.0-54.0","0","0","34414","","null","","","null","5","","","","","","","","","","","","","","","NaN",""
"","S1","","html-keyboard-response","44","141319","0.0-1.0-56.0","0","0","34414","","null","","","null","6","","","","","","","","","","","","","","","",""
"","ISI","","html-keyboard-response","45","141470","0.0-1.0-57.0","0","0","34414","","null","","","null","6","NaN","","","","","","","","","","","","","","",""
"","S2","","html-keyboard-response","46","141725","0.0-1.0-58.0","0","0","34414","","null","","","null","6","","NaN","","","","","","","","","","","","","",""
"","response","","html-keyboard-response","47","142109","0.0-1.0-59.0-0.0","0","0","34414","","382","","","68","6","","","1","6","training","adjacent","FG","6","7","N.jpg","O.jpg","1","1","1","",""
"","feedback","","html-keyboard-response","48","143112","0.0-1.0-60.0-0.0","0","0","34414","","null","","","null","6","","","","","","","","","","","","","","","",""
"","ITI","","html-keyboard-response","49","144114","0.0-1.0-63.0","0","0","34414","","null","","","null","6","","","","","","","","","","","","","","","NaN",""
"","S1","","html-keyboard-response","50","144365","0.0-1.0-65.0","0","0","34414","","null","","","null","7","","","","","","","","","","","","","","","",""
"","ISI","","html-keyboard-response","51","144516","0.0-1.0-66.0","0","0","34414","","null","","","null","7","NaN","","","","","","","","","","","","","","",""
"","S2","","html-keyboard-response","52","144768","0.0-1.0-67.0","0","0","34414","","null","","","null","7","","NaN","","","","","","","","","","","","","",""
"","response","","html-keyboard-response","53","145366","0.0-1.0-68.0-0.0","0","0","34414","","597","","","75","7","","","1","7","training","adjacent","FE","6","5","N.jpg","Q.jpg","0","0","1","",""
"","feedback","","html-keyboard-response","54","146369","0.0-1.0-69.0-0.0","0","0","34414","","null","","","null","7","","","","","","","","","","","","","","","",""
"","ITI","","html-keyboard-response","55","147373","0.0-1.0-72.0","0","0","34414","","null","","","null","7","","","","","","","","","","","","","","","NaN",""
"","S1","","html-keyboard-response","56","147626","0.0-1.0-74.0","0","0","34414","","null","","","null","8","","","","","","","","","","","","","","","",""
"","ISI","","html-keyboard-response","57","147778","0.0-1.0-75.0","0","0","34414","","null","","","null","8","NaN","","","","","","","","","","","","","","",""
"","S2","","html-keyboard-response","58","148032","0.0-1.0-76.0","0","0","34414","","null","","","null","8","","NaN","","","","","","","","","","","","","",""
"","response","","html-keyboard-response","59","148524","0.0-1.0-77.0-0.0","0","0","34414","","491","","","68","8","","","1","8","training","adjacent","EF","5","6","Q.jpg","N.jpg","1","1","1","",""
"","feedback","","html-keyboard-response","60","149525","0.0-1.0-78.0-0.0","0","0","34414","","null","","","null","8","","","","","","","","","","","","","","","",""
"","ITI","","html-keyboard-response","61","150528","0.0-1.0-81.0","0","0","34414","","null","","","null","8","","","","","","","","","","","","","","","NaN",""
"","S1","","html-keyboard-response","62","150782","0.0-1.0-83.0","0","0","34414","","null","","","null","9","","","","","","","","","","","","","","","",""
"","ISI","","html-keyboard-response","63","150933","0.0-1.0-84.0","0","0","34414","","null","","","null","9","NaN","","","","","","","","","","","","","","",""
"","S2","","html-keyboard-response","64","151186","0.0-1.0-85.0","0","0","34414","","null","","","null","9","","NaN","","","","","","","","","","","","","",""
"","response","","html-keyboard-response","65","151719","0.0-1.0-86.0-0.0","0","0","34414","","530","","","75","9","","","1","9","training","adjacent","DC","4","3","R.jpg","P.jpg","0","0","1","",""
"","feedback","","html-keyboard-response","66","152721","0.0-1.0-87.0-0.0","0","0","34414","","null","","","null","9","","","","","","","","","","","","","","","",""
"","ITI","","html-keyboard-response","67","153725","0.0-1.0-90.0","0","0","34414","","null","","","null","9","","","","","","","","","","","","","","","NaN",""
"","S1","","html-keyboard-response","68","153978","0.0-1.0-92.0","0","0","34414","","null","","","null","10","","","","","","","","","","","","","","","",""
"","ISI","","html-keyboard-response","69","154132","0.0-1.0-93.0","0","0","34414","","null","","","null","10","NaN","","","","","","","","","","","","","","",""
"","S2","","html-keyboard-response","70","154385","0.0-1.0-94.0","0","0","34414","","null","","","null","10","","NaN","","","","","","","","","","","","","",""
"","response","","html-keyboard-response","71","155006","0.0-1.0-95.0-0.0","0","0","34414","","620","","","75","10","","","1","10","training","adjacent","BC","2","3","M.jpg","P.jpg","0","1","0","",""
"","feedback","","html-keyboard-response","72","156008","0.0-1.0-96.0-0.0","0","0","34414","","null","","","null","10","","","","","","","","","","","","","","","",""
"","time_out","","html-keyboard-response","73","158010","0.0-1.0-98.0-0.0","0","0","34414","","null","","","null","10","","","","","","","","","","","","","","","",""
"","ITI","","html-keyboard-response","74","159013","0.0-1.0-99.0","0","0","34414","","null","","","null","10","","","","","","","","","","","","","","","NaN",""
"","S1","","html-keyboard-response","75","159266","0.0-1.0-101.0","0","0","34414","","null","","","null","11","","","","","","","","","","","","","","","",""
"","ISI","","html-keyboard-response","76","159419","0.0-1.0-102.0","0","0","34414","","null","","","null","11","NaN","","","","","","","","","","","","","","",""
"","S2","","html-keyboard-response","77","159671","0.0-1.0-103.0","0","0","34414","","null","","","null","11","","NaN","","","","","","","","","","","","","",""
"","response","","html-keyboard-response","78","160278","0.0-1.0-104.0-0.0","0","0","34414","","606","","","75","11","","","1","11","training","adjacent","CD","3","4","P.jpg","R.jpg","0","1","0","",""
"","feedback","","html-keyboard-response","79","161280","0.0-1.0-105.0-0.0","0","0","34414","","null","","","null","11","","","","","","","","","","","","","","","",""
"","time_out","","html-keyboard-response","80","163282","0.0-1.0-107.0-0.0","0","0","34414","","null","","","null","11","","","","","","","","","","","","","","","",""
"","ITI","","html-keyboard-response","81","164285","0.0-1.0-108.0","0","0","34414","","null","","","null","11","","","","","","","","","","","","","","","NaN",""
"","S1","","html-keyboard-response","82","164537","0.0-1.0-110.0","0","0","34414","","null","","","null","12","","","","","","","","","","","","","","","",""
"","ISI","","html-keyboard-response","83","164689","0.0-1.0-111.0","0","0","34414","","null","","","null","12","NaN","","","","","","","","","","","","","","",""
"","S2","","html-keyboard-response","84","164942","0.0-1.0-112.0","0","0","34414","","null","","","null","12","","NaN","","","","","","","","","","","","","",""
"","response","","html-keyboard-response","85","165582","0.0-1.0-113.0-0.0","0","0","34414","","639","","","75","12","","","1","12","training","adjacent","ED","5","4","Q.jpg","R.jpg","0","0","1","",""
"","feedback","","html-keyboard-response","86","166586","0.0-1.0-114.0-0.0","0","0","34414","","null","","","null","12","","","","","","","","","","","","","","","",""
"","ITI","","html-keyboard-response","87","167590","0.0-1.0-117.0","0","0","34414","","null","","","null","12","","","","","","","","","","","","","","","NaN",""
"","S1","","html-keyboard-response","88","167843","0.0-1.0-119.0","0","0","34414","","null","","","null","13","","","","","","","","","","","","","","","",""
"","ISI","","html-keyboard-response","89","167995","0.0-1.0-120.0","0","0","34414","","null","","","null","13","NaN","","","","","","","","","","","","","","",""
"","S2","","html-keyboard-response","90","168249","0.0-1.0-121.0","0","0","34414","","null","","","null","13","","NaN","","","","","","","","","","","","","",""
"","response","","html-keyboard-response","91","168694","0.0-1.0-122.0-0.0","0","0","34414","","443","","","75","13","","","1","13","training","adjacent","CD","3","4","P.jpg","R.jpg","0","1","0","",""
"","feedback","","html-keyboard-response","92","169700","0.0-1.0-123.0-0.0","0","0","34414","","null","","","null","13","","","","","","","","","","","","","","","",""
"","time_out","","html-keyboard-response","93","171703","0.0-1.0-125.0-0.0","0","0","34414","","null","","","null","13","","","","","","","","","","","","","","","",""
"","ITI","","html-keyboard-response","94","172706","0.0-1.0-126.0","0","0","34414","","null","","","null","13","","","","","","","","","","","","","","","NaN",""
"","S1","","html-keyboard-response","95","172959","0.0-1.0-128.0","0","0","34414","","null","","","null","14","","","","","","","","","","","","","","","",""
"","ISI","","html-keyboard-response","96","173111","0.0-1.0-129.0","0","0","34414","","null","","","null","14","NaN","","","","","","","","","","","","","","",""
"","S2","","html-keyboard-response","97","173366","0.0-1.0-130.0","0","0","34414","","null","","","null","14","","NaN","","","","","","","","","","","","","",""
"","response","","html-keyboard-response","98","173884","0.0-1.0-131.0-0.0","0","0","34414","","518","","","75","14","","","1","14","training","adjacent","AB","1","2","L.jpg","M.jpg","0","1","0","",""
"","feedback","","html-keyboard-response","99","174887","0.0-1.0-132.0-0.0","0","0","34414","","null","","","null","14","","","","","","","","","","","","","","","",""
"","time_out","","html-keyboard-response","100","176889","0.0-1.0-134.0-0.0","0","0","34414","","null","","","null","14","","","","","","","","","","","","","","","",""
"","ITI","","html-keyboard-response","101","177891","0.0-1.0-135.0","0","0","34414","","null","","","null","14","","","","","","","","","","","","","","","NaN",""
"","S1","","html-keyboard-response","102","178144","0.0-1.0-137.0","0","0","34414","","null","","","null","15","","","","","","","","","","","","","","","",""
"","ISI","","html-keyboard-response","103","178295","0.0-1.0-138.0","0","0","34414","","null","","","null","15","NaN","","","","","","","","","","","","","","",""
"","S2","","html-keyboard-response","104","178547","0.0-1.0-139.0","0","0","34414","","null","","","null","15","","NaN","","","","","","","","","","","","","",""
"","response","","html-keyboard-response","105","178839","0.0-1.0-140.0-0.0","0","0","34414","","289","","","68","15","","","1","15","training","adjacent","DE","4","5","R.jpg","Q.jpg","1","1","1","",""
"","feedback","","html-keyboard-response","106","179841","0.0-1.0-141.0-0.0","0","0","34414","","null","","","null","15","","","","","","","","","","","","","","","",""
"","ITI","","html-keyboard-response","107","180845","0.0-1.0-144.0","0","0","34414","","null","","","null","15","","","","","","","","","","","","","","","NaN",""
"","S1","","html-keyboard-response","108","181099","0.0-1.0-146.0","0","0","34414","","null","","","null","16","","","","","","","","","","","","","","","",""
"","ISI","","html-keyboard-response","109","181252","0.0-1.0-147.0","0","0","34414","","null","","","null","16","NaN","","","","","","","","","","","","","","",""
"","S2","","html-keyboard-response","110","181505","0.0-1.0-148.0","0","0","34414","","null","","","null","16","","NaN","","","","","","","","","","","","","",""
"","response","","html-keyboard-response","111","182046","0.0-1.0-149.0-0.0","0","0","34414","","539","","","68","16","","","1","16","training","adjacent","DE","4","5","R.jpg","Q.jpg","1","1","1","",""
"","feedback","","html-keyboard-response","112","183049","0.0-1.0-150.0-0.0","0","0","34414","","null","","","null","16","","","","","","","","","","","","","","","",""
"","ITI","","html-keyboard-response","113","184052","0.0-1.0-153.0","0","0","34414","","null","","","null","16","","","","","","","","","","","","","","","NaN",""
"","S1","","html-keyboard-response","114","184306","0.0-1.0-155.0","0","0","34414","","null","","","null","17","","","","","","","","","","","","","","","",""
"","ISI","","html-keyboard-response","115","184459","0.0-1.0-156.0","0","0","34414","","null","","","null","17","NaN","","","","","","","","","","","","","","",""
"","S2","","html-keyboard-response","116","184711","0.0-1.0-157.0","0","0","34414","","null","","","null","17","","NaN","","","","","","","","","","","","","",""
"","response","","html-keyboard-response","117","185190","0.0-1.0-158.0-0.0","0","0","34414","","478","","","75","17","","","1","17","training","adjacent","AB","1","2","L.jpg","M.jpg","0","1","0","",""
"","feedback","","html-keyboard-response","118","186193","0.0-1.0-159.0-0.0","0","0","34414","","null","","","null","17","","","","","","","","","","","","","","","",""
"","time_out","","html-keyboard-response","119","188196","0.0-1.0-161.0-0.0","0","0","34414","","null","","","null","17","","","","","","","","","","","","","","","",""
"","ITI","","html-keyboard-response","120","189199","0.0-1.0-162.0","0","0","34414","","null","","","null","17","","","","","","","","","","","","","","","NaN",""
"","S1","","html-keyboard-response","121","189452","0.0-1.0-164.0","0","0","34414","","null","","","null","18","","","","","","","","","","","","","","","",""
"","ISI","","html-keyboard-response","122","189605","0.0-1.0-165.0","0","0","34414","","null","","","null","18","NaN","","","","","","","","","","","","","","",""
"","S2","","html-keyboard-response","123","189860","0.0-1.0-166.0","0","0","34414","","null","","","null","18","","NaN","","","","","","","","","","","","","",""
"","response","","html-keyboard-response","124","190446","0.0-1.0-167.0-0.0","0","0","34414","","583","","","75","18","","","1","18","training","adjacent","CB","3","2","P.jpg","M.jpg","0","0","1","",""
"","feedback","","html-keyboard-response","125","191462","0.0-1.0-168.0-0.0","0","0","34414","","null","","","null","18","","","","","","","","","","","","","","","",""
"","ITI","","html-keyboard-response","126","192466","0.0-1.0-171.0","0","0","34414","","null","","","null","18","","","","","","","","","","","","","","","NaN",""
"","S1","","html-keyboard-response","127","192719","0.0-1.0-173.0","0","0","34414","","null","","","null","19","","","","","","","","","","","","","","","",""
"","ISI","","html-keyboard-response","128","192872","0.0-1.0-174.0","0","0","34414","","null","","","null","19","NaN","","","","","","","","","","","","","","",""
"","S2","","html-keyboard-response","129","193124","0.0-1.0-175.0","0","0","34414","","null","","","null","19","","NaN","","","","","","","","","","","","","",""
"","response","","html-keyboard-response","130","193606","0.0-1.0-176.0-0.0","0","0","34414","","480","","","68","19","","","1","19","training","adjacent","CD","3","4","P.jpg","R.jpg","1","1","1","",""
"","feedback","","html-keyboard-response","131","194615","0.0-1.0-177.0-0.0","0","0","34414","","null","","","null","19","","","","","","","","","","","","","","","",""
"","ITI","","html-keyboard-response","132","195617","0.0-1.0-180.0","0","0","34414","","null","","","null","19","","","","","","","","","","","","","","","NaN",""
"","S1","","html-keyboard-response","133","195870","0.0-1.0-182.0","0","0","34414","","null","","","null","20","","","","","","","","","","","","","","","",""
"","ISI","","html-keyboard-response","134","196023","0.0-1.0-183.0","0","0","34414","","null","","","null","20","NaN","","","","","","","","","","","","","","",""
"","S2","","html-keyboard-response","135","196277","0.0-1.0-184.0","0","0","34414","","null","","","null","20","","NaN","","","","","","","","","","","","","",""
"","response","","html-keyboard-response","136","196804","0.0-1.0-185.0-0.0","0","0","34414","","526","","","68","20","","","1","20","training","adjacent","BC","2","3","M.jpg","P.jpg","1","1","1","",""
"","feedback","","html-keyboard-response","137","197807","0.0-1.0-186.0-0.0","0","0","34414","","null","","","null","20","","","","","","","","","","","","","","","",""
"","ITI","","html-keyboard-response","138","198809","0.0-1.0-189.0","0","0","34414","","null","","","null","20","","","","","","","","","","","","","","","NaN",""
"","S1","","html-keyboard-response","139","199062","0.0-1.0-191.0","0","0","34414","","null","","","null","21","","","","","","","","","","","","","","","",""
"","ISI","","html-keyboard-response","140","199215","0.0-1.0-192.0","0","0","34414","","null","","","null","21","NaN","","","","","","","","","","","","","","",""
"","S2","","html-keyboard-response","141","199468","0.0-1.0-193.0","0","0","34414","","null","","","null","21","","NaN","","","","","","","","","","","","","",""
"","response","","html-keyboard-response","142","200278","0.0-1.0-194.0-0.0","0","0","34414","","807","","","68","21","","","1","21","training","adjacent","ED","5","4","Q.jpg","R.jpg","1","0","0","",""
"","feedback","","html-keyboard-response","143","201282","0.0-1.0-195.0-0.0","0","0","34414","","null","","","null","21","","","","","","","","","","","","","","","",""
"","time_out","","html-keyboard-response","144","203285","0.0-1.0-197.0-0.0","0","0","34414","","null","","","null","21","","","","","","","","","","","","","","","",""
"","ITI","","html-keyboard-response","145","204287","0.0-1.0-198.0","0","0","34414","","null","","","null","21","","","","","","","","","","","","","","","NaN",""
"","S1","","html-keyboard-response","146","204540","0.0-1.0-200.0","0","0","34414","","null","","","null","22","","","","","","","","","","","","","","","",""
"","ISI","","html-keyboard-response","147","204693","0.0-1.0-201.0","0","0","34414","","null","","","null","22","NaN","","","","","","","","","","","","","","",""
"","S2","","html-keyboard-response","148","204946","0.0-1.0-202.0","0","0","34414","","null","","","null","22","","NaN","","","","","","","","","","","","","",""
"","response","","html-keyboard-response","149","205462","0.0-1.0-203.0-0.0","0","0","34414","","514","","","68","22","","","1","22","training","adjacent","DE","4","5","R.jpg","Q.jpg","1","1","1","",""
"","feedback","","html-keyboard-response","150","206465","0.0-1.0-204.0-0.0","0","0","34414","","null","","","null","22","","","","","","","","","","","","","","","",""
"","ITI","","html-keyboard-response","151","207467","0.0-1.0-207.0","0","0","34414","","null","","","null","22","","","","","","","","","","","","","","","NaN",""
"","S1","","html-keyboard-response","152","207720","0.0-1.0-209.0","0","0","34414","","null","","","null","23","","","","","","","","","","","","","","","",""
"","ISI","","html-keyboard-response","153","207873","0.0-1.0-210.0","0","0","34414","","null","","","null","23","NaN","","","","","","","","","","","","","","",""
"","S2","","html-keyboard-response","154","208126","0.0-1.0-211.0","0","0","34414","","null","","","null","23","","NaN","","","","","","","","","","","","","",""
"","response","","html-keyboard-response","155","208782","0.0-1.0-212.0-0.0","0","0","34414","","654","","","68","23","","","1","23","training","adjacent","FG","6","7","N.jpg","O.jpg","1","1","1","",""
"","feedback","","html-keyboard-response","156","209785","0.0-1.0-213.0-0.0","0","0","34414","","null","","","null","23","","","","","","","","","","","","","","","",""
"","ITI","","html-keyboard-response","157","210787","0.0-1.0-216.0","0","0","34414","","null","","","null","23","","","","","","","","","","","","","","","NaN",""
"","S1","","html-keyboard-response","158","211040","0.0-1.0-218.0","0","0","34414","","null","","","null","24","","","","","","","","","","","","","","","",""
"","ISI","","html-keyboard-response","159","211193","0.0-1.0-219.0","0","0","34414","","null","","","null","24","NaN","","","","","","","","","","","","","","",""
"","S2","","html-keyboard-response","160","211446","0.0-1.0-220.0","0","0","34414","","null","","","null","24","","NaN","","","","","","","","","","","","","",""
"","response","","html-keyboard-response","161","211822","0.0-1.0-221.0-0.0","0","0","34414","","375","","","75","24","","","1","24","training","adjacent","ED","5","4","Q.jpg","R.jpg","0","0","1","",""
"","feedback","","html-keyboard-response","162","212825","0.0-1.0-222.0-0.0","0","0","34414","","null","","","null","24","","","","","","","","","","","","","","","",""
"","ITI","","html-keyboard-response","163","213829","0.0-1.0-225.0","0","0","34414","","null","","","null","24","","","","","","","","","","","","","","","NaN",""
"","S1","","html-keyboard-response","164","214082","0.0-1.0-227.0","0","0","34414","","null","","","null","25","","","","","","","","","","","","","","","",""
"","ISI","","html-keyboard-response","165","214235","0.0-1.0-228.0","0","0","34414","","null","","","null","25","NaN","","","","","","","","","","","","","","",""
"","S2","","html-keyboard-response","166","214488","0.0-1.0-229.0","0","0","34414","","null","","","null","25","","NaN","","","","","","","","","","","","","",""
"","response","","html-keyboard-response","167","215015","0.0-1.0-230.0-0.0","0","0","34414","","525","","","68","25","","","1","25","training","adjacent","BA","2","1","M.jpg","L.jpg","1","0","0","",""
"","feedback","","html-keyboard-response","168","216017","0.0-1.0-231.0-0.0","0","0","34414","","null","","","null","25","","","","","","","","","","","","","","","",""
"","time_out","","html-keyboard-response","169","218019","0.0-1.0-233.0-0.0","0","0","34414","","null","","","null","25","","","","","","","","","","","","","","","",""
"","ITI","","html-keyboard-response","170","219034","0.0-1.0-234.0","0","0","34414","","null","","","null","25","","","","","","","","","","","","","","","NaN",""
"","S1","","html-keyboard-response","171","219287","0.0-1.0-236.0","0","0","34414","","null","","","null","26","","","","","","","","","","","","","","","",""
"","ISI","","html-keyboard-response","172","219440","0.0-1.0-237.0","0","0","34414","","null","","","null","26","NaN","","","","","","","","","","","","","","",""
"","S2","","html-keyboard-response","173","219692","0.0-1.0-238.0","0","0","34414","","null","","","null","26","","NaN","","","","","","","","","","","","","",""
"","response","","html-keyboard-response","174","219926","0.0-1.0-239.0-0.0","0","0","34414","","233","","","75","26","","","1","26","training","adjacent","CD","3","4","P.jpg","R.jpg","0","1","0","",""
"","feedback","","html-keyboard-response","175","220932","0.0-1.0-240.0-0.0","0","0","34414","","null","","","null","26","","","","","","","","","","","","","","","",""
"","time_out","","html-keyboard-response","176","222935","0.0-1.0-242.0-0.0","0","0","34414","","null","","","null","26","","","","","","","","","","","","","","","",""
"","ITI","","html-keyboard-response","177","223936","0.0-1.0-243.0","0","0","34414","","null","","","null","26","","","","","","","","","","","","","","","NaN",""
"","S1","","html-keyboard-response","178","224188","0.0-1.0-245.0","0","0","34414","","null","","","null","27","","","","","","","","","","","","","","","",""
"","ISI","","html-keyboard-response","179","224339","0.0-1.0-246.0","0","0","34414","","null","","","null","27","NaN","","","","","","","","","","","","","","",""
"","S2","","html-keyboard-response","180","224590","0.0-1.0-247.0","0","0","34414","","null","","","null","27","","NaN","","","","","","","","","","","","","",""
"","response","","html-keyboard-response","181","224764","0.0-1.0-248.0-0.0","0","0","34414","","172","","","68","27","","","1","27","training","adjacent","GF","7","6","O.jpg","N.jpg","1","0","0","",""
"","feedback","","html-keyboard-response","182","225767","0.0-1.0-249.0-0.0","0","0","34414","","null","","","null","27","","","","","","","","","","","","","","","",""
"","time_out","","html-keyboard-response","183","227769","0.0-1.0-251.0-0.0","0","0","34414","","null","","","null","27","","","","","","","","","","","","","","","",""
"","ITI","","html-keyboard-response","184","228771","0.0-1.0-252.0","0","0","34414","","null","","","null","27","","","","","","","","","","","","","","","NaN",""
"","S1","","html-keyboard-response","185","229023","0.0-1.0-254.0","0","0","34414","","null","","","null","28","","","","","","","","","","","","","","","",""
"","ISI","","html-keyboard-response","186","229176","0.0-1.0-255.0","0","0","34414","","null","","","null","28","NaN","","","","","","","","","","","","","","",""
"","S2","","html-keyboard-response","187","229429","0.0-1.0-256.0","0","0","34414","","null","","","null","28","","NaN","","","","","","","","","","","","","",""
"","response","","html-keyboard-response","188","229879","0.0-1.0-257.0-0.0","0","0","34414","","448","","","68","28","","","1","28","training","adjacent","BC","2","3","M.jpg","P.jpg","1","1","1","",""
"","feedback","","html-keyboard-response","189","230880","0.0-1.0-258.0-0.0","0","0","34414","","null","","","null","28","","","","","","","","","","","","","","","",""
"","ITI","","html-keyboard-response","190","231884","0.0-1.0-261.0","0","0","34414","","null","","","null","28","","","","","","","","","","","","","","","NaN",""
"","S1","","html-keyboard-response","191","232138","0.0-1.0-263.0","0","0","34414","","null","","","null","29","","","","","","","","","","","","","","","",""
"","ISI","","html-keyboard-response","192","232291","0.0-1.0-264.0","0","0","34414","","null","","","null","29","NaN","","","","","","","","","","","","","","",""
"","S2","","html-keyboard-response","193","232543","0.0-1.0-265.0","0","0","34414","","null","","","null","29","","NaN","","","","","","","","","","","","","",""
"","response","","html-keyboard-response","194","233037","0.0-1.0-266.0-0.0","0","0","34414","","492","","","75","29","","","1","29","training","adjacent","ED","5","4","Q.jpg","R.jpg","0","0","1","",""
"","feedback","","html-keyboard-response","195","234053","0.0-1.0-267.0-0.0","0","0","34414","","null","","","null","29","","","","","","","","","","","","","","","",""
"","ITI","","html-keyboard-response","196","235055","0.0-1.0-270.0","0","0","34414","","null","","","null","29","","","","","","","","","","","","","","","NaN",""
"","S1","","html-keyboard-response","197","235306","0.0-1.0-272.0","0","0","34414","","null","","","null","30","","","","","","","","","","","","","","","",""
"","ISI","","html-keyboard-response","198","235458","0.0-1.0-273.0","0","0","34414","","null","","","null","30","NaN","","","","","","","","","","","","","","",""
"","S2","","html-keyboard-response","199","235710","0.0-1.0-274.0","0","0","34414","","null","","","null","30","","NaN","","","","","","","","","","","","","",""
"","response","","html-keyboard-response","200","236061","0.0-1.0-275.0-0.0","0","0","34414","","350","","","75","30","","","1","30","training","adjacent","GF","7","6","O.jpg","N.jpg","0","0","1","",""
"","feedback","","html-keyboard-response","201","237064","0.0-1.0-276.0-0.0","0","0","34414","","null","","","null","30","","","","","","","","","","","","","","","",""
"","ITI","","html-keyboard-response","202","238067","0.0-1.0-279.0","0","0","34414","","null","","","null","30","","","","","","","","","","","","","","","NaN",""
"","S1","","html-keyboard-response","203","238320","0.0-1.0-281.0","0","0","34414","","null","","","null","31","","","","","","","","","","","","","","","",""
"","ISI","","html-keyboard-response","204","238472","0.0-1.0-282.0","0","0","34414","","null","","","null","31","NaN","","","","","","","","","","","","","","",""
"","S2","","html-keyboard-response","205","238726","0.0-1.0-283.0","0","0","34414","","null","","","null","31","","NaN","","","","","","","","","","","","","",""
"","response","","html-keyboard-response","206","239158","0.0-1.0-284.0-0.0","0","0","34414","","430","","","68","31","","","1","31","training","adjacent","FE","6","5","N.jpg","Q.jpg","1","0","0","",""
"","feedback","","html-keyboard-response","207","240161","0.0-1.0-285.0-0.0","0","0","34414","","null","","","null","31","","","","","","","","","","","","","","","",""
"","time_out","","html-keyboard-response","208","242164","0.0-1.0-287.0-0.0","0","0","34414","","null","","","null","31","","","","","","","","","","","","","","","",""
"","ITI","","html-keyboard-response","209","243166","0.0-1.0-288.0","0","0","34414","","null","","","null","31","","","","","","","","","","","","","","","NaN",""
"","S1","","html-keyboard-response","210","243420","0.0-1.0-290.0","0","0","34414","","null","","","null","32","","","","","","","","","","","","","","","",""
"","ISI","","html-keyboard-response","211","243572","0.0-1.0-291.0","0","0","34414","","null","","","null","32","NaN","","","","","","","","","","","","","","",""
"","S2","","html-keyboard-response","212","243824","0.0-1.0-292.0","0","0","34414","","null","","","null","32","","NaN","","","","","","","","","","","","","",""
"","response","","html-keyboard-response","213","244679","0.0-1.0-293.0-0.0","0","0","34414","","852","","","68","32","","","1","32","training","adjacent","DC","4","3","R.jpg","P.jpg","1","0","0","",""
"","feedback","","html-keyboard-response","214","245682","0.0-1.0-294.0-0.0","0","0","34414","","null","","","null","32","","","","","","","","","","","","","","","",""
"","time_out","","html-keyboard-response","215","247685","0.0-1.0-296.0-0.0","0","0","34414","","null","","","null","32","","","","","","","","","","","","","","","",""
"","ITI","","html-keyboard-response","216","248687","0.0-1.0-297.0","0","0","34414","","null","","","null","32","","","","","","","","","","","","","","","NaN",""
"","S1","","html-keyboard-response","217","248938","0.0-1.0-299.0","0","0","34414","","null","","","null","33","","","","","","","","","","","","","","","",""
"","ISI","","html-keyboard-response","218","249089","0.0-1.0-300.0","0","0","34414","","null","","","null","33","NaN","","","","","","","","","","","","","","",""
"","S2","","html-keyboard-response","219","249342","0.0-1.0-301.0","0","0","34414","","null","","","null","33","","NaN","","","","","","","","","","","","","",""
"","response","","html-keyboard-response","220","249535","0.0-1.0-302.0-0.0","0","0","34414","","192","","","75","33","","","1","33","training","adjacent","EF","5","6","Q.jpg","N.jpg","0","1","0","",""
"","feedback","","html-keyboard-response","221","250538","0.0-1.0-303.0-0.0","0","0","34414","","null","","","null","33","","","","","","","","","","","","","","","",""
"","time_out","","html-keyboard-response","222","252540","0.0-1.0-305.0-0.0","0","0","34414","","null","","","null","33","","","","","","","","","","","","","","","",""
"","ITI","","html-keyboard-response","223","253542","0.0-1.0-306.0","0","0","34414","","null","","","null","33","","","","","","","","","","","","","","","NaN",""
"","S1","","html-keyboard-response","224","253794","0.0-1.0-308.0","0","0","34414","","null","","","null","34","","","","","","","","","","","","","","","",""
"","ISI","","html-keyboard-response","225","253947","0.0-1.0-309.0","0","0","34414","","null","","","null","34","NaN","","","","","","","","","","","","","","",""
"","S2","","html-keyboard-response","226","254199","0.0-1.0-310.0","0","0","34414","","null","","","null","34","","NaN","","","","","","","","","","","","","",""
"","response","","html-keyboard-response","227","254333","0.0-1.0-311.0-0.0","0","0","34414","","133","","","75","34","","","1","34","training","adjacent","EF","5","6","Q.jpg","N.jpg","0","1","0","",""
"","feedback","","html-keyboard-response","228","255335","0.0-1.0-312.0-0.0","0","0","34414","","null","","","null","34","","","","","","","","","","","","","","","",""
"","time_out","","html-keyboard-response","229","257338","0.0-1.0-314.0-0.0","0","0","34414","","null","","","null","34","","","","","","","","","","","","","","","",""
"","ITI","","html-keyboard-response","230","258341","0.0-1.0-315.0","0","0","34414","","null","","","null","34","","","","","","","","","","","","","","","NaN",""
"","S1","","html-keyboard-response","231","258605","0.0-1.0-317.0","0","0","34414","","null","","","null","35","","","","","","","","","","","","","","","",""
"","ISI","","html-keyboard-response","232","258758","0.0-1.0-318.0","0","0","34414","","null","","","null","35","NaN","","","","","","","","","","","","","","",""
"","S2","","html-keyboard-response","233","259015","0.0-1.0-319.0","0","0","34414","","null","","","null","35","","NaN","","","","","","","","","","","","","",""
"","response","","html-keyboard-response","234","259247","0.0-1.0-320.0-0.0","0","0","34414","","230","","","75","35","","","1","35","training","adjacent","AB","1","2","L.jpg","M.jpg","0","1","0","",""
"","feedback","","html-keyboard-response","235","260251","0.0-1.0-321.0-0.0","0","0","34414","","null","","","null","35","","","","","","","","","","","","","","","",""
"","time_out","","html-keyboard-response","236","262252","0.0-1.0-323.0-0.0","0","0","34414","","null","","","null","35","","","","","","","","","","","","","","","",""
"","ITI","","html-keyboard-response","237","263255","0.0-1.0-324.0","0","0","34414","","null","","","null","35","","","","","","","","","","","","","","","NaN",""
"","S1","","html-keyboard-response","238","263508","0.0-1.0-326.0","0","0","34414","","null","","","null","36","","","","","","","","","","","","","","","",""
"","ISI","","html-keyboard-response","239","263659","0.0-1.0-327.0","0","0","34414","","null","","","null","36","NaN","","","","","","","","","","","","","","",""
"","S2","","html-keyboard-response","240","263912","0.0-1.0-328.0","0","0","34414","","null","","","null","36","","NaN","","","","","","","","","","","","","",""
"","response","","html-keyboard-response","241","264023","0.0-1.0-329.0-0.0","0","0","34414","","109","","","68","36","","","1","36","training","adjacent","FG","6","7","N.jpg","O.jpg","1","1","1","",""
"","feedback","","html-keyboard-response","242","265026","0.0-1.0-330.0-0.0","0","0","34414","","null","","","null","36","","","","","","","","","","","","","","","",""
"","ITI","","html-keyboard-response","243","266029","0.0-1.0-333.0","0","0","34414","","null","","","null","36","","","","","","","","","","","","","","","NaN",""
"","S1","","html-keyboard-response","244","266282","0.0-1.0-335.0","0","0","34414","","null","","","null","37","","","","","","","","","","","","","","","",""
"","ISI","","html-keyboard-response","245","266434","0.0-1.0-336.0","0","0","34414","","null","","","null","37","NaN","","","","","","","","","","","","","","",""
"","S2","","html-keyboard-response","246","266687","0.0-1.0-337.0","0","0","34414","","null","","","null","37","","NaN","","","","","","","","","","","","","",""
"","response","","html-keyboard-response","247","267086","0.0-1.0-338.0-0.0","0","0","34414","","398","","","68","37","","","1","37","training","adjacent","FG","6","7","N.jpg","O.jpg","1","1","1","",""
"","feedback","","html-keyboard-response","248","268090","0.0-1.0-339.0-0.0","0","0","34414","","null","","","null","37","","","","","","","","","","","","","","","",""
"","ITI","","html-keyboard-response","249","269091","0.0-1.0-342.0","0","0","34414","","null","","","null","37","","","","","","","","","","","","","","","NaN",""
"","S1","","html-keyboard-response","250","269343","0.0-1.0-344.0","0","0","34414","","null","","","null","38","","","","","","","","","","","","","","","",""
"","ISI","","html-keyboard-response","251","269505","0.0-1.0-345.0","0","0","34414","","null","","","null","38","NaN","","","","","","","","","","","","","","",""
"","S2","","html-keyboard-response","252","269757","0.0-1.0-346.0","0","0","34414","","null","","","null","38","","NaN","","","","","","","","","","","","","",""
"","response","","html-keyboard-response","253","270317","0.0-1.0-347.0-0.0","0","0","34414","","559","","","75","38","","","1","38","training","adjacent","BA","2","1","M.jpg","L.jpg","0","0","1","",""
"","feedback","","html-keyboard-response","254","271320","0.0-1.0-348.0-0.0","0","0","34414","","null","","","null","38","","","","","","","","","","","","","","","",""
"","ITI","","html-keyboard-response","255","272323","0.0-1.0-351.0","0","0","34414","","null","","","null","38","","","","","","","","","","","","","","","NaN",""
"","S1","","html-keyboard-response","256","272577","0.0-1.0-353.0","0","0","34414","","null","","","null","39","","","","","","","","","","","","","","","",""
"","ISI","","html-keyboard-response","257","272729","0.0-1.0-354.0","0","0","34414","","null","","","null","39","NaN","","","","","","","","","","","","","","",""
"","S2","","html-keyboard-response","258","272981","0.0-1.0-355.0","0","0","34414","","null","","","null","39","","NaN","","","","","","","","","","","","","",""
"","response","","html-keyboard-response","259","273389","0.0-1.0-356.0-0.0","0","0","34414","","407","","","68","39","","","1","39","training","adjacent","DC","4","3","R.jpg","P.jpg","1","0","0","",""
"","feedback","","html-keyboard-response","260","274391","0.0-1.0-357.0-0.0","0","0","34414","","null","","","null","39","","","","","","","","","","","","","","","",""
"","time_out","","html-keyboard-response","261","276392","0.0-1.0-359.0-0.0","0","0","34414","","null","","","null","39","","","","","","","","","","","","","","","",""
"","ITI","","html-keyboard-response","262","277395","0.0-1.0-360.0","0","0","34414","","null","","","null","39","","","","","","","","","","","","","","","NaN",""
"","S1","","html-keyboard-response","263","277649","0.0-1.0-362.0","0","0","34414","","null","","","null","40","","","","","","","","","","","","","","","",""
"","ISI","","html-keyboard-response","264","277802","0.0-1.0-363.0","0","0","34414","","null","","","null","40","NaN","","","","","","","","","","","","","","",""
"","S2","","html-keyboard-response","265","278054","0.0-1.0-364.0","0","0","34414","","null","","","null","40","","NaN","","","","","","","","","","","","","",""
"","response","","html-keyboard-response","266","278462","0.0-1.0-365.0-0.0","0","0","34414","","407","","","68","40","","","1","40","training","adjacent","DC","4","3","R.jpg","P.jpg","1","0","0","",""
"","feedback","","html-keyboard-response","267","279464","0.0-1.0-366.0-0.0","0","0","34414","","null","","","null","40","","","","","","","","","","","","","","","",""
"","time_out","","html-keyboard-response","268","281465","0.0-1.0-368.0-0.0","0","0","34414","","null","","","null","40","","","","","","","","","","","","","","","",""
"","ITI","","html-keyboard-response","269","282468","0.0-1.0-369.0","0","0","34414","","null","","","null","40","","","","","","","","","","","","","","","NaN",""
"","S1","","html-keyboard-response","270","282722","0.0-1.0-371.0","0","0","34414","","null","","","null","41","","","","","","","","","","","","","","","",""
"","ISI","","html-keyboard-response","271","282875","0.0-1.0-372.0","0","0","34414","","null","","","null","41","NaN","","","","","","","","","","","","","","",""
"","S2","","html-keyboard-response","272","283127","0.0-1.0-373.0","0","0","34414","","null","","","null","41","","NaN","","","","","","","","","","","","","",""
"","response","","html-keyboard-response","273","283207","0.0-1.0-374.0-0.0","0","0","34414","","78","","","75","41","","","1","41","training","adjacent","EF","5","6","Q.jpg","N.jpg","0","1","0","",""
"","feedback","","html-keyboard-response","274","284210","0.0-1.0-375.0-0.0","0","0","34414","","null","","","null","41","","","","","","","","","","","","","","","",""
"","time_out","","html-keyboard-response","275","286214","0.0-1.0-377.0-0.0","0","0","34414","","null","","","null","41","","","","","","","","","","","","","","","",""
"","ITI","","html-keyboard-response","276","287221","0.0-1.0-378.0","0","0","34414","","null","","","null","41","","","","","","","","","","","","","","","NaN",""
"","S1","","html-keyboard-response","277","287473","0.0-1.0-380.0","0","0","34414","","null","","","null","42","","","","","","","","","","","","","","","",""
"","ISI","","html-keyboard-response","278","287626","0.0-1.0-381.0","0","0","34414","","null","","","null","42","NaN","","","","","","","","","","","","","","",""
"","S2","","html-keyboard-response","279","287880","0.0-1.0-382.0","0","0","34414","","null","","","null","42","","NaN","","","","","","","","","","","","","",""
"","response","","html-keyboard-response","280","288175","0.0-1.0-383.0-0.0","0","0","34414","","293","","","68","42","","","1","42","training","adjacent","FE","6","5","N.jpg","Q.jpg","1","0","0","",""
"","feedback","","html-keyboard-response","281","289178","0.0-1.0-384.0-0.0","0","0","34414","","null","","","null","42","","","","","","","","","","","","","","","",""
"","time_out","","html-keyboard-response","282","291180","0.0-1.0-386.0-0.0","0","0","34414","","null","","","null","42","","","","","","","","","","","","","","","",""
"","ITI","","html-keyboard-response","283","292182","0.0-1.0-387.0","0","0","34414","","null","","","null","42","","","","","","","","","","","","","","","NaN",""
"","S1","","html-keyboard-response","284","292436","0.0-1.0-389.0","0","0","34414","","null","","","null","43","","","","","","","","","","","","","","","",""
"","ISI","","html-keyboard-response","285","292589","0.0-1.0-390.0","0","0","34414","","null","","","null","43","NaN","","","","","","","","","","","","","","",""
"","S2","","html-keyboard-response","286","292841","0.0-1.0-391.0","0","0","34414","","null","","","null","43","","NaN","","","","","","","","","","","","","",""
"","response","","html-keyboard-response","287","293183","0.0-1.0-392.0-0.0","0","0","34414","","339","","","75","43","","","1","43","training","adjacent","AB","1","2","L.jpg","M.jpg","0","1","0","",""
"","feedback","","html-keyboard-response","288","294185","0.0-1.0-393.0-0.0","0","0","34414","","null","","","null","43","","","","","","","","","","","","","","","",""
"","time_out","","html-keyboard-response","289","296187","0.0-1.0-395.0-0.0","0","0","34414","","null","","","null","43","","","","","","","","","","","","","","","",""
"","ITI","","html-keyboard-response","290","297190","0.0-1.0-396.0","0","0","34414","","null","","","null","43","","","","","","","","","","","","","","","NaN",""
"","S1","","html-keyboard-response","291","297444","0.0-1.0-398.0","0","0","34414","","null","","","null","44","","","","","","","","","","","","","","","",""
"","ISI","","html-keyboard-response","292","297596","0.0-1.0-399.0","0","0","34414","","null","","","null","44","NaN","","","","","","","","","","","","","","",""
"","S2","","html-keyboard-response","293","297850","0.0-1.0-400.0","0","0","34414","","null","","","null","44","","NaN","","","","","","","","","","","","","",""
"","response","","html-keyboard-response","294","298055","0.0-1.0-401.0-0.0","0","0","34414","","203","","","75","44","","","1","44","training","adjacent","CB","3","2","P.jpg","M.jpg","0","0","1","",""
"","feedback","","html-keyboard-response","295","299059","0.0-1.0-402.0-0.0","0","0","34414","","null","","","null","44","","","","","","","","","","","","","","","",""
"","ITI","","html-keyboard-response","296","300062","0.0-1.0-405.0","0","0","34414","","null","","","null","44","","","","","","","","","","","","","","","NaN",""
"","S1","","html-keyboard-response","297","300313","0.0-1.0-407.0","0","0","34414","","null","","","null","45","","","","","","","","","","","","","","","",""
"","ISI","","html-keyboard-response","298","300466","0.0-1.0-408.0","0","0","34414","","null","","","null","45","NaN","","","","","","","","","","","","","","",""
"","S2","","html-keyboard-response","299","300718","0.0-1.0-409.0","0","0","34414","","null","","","null","45","","NaN","","","","","","","","","","","","","",""
"","response","","html-keyboard-response","300","300989","0.0-1.0-410.0-0.0","0","0","34414","","270","","","68","45","","","1","45","training","adjacent","BA","2","1","M.jpg","L.jpg","1","0","0","",""
"","feedback","","html-keyboard-response","301","301993","0.0-1.0-411.0-0.0","0","0","34414","","null","","","null","45","","","","","","","","","","","","","","","",""
"","time_out","","html-keyboard-response","302","303996","0.0-1.0-413.0-0.0","0","0","34414","","null","","","null","45","","","","","","","","","","","","","","","",""
"","ITI","","html-keyboard-response","303","305000","0.0-1.0-414.0","0","0","34414","","null","","","null","45","","","","","","","","","","","","","","","NaN",""
"","S1","","html-keyboard-response","304","305254","0.0-1.0-416.0","0","0","34414","","null","","","null","46","","","","","","","","","","","","","","","",""
"","ISI","","html-keyboard-response","305","305406","0.0-1.0-417.0","0","0","34414","","null","","","null","46","NaN","","","","","","","","","","","","","","",""
"","S2","","html-keyboard-response","306","305659","0.0-1.0-418.0","0","0","34414","","null","","","null","46","","NaN","","","","","","","","","","","","","",""
"","response","","html-keyboard-response","307","305800","0.0-1.0-419.0-0.0","0","0","34414","","138","","","75","46","","","1","46","training","adjacent","GF","7","6","O.jpg","N.jpg","0","0","1","",""
"","feedback","","html-keyboard-response","308","306805","0.0-1.0-420.0-0.0","0","0","34414","","null","","","null","46","","","","","","","","","","","","","","","",""
"","ITI","","html-keyboard-response","309","307808","0.0-1.0-423.0","0","0","34414","","null","","","null","46","","","","","","","","","","","","","","","NaN",""
"","S1","","html-keyboard-response","310","308061","0.0-1.0-425.0","0","0","34414","","null","","","null","47","","","","","","","","","","","","","","","",""
"","ISI","","html-keyboard-response","311","308213","0.0-1.0-426.0","0","0","34414","","null","","","null","47","NaN","","","","","","","","","","","","","","",""
"","S2","","html-keyboard-response","312","308467","0.0-1.0-427.0","0","0","34414","","null","","","null","47","","NaN","","","","","","","","","","","","","",""
"","response","","html-keyboard-response","313","308896","0.0-1.0-428.0-0.0","0","0","34414","","426","","","75","47","","","1","47","training","adjacent","CB","3","2","P.jpg","M.jpg","0","0","1","",""
"","feedback","","html-keyboard-response","314","309900","0.0-1.0-429.0-0.0","0","0","34414","","null","","","null","47","","","","","","","","","","","","","","","",""
"","ITI","","html-keyboard-response","315","310903","0.0-1.0-432.0","0","0","34414","","null","","","null","47","","","","","","","","","","","","","","","NaN",""
"","block_over","","html-keyboard-response","316","364712","0.0-1.0-433.0-0.0","0","0","34414","","53806","","","32","47","","","","","","","","","","","","","","","",""
"","S1","","html-keyboard-response","317","364965","0.0-1.0-434.0","0","0","34414","","null","","","null","48","","","","","","","","","","","","","","","",""
"","ISI","","html-keyboard-response","318","365118","0.0-1.0-435.0","0","0","34414","","null","","","null","48","NaN","","","","","","","","","","","","","","",""
"","S2","","html-keyboard-response","319","365372","0.0-1.0-436.0","0","0","34414","","null","","","null","48","","NaN","","","","","","","","","","","","","",""
"","response","","html-keyboard-response","320","365616","0.0-1.0-437.0-0.0","0","0","34414","","242","","","68","48","","","2","48","training","adjacent","DE","4","5","R.jpg","Q.jpg","1","1","1","",""
"","feedback","","html-keyboard-response","321","366619","0.0-1.0-438.0-0.0","0","0","34414","","null","","","null","48","","","","","","","","","","","","","","","",""
"","ITI","","html-keyboard-response","322","367622","0.0-1.0-441.0","0","0","34414","","null","","","null","48","","","","","","","","","","","","","","","NaN",""
"","S1","","html-keyboard-response","323","367876","0.0-1.0-443.0","0","0","34414","","null","","","null","49","","","","","","","","","","","","","","","",""
"","ISI","","html-keyboard-response","324","368029","0.0-1.0-444.0","0","0","34414","","null","","","null","49","NaN","","","","","","","","","","","","","","",""
"","S2","","html-keyboard-response","325","368286","0.0-1.0-445.0","0","0","34414","","null","","","null","49","","NaN","","","","","","","","","","","","","",""
"","response","","html-keyboard-response","326","368696","0.0-1.0-446.0-0.0","0","0","34414","","409","","","68","49","","","2","49","training","adjacent","BC","2","3","M.jpg","P.jpg","1","1","1","",""
"","feedback","","html-keyboard-response","327","369699","0.0-1.0-447.0-0.0","0","0","34414","","null","","","null","49","","","","","","","","","","","","","","","",""
"","ITI","","html-keyboard-response","328","370702","0.0-1.0-450.0","0","0","34414","","null","","","null","49","","","","","","","","","","","","","","","NaN",""
"","S1","","html-keyboard-response","329","370954","0.0-1.0-452.0","0","0","34414","","null","","","null","50","","","","","","","","","","","","","","","",""
"","ISI","","html-keyboard-response","330","371108","0.0-1.0-453.0","0","0","34414","","null","","","null","50","NaN","","","","","","","","","","","","","","",""
"","S2","","html-keyboard-response","331","371360","0.0-1.0-454.0","0","0","34414","","null","","","null","50","","NaN","","","","","","","","","","","","","",""
"","response","","html-keyboard-response","332","372289","0.0-1.0-455.0-0.0","0","0","34414","","927","","","75","50","","","2","50","training","adjacent","CB","3","2","P.jpg","M.jpg","0","0","1","",""
"","feedback","","html-keyboard-response","333","373292","0.0-1.0-456.0-0.0","0","0","34414","","null","","","null","50","","","","","","","","","","","","","","","",""
"","ITI","","html-keyboard-response","334","374294","0.0-1.0-459.0","0","0","34414","","null","","","null","50","","","","","","","","","","","","","","","NaN",""
"","S1","","html-keyboard-response","335","374546","0.0-1.0-461.0","0","0","34414","","null","","","null","51","","","","","","","","","","","","","","","",""
"","ISI","","html-keyboard-response","336","374698","0.0-1.0-462.0","0","0","34414","","null","","","null","51","NaN","","","","","","","","","","","","","","",""
"","S2","","html-keyboard-response","337","374952","0.0-1.0-463.0","0","0","34414","","null","","","null","51","","NaN","","","","","","","","","","","","","",""
"","response","","html-keyboard-response","338","375806","0.0-1.0-464.0-0.0","0","0","34414","","854","","","68","51","","","2","51","training","adjacent","BA","2","1","M.jpg","L.jpg","1","0","0","",""
"","feedback","","html-keyboard-response","339","376808","0.0-1.0-465.0-0.0","0","0","34414","","null","","","null","51","","","","","","","","","","","","","","","",""
"","time_out","","html-keyboard-response","340","378810","0.0-1.0-467.0-0.0","0","0","34414","","null","","","null","51","","","","","","","","","","","","","","","",""
"","ITI","","html-keyboard-response","341","379813","0.0-1.0-468.0","0","0","34414","","null","","","null","51","","","","","","","","","","","","","","","NaN",""
"","S1","","html-keyboard-response","342","380066","0.0-1.0-470.0","0","0","34414","","null","","","null","52","","","","","","","","","","","","","","","",""
"","ISI","","html-keyboard-response","343","380220","0.0-1.0-471.0","0","0","34414","","null","","","null","52","NaN","","","","","","","","","","","","","","",""
"","S2","","html-keyboard-response","344","380473","0.0-1.0-472.0","0","0","34414","","null","","","null","52","","NaN","","","","","","","","","","","","","",""
"","response","","html-keyboard-response","345","380840","0.0-1.0-473.0-0.0","0","0","34414","","365","","","75","52","","","2","52","training","adjacent","ED","5","4","Q.jpg","R.jpg","0","0","1","",""
"","feedback","","html-keyboard-response","346","381844","0.0-1.0-474.0-0.0","0","0","34414","","null","","","null","52","","","","","","","","","","","","","","","",""
"","ITI","","html-keyboard-response","347","382847","0.0-1.0-477.0","0","0","34414","","null","","","null","52","","","","","","","","","","","","","","","NaN",""
"","S1","","html-keyboard-response","348","383099","0.0-1.0-479.0","0","0","34414","","null","","","null","53","","","","","","","","","","","","","","","",""
"","ISI","","html-keyboard-response","349","383252","0.0-1.0-480.0","0","0","34414","","null","","","null","53","NaN","","","","","","","","","","","","","","",""
"","S2","","html-keyboard-response","350","383504","0.0-1.0-481.0","0","0","34414","","null","","","null","53","","NaN","","","","","","","","","","","","","",""
"","response","","html-keyboard-response","351","383824","0.0-1.0-482.0-0.0","0","0","34414","","318","","","68","53","","","2","53","training","adjacent","FE","6","5","N.jpg","Q.jpg","1","0","0","",""
"","feedback","","html-keyboard-response","352","384827","0.0-1.0-483.0-0.0","0","0","34414","","null","","","null","53","","","","","","","","","","","","","","","",""
"","time_out","","html-keyboard-response","353","386830","0.0-1.0-485.0-0.0","0","0","34414","","null","","","null","53","","","","","","","","","","","","","","","",""
"","ITI","","html-keyboard-response","354","387832","0.0-1.0-486.0","0","0","34414","","null","","","null","53","","","","","","","","","","","","","","","NaN",""
"","S1","","html-keyboard-response","355","388085","0.0-1.0-488.0","0","0","34414","","null","","","null","54","","","","","","","","","","","","","","","",""
"","ISI","","html-keyboard-response","356","388238","0.0-1.0-489.0","0","0","34414","","null","","","null","54","NaN","","","","","","","","","","","","","","",""
"","S2","","html-keyboard-response","357","388490","0.0-1.0-490.0","0","0","34414","","null","","","null","54","","NaN","","","","","","","","","","","","","",""
"","response","","html-keyboard-response","358","388849","0.0-1.0-491.0-0.0","0","0","34414","","356","","","68","54","","","2","54","training","adjacent","BA","2","1","M.jpg","L.jpg","1","0","0","",""
"","feedback","","html-keyboard-response","359","389851","0.0-1.0-492.0-0.0","0","0","34414","","null","","","null","54","","","","","","","","","","","","","","","",""
"","time_out","","html-keyboard-response","360","391853","0.0-1.0-494.0-0.0","0","0","34414","","null","","","null","54","","","","","","","","","","","","","","","",""
"","ITI","","html-keyboard-response","361","392855","0.0-1.0-495.0","0","0","34414","","null","","","null","54","","","","","","","","","","","","","","","NaN",""
"","S1","","html-keyboard-response","362","393107","0.0-1.0-497.0","0","0","34414","","null","","","null","55","","","","","","","","","","","","","","","",""
"","ISI","","html-keyboard-response","363","393260","0.0-1.0-498.0","0","0","34414","","null","","","null","55","NaN","","","","","","","","","","","","","","",""
"","S2","","html-keyboard-response","364","393513","0.0-1.0-499.0","0","0","34414","","null","","","null","55","","NaN","","","","","","","","","","","","","",""
"","response","","html-keyboard-response","365","393872","0.0-1.0-500.0-0.0","0","0","34414","","356","","","75","55","","","2","55","training","adjacent","FG","6","7","N.jpg","O.jpg","0","1","0","",""
"","feedback","","html-keyboard-response","366","394875","0.0-1.0-501.0-0.0","0","0","34414","","null","","","null","55","","","","","","","","","","","","","","","",""
"","time_out","","html-keyboard-response","367","396878","0.0-1.0-503.0-0.0","0","0","34414","","null","","","null","55","","","","","","","","","","","","","","","",""
"","ITI","","html-keyboard-response","368","397880","0.0-1.0-504.0","0","0","34414","","null","","","null","55","","","","","","","","","","","","","","","NaN",""
"","S1","","html-keyboard-response","369","398134","0.0-1.0-506.0","0","0","34414","","null","","","null","56","","","","","","","","","","","","","","","",""
"","ISI","","html-keyboard-response","370","398288","0.0-1.0-507.0","0","0","34414","","null","","","null","56","NaN","","","","","","","","","","","","","","",""
"","S2","","html-keyboard-response","371","398540","0.0-1.0-508.0","0","0","34414","","null","","","null","56","","NaN","","","","","","","","","","","","","",""
"","response","","html-keyboard-response","372","398856","0.0-1.0-509.0-0.0","0","0","34414","","314","","","75","56","","","2","56","training","adjacent","CD","3","4","P.jpg","R.jpg","0","1","0","",""
"","feedback","","html-keyboard-response","373","399859","0.0-1.0-510.0-0.0","0","0","34414","","null","","","null","56","","","","","","","","","","","","","","","",""
"","time_out","","html-keyboard-response","374","401863","0.0-1.0-512.0-0.0","0","0","34414","","null","","","null","56","","","","","","","","","","","","","","","",""
"","ITI","","html-keyboard-response","375","402865","0.0-1.0-513.0","0","0","34414","","null","","","null","56","","","","","","","","","","","","","","","NaN",""
"","S1","","html-keyboard-response","376","403118","0.0-1.0-515.0","0","0","34414","","null","","","null","57","","","","","","","","","","","","","","","",""
"","ISI","","html-keyboard-response","377","403269","0.0-1.0-516.0","0","0","34414","","null","","","null","57","NaN","","","","","","","","","","","","","","",""
"","S2","","html-keyboard-response","378","403522","0.0-1.0-517.0","0","0","34414","","null","","","null","57","","NaN","","","","","","","","","","","","","",""
"","response","","html-keyboard-response","379","403759","0.0-1.0-518.0-0.0","0","0","34414","","235","","","75","57","","","2","57","training","adjacent","EF","5","6","Q.jpg","N.jpg","0","1","0","",""
"","feedback","","html-keyboard-response","380","404763","0.0-1.0-519.0-0.0","0","0","34414","","null","","","null","57","","","","","","","","","","","","","","","",""
"","time_out","","html-keyboard-response","381","406764","0.0-1.0-521.0-0.0","0","0","34414","","null","","","null","57","","","","","","","","","","","","","","","",""
"","ITI","","html-keyboard-response","382","407768","0.0-1.0-522.0","0","0","34414","","null","","","null","57","","","","","","","","","","","","","","","NaN",""
"","S1","","html-keyboard-response","383","408020","0.0-1.0-524.0","0","0","34414","","null","","","null","58","","","","","","","","","","","","","","","",""
"","ISI","","html-keyboard-response","384","408174","0.0-1.0-525.0","0","0","34414","","null","","","null","58","NaN","","","","","","","","","","","","","","",""
"","S2","","html-keyboard-response","385","408426","0.0-1.0-526.0","0","0","34414","","null","","","null","58","","NaN","","","","","","","","","","","","","",""
"","response","","html-keyboard-response","386","408601","0.0-1.0-527.0-0.0","0","0","34414","","173","","","68","58","","","2","58","training","adjacent","ED","5","4","Q.jpg","R.jpg","1","0","0","",""
"","feedback","","html-keyboard-response","387","409604","0.0-1.0-528.0-0.0","0","0","34414","","null","","","null","58","","","","","","","","","","","","","","","",""
"","time_out","","html-keyboard-response","388","411607","0.0-1.0-530.0-0.0","0","0","34414","","null","","","null","58","","","","","","","","","","","","","","","",""
"","ITI","","html-keyboard-response","389","412610","0.0-1.0-531.0","0","0","34414","","null","","","null","58","","","","","","","","","","","","","","","NaN",""
"","S1","","html-keyboard-response","390","412863","0.0-1.0-533.0","0","0","34414","","null","","","null","59","","","","","","","","","","","","","","","",""
"","ISI","","html-keyboard-response","391","413016","0.0-1.0-534.0","0","0","34414","","null","","","null","59","NaN","","","","","","","","","","","","","","",""
"","S2","","html-keyboard-response","392","413269","0.0-1.0-535.0","0","0","34414","","null","","","null","59","","NaN","","","","","","","","","","","","","",""
"","response","","html-keyboard-response","393","413552","0.0-1.0-536.0-0.0","0","0","34414","","281","","","75","59","","","2","59","training","adjacent","ED","5","4","Q.jpg","R.jpg","0","0","1","",""
"","feedback","","html-keyboard-response","394","414554","0.0-1.0-537.0-0.0","0","0","34414","","null","","","null","59","","","","","","","","","","","","","","","",""
"","ITI","","html-keyboard-response","395","415557","0.0-1.0-540.0","0","0","34414","","null","","","null","59","","","","","","","","","","","","","","","NaN",""
"","S1","","html-keyboard-response","396","415809","0.0-1.0-542.0","0","0","34414","","null","","","null","60","","","","","","","","","","","","","","","",""
"","ISI","","html-keyboard-response","397","415960","0.0-1.0-543.0","0","0","34414","","null","","","null","60","NaN","","","","","","","","","","","","","","",""
"","S2","","html-keyboard-response","398","416214","0.0-1.0-544.0","0","0","34414","","null","","","null","60","","NaN","","","","","","","","","","","","","",""
"","response","","html-keyboard-response","399","416390","0.0-1.0-545.0-0.0","0","0","34414","","176","","","75","60","","","2","60","training","adjacent","CD","3","4","P.jpg","R.jpg","0","1","0","",""
"","feedback","","html-keyboard-response","400","417394","0.0-1.0-546.0-0.0","0","0","34414","","null","","","null","60","","","","","","","","","","","","","","","",""
"","time_out","","html-keyboard-response","401","419397","0.0-1.0-548.0-0.0","0","0","34414","","null","","","null","60","","","","","","","","","","","","","","","",""
"","ITI","","html-keyboard-response","402","420399","0.0-1.0-549.0","0","0","34414","","null","","","null","60","","","","","","","","","","","","","","","NaN",""
"","S1","","html-keyboard-response","403","420651","0.0-1.0-551.0","0","0","34414","","null","","","null","61","","","","","","","","","","","","","","","",""
"","ISI","","html-keyboard-response","404","420804","0.0-1.0-552.0","0","0","34414","","null","","","null","61","NaN","","","","","","","","","","","","","","",""
"","S2","","html-keyboard-response","405","421056","0.0-1.0-553.0","0","0","34414","","null","","","null","61","","NaN","","","","","","","","","","","","","",""
"","response","","html-keyboard-response","406","421577","0.0-1.0-554.0-0.0","0","0","34414","","519","","","75","61","","","2","61","training","adjacent","BA","2","1","M.jpg","L.jpg","0","0","1","",""
"","feedback","","html-keyboard-response","407","422580","0.0-1.0-555.0-0.0","0","0","34414","","null","","","null","61","","","","","","","","","","","","","","","",""
"","ITI","","html-keyboard-response","408","423584","0.0-1.0-558.0","0","0","34414","","null","","","null","61","","","","","","","","","","","","","","","NaN",""
"","S1","","html-keyboard-response","409","423837","0.0-1.0-560.0","0","0","34414","","null","","","null","62","","","","","","","","","","","","","","","",""
"","ISI","","html-keyboard-response","410","423990","0.0-1.0-561.0","0","0","34414","","null","","","null","62","NaN","","","","","","","","","","","","","","",""
"","S2","","html-keyboard-response","411","424244","0.0-1.0-562.0","0","0","34414","","null","","","null","62","","NaN","","","","","","","","","","","","","",""
"","response","","html-keyboard-response","412","424767","0.0-1.0-563.0-0.0","0","0","34414","","522","","","75","62","","","2","62","training","adjacent","GF","7","6","O.jpg","N.jpg","0","0","1","",""
"","feedback","","html-keyboard-response","413","425769","0.0-1.0-564.0-0.0","0","0","34414","","null","","","null","62","","","","","","","","","","","","","","","",""
"","ITI","","html-keyboard-response","414","426772","0.0-1.0-567.0","0","0","34414","","null","","","null","62","","","","","","","","","","","","","","","NaN",""
"","S1","","html-keyboard-response","415","427025","0.0-1.0-569.0","0","0","34414","","null","","","null","63","","","","","","","","","","","","","","","",""
"","ISI","","html-keyboard-response","416","427178","0.0-1.0-570.0","0","0","34414","","null","","","null","63","NaN","","","","","","","","","","","","","","",""
"","S2","","html-keyboard-response","417","427430","0.0-1.0-571.0","0","0","34414","","null","","","null","63","","NaN","","","","","","","","","","","","","",""
"","response","","html-keyboard-response","418","427847","0.0-1.0-572.0-0.0","0","0","34414","","415","","","68","63","","","2","63","training","adjacent","DC","4","3","R.jpg","P.jpg","1","0","0","",""
"","feedback","","html-keyboard-response","419","428849","0.0-1.0-573.0-0.0","0","0","34414","","null","","","null","63","","","","","","","","","","","","","","","",""
"","time_out","","html-keyboard-response","420","430851","0.0-1.0-575.0-0.0","0","0","34414","","null","","","null","63","","","","","","","","","","","","","","","",""
"","ITI","","html-keyboard-response","421","431856","0.0-1.0-576.0","0","0","34414","","null","","","null","63","","","","","","","","","","","","","","","NaN",""
"","S1","","html-keyboard-response","422","432109","0.0-1.0-578.0","0","0","34414","","null","","","null","64","","","","","","","","","","","","","","","",""
"","ISI","","html-keyboard-response","423","432261","0.0-1.0-579.0","0","0","34414","","null","","","null","64","NaN","","","","","","","","","","","","","","",""
"","S2","","html-keyboard-response","424","432512","0.0-1.0-580.0","0","0","34414","","null","","","null","64","","NaN","","","","","","","","","","","","","",""
"","response","","html-keyboard-response","425","432647","0.0-1.0-581.0-0.0","0","0","34414","","133","","","75","64","","","2","64","training","adjacent","AB","1","2","L.jpg","M.jpg","0","1","0","",""
"","feedback","","html-keyboard-response","426","433649","0.0-1.0-582.0-0.0","0","0","34414","","null","","","null","64","","","","","","","","","","","","","","","",""
"","time_out","","html-keyboard-response","427","435651","0.0-1.0-584.0-0.0","0","0","34414","","null","","","null","64","","","","","","","","","","","","","","","",""
"","ITI","","html-keyboard-response","428","436665","0.0-1.0-585.0","0","0","34414","","null","","","null","64","","","","","","","","","","","","","","","NaN",""
"","S1","","html-keyboard-response","429","436918","0.0-1.0-587.0","0","0","34414","","null","","","null","65","","","","","","","","","","","","","","","",""
"","ISI","","html-keyboard-response","430","437069","0.0-1.0-588.0","0","0","34414","","null","","","null","65","NaN","","","","","","","","","","","","","","",""
"","S2","","html-keyboard-response","431","437323","0.0-1.0-589.0","0","0","34414","","null","","","null","65","","NaN","","","","","","","","","","","","","",""
"","response","","html-keyboard-response","432","437423","0.0-1.0-590.0-0.0","0","0","34414","","98","","","68","65","","","2","65","training","adjacent","BA","2","1","M.jpg","L.jpg","1","0","0","",""
"","feedback","","html-keyboard-response","433","438425","0.0-1.0-591.0-0.0","0","0","34414","","null","","","null","65","","","","","","","","","","","","","","","",""
"","time_out","","html-keyboard-response","434","440429","0.0-1.0-593.0-0.0","0","0","34414","","null","","","null","65","","","","","","","","","","","","","","","",""
"","ITI","","html-keyboard-response","435","441431","0.0-1.0-594.0","0","0","34414","","null","","","null","65","","","","","","","","","","","","","","","NaN",""
"","S1","","html-keyboard-response","436","441685","0.0-1.0-596.0","0","0","34414","","null","","","null","66","","","","","","","","","","","","","","","",""
"","ISI","","html-keyboard-response","437","441850","0.0-1.0-597.0","0","0","34414","","null","","","null","66","NaN","","","","","","","","","","","","","","",""
"","S2","","html-keyboard-response","438","442104","0.0-1.0-598.0","0","0","34414","","null","","","null","66","","NaN","","","","","","","","","","","","","",""
"","response","","html-keyboard-response","439","442872","0.0-1.0-599.0-0.0","0","0","34414","","766","","","68","66","","","2","66","training","adjacent","BC","2","3","M.jpg","P.jpg","1","1","1","",""
"","feedback","","html-keyboard-response","440","443877","0.0-1.0-600.0-0.0","0","0","34414","","null","","","null","66","","","","","","","","","","","","","","","",""
"","ITI","","html-keyboard-response","441","444880","0.0-1.0-603.0","0","0","34414","","null","","","null","66","","","","","","","","","","","","","","","NaN",""
"","S1","","html-keyboard-response","442","445133","0.0-1.0-605.0","0","0","34414","","null","","","null","67","","","","","","","","","","","","","","","",""
"","ISI","","html-keyboard-response","443","445286","0.0-1.0-606.0","0","0","34414","","null","","","null","67","NaN","","","","","","","","","","","","","","",""
"","S2","","html-keyboard-response","444","445539","0.0-1.0-607.0","0","0","34414","","null","","","null","67","","NaN","","","","","","","","","","","","","",""
"","response","","html-keyboard-response","445","445889","0.0-1.0-608.0-0.0","0","0","34414","","347","","","68","67","","","2","67","training","adjacent","DE","4","5","R.jpg","Q.jpg","1","1","1","",""
"","feedback","","html-keyboard-response","446","446893","0.0-1.0-609.0-0.0","0","0","34414","","null","","","null","67","","","","","","","","","","","","","","","",""
"","ITI","","html-keyboard-response","447","447897","0.0-1.0-612.0","0","0","34414","","null","","","null","67","","","","","","","","","","","","","","","NaN",""
"","S1","","html-keyboard-response","448","448150","0.0-1.0-614.0","0","0","34414","","null","","","null","68","","","","","","","","","","","","","","","",""
"","ISI","","html-keyboard-response","449","448303","0.0-1.0-615.0","0","0","34414","","null","","","null","68","NaN","","","","","","","","","","","","","","",""
"","S2","","html-keyboard-response","450","448558","0.0-1.0-616.0","0","0","34414","","null","","","null","68","","NaN","","","","","","","","","","","","","",""
"","response","","html-keyboard-response","451","449255","0.0-1.0-617.0-0.0","0","0","34414","","697","","","68","68","","","2","68","training","adjacent","FE","6","5","N.jpg","Q.jpg","1","0","0","",""
"","feedback","","html-keyboard-response","452","450259","0.0-1.0-618.0-0.0","0","0","34414","","null","","","null","68","","","","","","","","","","","","","","","",""
"","time_out","","html-keyboard-response","453","452262","0.0-1.0-620.0-0.0","0","0","34414","","null","","","null","68","","","","","","","","","","","","","","","",""
"","ITI","","html-keyboard-response","454","453266","0.0-1.0-621.0","0","0","34414","","null","","","null","68","","","","","","","","","","","","","","","NaN",""
"","S1","","html-keyboard-response","455","453519","0.0-1.0-623.0","0","0","34414","","null","","","null","69","","","","","","","","","","","","","","","",""
"","ISI","","html-keyboard-response","456","453672","0.0-1.0-624.0","0","0","34414","","null","","","null","69","NaN","","","","","","","","","","","","","","",""
"","S2","","html-keyboard-response","457","453931","0.0-1.0-625.0","0","0","34414","","null","","","null","69","","NaN","","","","","","","","","","","","","",""
"","response","","html-keyboard-response","458","454504","0.0-1.0-626.0-0.0","0","0","34414","","571","","","68","69","","","2","69","training","adjacent","GF","7","6","O.jpg","N.jpg","1","0","0","",""
"","feedback","","html-keyboard-response","459","455509","0.0-1.0-627.0-0.0","0","0","34414","","null","","","null","69","","","","","","","","","","","","","","","",""
"","time_out","","html-keyboard-response","460","457511","0.0-1.0-629.0-0.0","0","0","34414","","null","","","null","69","","","","","","","","","","","","","","","",""
"","ITI","","html-keyboard-response","461","458514","0.0-1.0-630.0","0","0","34414","","null","","","null","69","","","","","","","","","","","","","","","NaN",""
"","S1","","html-keyboard-response","462","458767","0.0-1.0-632.0","0","0","34414","","null","","","null","70","","","","","","","","","","","","","","","",""
"","ISI","","html-keyboard-response","463","458920","0.0-1.0-633.0","0","0","34414","","null","","","null","70","NaN","","","","","","","","","","","","","","",""
"","S2","","html-keyboard-response","464","459174","0.0-1.0-634.0","0","0","34414","","null","","","null","70","","NaN","","","","","","","","","","","","","",""
"","response","","html-keyboard-response","465","459672","0.0-1.0-635.0-0.0","0","0","34414","","496","","","75","70","","","2","70","training","adjacent","GF","7","6","O.jpg","N.jpg","0","0","1","",""
"","feedback","","html-keyboard-response","466","460676","0.0-1.0-636.0-0.0","0","0","34414","","null","","","null","70","","","","","","","","","","","","","","","",""
"","ITI","","html-keyboard-response","467","461680","0.0-1.0-639.0","0","0","34414","","null","","","null","70","","","","","","","","","","","","","","","NaN",""
"","S1","","html-keyboard-response","468","461938","0.0-1.0-641.0","0","0","34414","","null","","","null","71","","","","","","","","","","","","","","","",""
"","ISI","","html-keyboard-response","469","462090","0.0-1.0-642.0","0","0","34414","","null","","","null","71","NaN","","","","","","","","","","","","","","",""
"","S2","","html-keyboard-response","470","462343","0.0-1.0-643.0","0","0","34414","","null","","","null","71","","NaN","","","","","","","","","","","","","",""
"","response","","html-keyboard-response","471","462897","0.0-1.0-644.0-0.0","0","0","34414","","551","","","75","71","","","2","71","training","adjacent","DC","4","3","R.jpg","P.jpg","0","0","1","",""
"","feedback","","html-keyboard-response","472","463900","0.0-1.0-645.0-0.0","0","0","34414","","null","","","null","71","","","","","","","","","","","","","","","",""
"","ITI","","html-keyboard-response","473","464903","0.0-1.0-648.0","0","0","34414","","null","","","null","71","","","","","","","","","","","","","","","NaN",""
"","S1","","html-keyboard-response","474","465155","0.0-1.0-650.0","0","0","34414","","null","","","null","72","","","","","","","","","","","","","","","",""
"","ISI","","html-keyboard-response","475","465307","0.0-1.0-651.0","0","0","34414","","null","","","null","72","NaN","","","","","","","","","","","","","","",""
"","S2","","html-keyboard-response","476","465560","0.0-1.0-652.0","0","0","34414","","null","","","null","72","","NaN","","","","","","","","","","","","","",""
"","response","","html-keyboard-response","477","466345","0.0-1.0-653.0-0.0","0","0","34414","","782","","","75","72","","","2","72","training","adjacent","DC","4","3","R.jpg","P.jpg","0","0","1","",""
"","feedback","","html-keyboard-response","478","467354","0.0-1.0-654.0-0.0","0","0","34414","","null","","","null","72","","","","","","","","","","","","","","","",""
"","ITI","","html-keyboard-response","479","468357","0.0-1.0-657.0","0","0","34414","","null","","","null","72","","","","","","","","","","","","","","","NaN",""
"","S1","","html-keyboard-response","480","468610","0.0-1.0-659.0","0","0","34414","","null","","","null","73","","","","","","","","","","","","","","","",""
"","ISI","","html-keyboard-response","481","468764","0.0-1.0-660.0","0","0","34414","","null","","","null","73","NaN","","","","","","","","","","","","","","",""
"","S2","","html-keyboard-response","482","469017","0.0-1.0-661.0","0","0","34414","","null","","","null","73","","NaN","","","","","","","","","","","","","",""
"","response","","html-keyboard-response","483","469632","0.0-1.0-662.0-0.0","0","0","34414","","613","","","75","73","","","2","73","training","adjacent","DE","4","5","R.jpg","Q.jpg","0","1","0","",""
"","feedback","","html-keyboard-response","484","470636","0.0-1.0-663.0-0.0","0","0","34414","","null","","","null","73","","","","","","","","","","","","","","","",""
"","time_out","","html-keyboard-response","485","472638","0.0-1.0-665.0-0.0","0","0","34414","","null","","","null","73","","","","","","","","","","","","","","","",""
"","ITI","","html-keyboard-response","486","473641","0.0-1.0-666.0","0","0","34414","","null","","","null","73","","","","","","","","","","","","","","","NaN",""
"","S1","","html-keyboard-response","487","473894","0.0-1.0-668.0","0","0","34414","","null","","","null","74","","","","","","","","","","","","","","","",""
"","ISI","","html-keyboard-response","488","474048","0.0-1.0-669.0","0","0","34414","","null","","","null","74","NaN","","","","","","","","","","","","","","",""
"","S2","","html-keyboard-response","489","474302","0.0-1.0-670.0","0","0","34414","","null","","","null","74","","NaN","","","","","","","","","","","","","",""
"","response","","html-keyboard-response","490","474745","0.0-1.0-671.0-0.0","0","0","34414","","442","","","75","74","","","2","74","training","adjacent","FE","6","5","N.jpg","Q.jpg","0","0","1","",""
"","feedback","","html-keyboard-response","491","475749","0.0-1.0-672.0-0.0","0","0","34414","","null","","","null","74","","","","","","","","","","","","","","","",""
"","ITI","","html-keyboard-response","492","476751","0.0-1.0-675.0","0","0","34414","","null","","","null","74","","","","","","","","","","","","","","","NaN",""
"","S1","","html-keyboard-response","493","477003","0.0-1.0-677.0","0","0","34414","","null","","","null","75","","","","","","","","","","","","","","","",""
"","ISI","","html-keyboard-response","494","477156","0.0-1.0-678.0","0","0","34414","","null","","","null","75","NaN","","","","","","","","","","","","","","",""
"","S2","","html-keyboard-response","495","477410","0.0-1.0-679.0","0","0","34414","","null","","","null","75","","NaN","","","","","","","","","","","","","",""
"","response","","html-keyboard-response","496","477777","0.0-1.0-680.0-0.0","0","0","34414","","366","","","68","75","","","2","75","training","adjacent","GF","7","6","O.jpg","N.jpg","1","0","0","",""
"","feedback","","html-keyboard-response","497","478780","0.0-1.0-681.0-0.0","0","0","34414","","null","","","null","75","","","","","","","","","","","","","","","",""
"","time_out","","html-keyboard-response","498","480783","0.0-1.0-683.0-0.0","0","0","34414","","null","","","null","75","","","","","","","","","","","","","","","",""
"","ITI","","html-keyboard-response","499","481786","0.0-1.0-684.0","0","0","34414","","null","","","null","75","","","","","","","","","","","","","","","NaN",""
"","S1","","html-keyboard-response","500","482039","0.0-1.0-686.0","0","0","34414","","null","","","null","76","","","","","","","","","","","","","","","",""
"","ISI","","html-keyboard-response","501","482192","0.0-1.0-687.0","0","0","34414","","null","","","null","76","NaN","","","","","","","","","","","","","","",""
"","S2","","html-keyboard-response","502","482446","0.0-1.0-688.0","0","0","34414","","null","","","null","76","","NaN","","","","","","","","","","","","","",""
"","response","","html-keyboard-response","503","482663","0.0-1.0-689.0-0.0","0","0","34414","","215","","","75","76","","","2","76","training","adjacent","FG","6","7","N.jpg","O.jpg","0","1","0","",""
"","feedback","","html-keyboard-response","504","483666","0.0-1.0-690.0-0.0","0","0","34414","","null","","","null","76","","","","","","","","","","","","","","","",""
"","time_out","","html-keyboard-response","505","485672","0.0-1.0-692.0-0.0","0","0","34414","","null","","","null","76","","","","","","","","","","","","","","","",""
"","ITI","","html-keyboard-response","506","486675","0.0-1.0-693.0","0","0","34414","","null","","","null","76","","","","","","","","","","","","","","","NaN",""
"","S1","","html-keyboard-response","507","486928","0.0-1.0-695.0","0","0","34414","","null","","","null","77","","","","","","","","","","","","","","","",""
"","ISI","","html-keyboard-response","508","487081","0.0-1.0-696.0","0","0","34414","","null","","","null","77","NaN","","","","","","","","","","","","","","",""
"","S2","","html-keyboard-response","509","487334","0.0-1.0-697.0","0","0","34414","","null","","","null","77","","NaN","","","","","","","","","","","","","",""
"","response","","html-keyboard-response","510","487890","0.0-1.0-698.0-0.0","0","0","34414","","553","","","68","77","","","2","77","training","adjacent","BC","2","3","M.jpg","P.jpg","1","1","1","",""
"","feedback","","html-keyboard-response","511","488892","0.0-1.0-699.0-0.0","0","0","34414","","null","","","null","77","","","","","","","","","","","","","","","",""
"","ITI","","html-keyboard-response","512","489895","0.0-1.0-702.0","0","0","34414","","null","","","null","77","","","","","","","","","","","","","","","NaN",""
"","S1","","html-keyboard-response","513","490148","0.0-1.0-704.0","0","0","34414","","null","","","null","78","","","","","","","","","","","","","","","",""
"","ISI","","html-keyboard-response","514","490301","0.0-1.0-705.0","0","0","34414","","null","","","null","78","NaN","","","","","","","","","","","","","","",""
"","S2","","html-keyboard-response","515","490554","0.0-1.0-706.0","0","0","34414","","null","","","null","78","","NaN","","","","","","","","","","","","","",""
"","response","","html-keyboard-response","516","490801","0.0-1.0-707.0-0.0","0","0","34414","","244","","","68","78","","","2","78","training","adjacent","CD","3","4","P.jpg","R.jpg","1","1","1","",""
"","feedback","","html-keyboard-response","517","491804","0.0-1.0-708.0-0.0","0","0","34414","","null","","","null","78","","","","","","","","","","","","","","","",""
"","ITI","","html-keyboard-response","518","492808","0.0-1.0-711.0","0","0","34414","","null","","","null","78","","","","","","","","","","","","","","","NaN",""
"","S1","","html-keyboard-response","519","493061","0.0-1.0-713.0","0","0","34414","","null","","","null","79","","","","","","","","","","","","","","","",""
"","ISI","","html-keyboard-response","520","493213","0.0-1.0-714.0","0","0","34414","","null","","","null","79","NaN","","","","","","","","","","","","","","",""
"","S2","","html-keyboard-response","521","493466","0.0-1.0-715.0","0","0","34414","","null","","","null","79","","NaN","","","","","","","","","","","","","",""
"","response","","html-keyboard-response","522","493799","0.0-1.0-716.0-0.0","0","0","34414","","332","","","75","79","","","2","79","training","adjacent","CB","3","2","P.jpg","M.jpg","0","0","1","",""
"","feedback","","html-keyboard-response","523","494802","0.0-1.0-717.0-0.0","0","0","34414","","null","","","null","79","","","","","","","","","","","","","","","",""
"","ITI","","html-keyboard-response","524","495811","0.0-1.0-720.0","0","0","34414","","null","","","null","79","","","","","","","","","","","","","","","NaN",""
"","S1","","html-keyboard-response","525","496064","0.0-1.0-722.0","0","0","34414","","null","","","null","80","","","","","","","","","","","","","","","",""
"","ISI","","html-keyboard-response","526","496217","0.0-1.0-723.0","0","0","34414","","null","","","null","80","NaN","","","","","","","","","","","","","","",""
"","S2","","html-keyboard-response","527","496471","0.0-1.0-724.0","0","0","34414","","null","","","null","80","","NaN","","","","","","","","","","","","","",""
"","response","","html-keyboard-response","528","496849","0.0-1.0-725.0-0.0","0","0","34414","","376","","","68","80","","","2","80","training","adjacent","AB","1","2","L.jpg","M.jpg","1","1","1","",""
"","feedback","","html-keyboard-response","529","497852","0.0-1.0-726.0-0.0","0","0","34414","","null","","","null","80","","","","","","","","","","","","","","","",""
"","ITI","","html-keyboard-response","530","498856","0.0-1.0-729.0","0","0","34414","","null","","","null","80","","","","","","","","","","","","","","","NaN",""
"","S1","","html-keyboard-response","531","499108","0.0-1.0-731.0","0","0","34414","","null","","","null","81","","","","","","","","","","","","","","","",""
"","ISI","","html-keyboard-response","532","499260","0.0-1.0-732.0","0","0","34414","","null","","","null","81","NaN","","","","","","","","","","","","","","",""
"","S2","","html-keyboard-response","533","499511","0.0-1.0-733.0","0","0","34414","","null","","","null","81","","NaN","","","","","","","","","","","","","",""
"","response","","html-keyboard-response","534","500201","0.0-1.0-734.0-0.0","0","0","34414","","688","","","68","81","","","2","81","training","adjacent","FG","6","7","N.jpg","O.jpg","1","1","1","",""
"","feedback","","html-keyboard-response","535","501204","0.0-1.0-735.0-0.0","0","0","34414","","null","","","null","81","","","","","","","","","","","","","","","",""
"","ITI","","html-keyboard-response","536","502208","0.0-1.0-738.0","0","0","34414","","null","","","null","81","","","","","","","","","","","","","","","NaN",""
"","S1","","html-keyboard-response","537","502461","0.0-1.0-740.0","0","0","34414","","null","","","null","82","","","","","","","","","","","","","","","",""
"","ISI","","html-keyboard-response","538","502613","0.0-1.0-741.0","0","0","34414","","null","","","null","82","NaN","","","","","","","","","","","","","","",""
"","S2","","html-keyboard-response","539","502866","0.0-1.0-742.0","0","0","34414","","null","","","null","82","","NaN","","","","","","","","","","","","","",""
"","response","","html-keyboard-response","540","503249","0.0-1.0-743.0-0.0","0","0","34414","","380","","","75","82","","","2","82","training","adjacent","CD","3","4","P.jpg","R.jpg","0","1","0","",""
"","feedback","","html-keyboard-response","541","504253","0.0-1.0-744.0-0.0","0","0","34414","","null","","","null","82","","","","","","","","","","","","","","","",""
"","time_out","","html-keyboard-response","542","506255","0.0-1.0-746.0-0.0","0","0","34414","","null","","","null","82","","","","","","","","","","","","","","","",""
"","ITI","","html-keyboard-response","543","507257","0.0-1.0-747.0","0","0","34414","","null","","","null","82","","","","","","","","","","","","","","","NaN",""
"","S1","","html-keyboard-response","544","507509","0.0-1.0-749.0","0","0","34414","","null","","","null","83","","","","","","","","","","","","","","","",""
"","ISI","","html-keyboard-response","545","507662","0.0-1.0-750.0","0","0","34414","","null","","","null","83","NaN","","","","","","","","","","","","","","",""
"","S2","","html-keyboard-response","546","507916","0.0-1.0-751.0","0","0","34414","","null","","","null","83","","NaN","","","","","","","","","","","","","",""
"","response","","html-keyboard-response","547","508297","0.0-1.0-752.0-0.0","0","0","34414","","378","","","75","83","","","2","83","training","adjacent","ED","5","4","Q.jpg","R.jpg","0","0","1","",""
"","feedback","","html-keyboard-response","548","509300","0.0-1.0-753.0-0.0","0","0","34414","","null","","","null","83","","","","","","","","","","","","","","","",""
"","ITI","","html-keyboard-response","549","510303","0.0-1.0-756.0","0","0","34414","","null","","","null","83","","","","","","","","","","","","","","","NaN",""
"","S1","","html-keyboard-response","550","510556","0.0-1.0-758.0","0","0","34414","","null","","","null","84","","","","","","","","","","","","","","","",""
"","ISI","","html-keyboard-response","551","510709","0.0-1.0-759.0","0","0","34414","","null","","","null","84","NaN","","","","","","","","","","","","","","",""
"","S2","","html-keyboard-response","552","510962","0.0-1.0-760.0","0","0","34414","","null","","","null","84","","NaN","","","","","","","","","","","","","",""
"","response","","html-keyboard-response","553","511874","0.0-1.0-761.0-0.0","0","0","34414","","910","","","68","84","","","2","84","training","adjacent","FE","6","5","N.jpg","Q.jpg","1","0","0","",""
"","feedback","","html-keyboard-response","554","512877","0.0-1.0-762.0-0.0","0","0","34414","","null","","","null","84","","","","","","","","","","","","","","","",""
"","time_out","","html-keyboard-response","555","514879","0.0-1.0-764.0-0.0","0","0","34414","","null","","","null","84","","","","","","","","","","","","","","","",""
"","ITI","","html-keyboard-response","556","515883","0.0-1.0-765.0","0","0","34414","","null","","","null","84","","","","","","","","","","","","","","","NaN",""
"","S1","","html-keyboard-response","557","516137","0.0-1.0-767.0","0","0","34414","","null","","","null","85","","","","","","","","","","","","","","","",""
"","ISI","","html-keyboard-response","558","516290","0.0-1.0-768.0","0","0","34414","","null","","","null","85","NaN","","","","","","","","","","","","","","",""
"","S2","","html-keyboard-response","559","516544","0.0-1.0-769.0","0","0","34414","","null","","","null","85","","NaN","","","","","","","","","","","","","",""
"","response","","html-keyboard-response","560","516880","0.0-1.0-770.0-0.0","0","0","34414","","335","","","75","85","","","2","85","training","adjacent","EF","5","6","Q.jpg","N.jpg","0","1","0","",""
"","feedback","","html-keyboard-response","561","517883","0.0-1.0-771.0-0.0","0","0","34414","","null","","","null","85","","","","","","","","","","","","","","","",""
"","time_out","","html-keyboard-response","562","519888","0.0-1.0-773.0-0.0","0","0","34414","","null","","","null","85","","","","","","","","","","","","","","","",""
"","ITI","","html-keyboard-response","563","520891","0.0-1.0-774.0","0","0","34414","","null","","","null","85","","","","","","","","","","","","","","","NaN",""
"","S1","","html-keyboard-response","564","521145","0.0-1.0-776.0","0","0","34414","","null","","","null","86","","","","","","","","","","","","","","","",""
"","ISI","","html-keyboard-response","565","521298","0.0-1.0-777.0","0","0","34414","","null","","","null","86","NaN","","","","","","","","","","","","","","",""
"","S2","","html-keyboard-response","566","521552","0.0-1.0-778.0","0","0","34414","","null","","","null","86","","NaN","","","","","","","","","","","","","",""
"","response","","html-keyboard-response","567","521970","0.0-1.0-779.0-0.0","0","0","34414","","415","","","75","86","","","2","86","training","adjacent","AB","1","2","L.jpg","M.jpg","0","1","0","",""
"","feedback","","html-keyboard-response","568","522973","0.0-1.0-780.0-0.0","0","0","34414","","null","","","null","86","","","","","","","","","","","","","","","",""
"","time_out","","html-keyboard-response","569","524975","0.0-1.0-782.0-0.0","0","0","34414","","null","","","null","86","","","","","","","","","","","","","","","",""
"","ITI","","html-keyboard-response","570","525977","0.0-1.0-783.0","0","0","34414","","null","","","null","86","","","","","","","","","","","","","","","NaN",""
"","S1","","html-keyboard-response","571","526231","0.0-1.0-785.0","0","0","34414","","null","","","null","87","","","","","","","","","","","","","","","",""
"","ISI","","html-keyboard-response","572","526383","0.0-1.0-786.0","0","0","34414","","null","","","null","87","NaN","","","","","","","","","","","","","","",""
"","S2","","html-keyboard-response","573","526637","0.0-1.0-787.0","0","0","34414","","null","","","null","87","","NaN","","","","","","","","","","","","","",""
"","response","","html-keyboard-response","574","526913","0.0-1.0-788.0-0.0","0","0","34414","","273","","","75","87","","","2","87","training","adjacent","AB","1","2","L.jpg","M.jpg","0","1","0","",""
"","feedback","","html-keyboard-response","575","527915","0.0-1.0-789.0-0.0","0","0","34414","","null","","","null","87","","","","","","","","","","","","","","","",""
"","time_out","","html-keyboard-response","576","529918","0.0-1.0-791.0-0.0","0","0","34414","","null","","","null","87","","","","","","","","","","","","","","","",""
"","ITI","","html-keyboard-response","577","530921","0.0-1.0-792.0","0","0","34414","","null","","","null","87","","","","","","","","","","","","","","","NaN",""
"","S1","","html-keyboard-response","578","531173","0.0-1.0-794.0","0","0","34414","","null","","","null","88","","","","","","","","","","","","","","","",""
"","ISI","","html-keyboard-response","579","531325","0.0-1.0-795.0","0","0","34414","","null","","","null","88","NaN","","","","","","","","","","","","","","",""
"","S2","","html-keyboard-response","580","531579","0.0-1.0-796.0","0","0","34414","","null","","","null","88","","NaN","","","","","","","","","","","","","",""
"","response","","html-keyboard-response","581","532049","0.0-1.0-797.0-0.0","0","0","34414","","468","","","68","88","","","2","88","training","adjacent","DC","4","3","R.jpg","P.jpg","1","0","0","",""
"","feedback","","html-keyboard-response","582","533051","0.0-1.0-798.0-0.0","0","0","34414","","null","","","null","88","","","","","","","","","","","","","","","",""
