"success","ttype","start_time","trial_type","trial_index","time_elapsed","internal_node_id","warning","missed_checkup","PID","view_history","rt","responses","repeat_instructions","key_press","index","keypress_isi","keypress_S2","block","trial_num","phase","group_type","pair_type","S1_stim","S2_stim","S1_img","S2_img","S1_chosen","S1_higher","accuracy","keypress_iti","total_bonus_tally"
"true","full_screen","d04132023hr1735","fullscreen","0","6641","0.0-0.0","0","0","47293","","","","","","","","","","","","","","","","","","","","","",""
"","instructions","","instructions","1","43993","0.0-1.0-0.0-0.0","0","0","47293","[{""page_index"":0,""viewing_time"":4519},{""page_index"":1,""viewing_time"":24431},{""page_index"":2,""viewing_time"":6791},{""page_index"":3,""viewing_time"":1608}]","37349","","","","","","","","","","","","","","","","","","","",""
"","comprehension_check","","survey-multi-choice","2","58691","0.0-1.0-0.0-1.0","0","0","47293","","14693","{""Q0"":""True"",""Q1"":""K"",""Q2"":""Once the second image appears and while the screen 'MAKE A CHOICE' is shown"",""Q3"":""Green mark"",""Q4"":""either D or K""}","0","","","","","","","","","","","","","","","","","",""
"","start_exp","","html-keyboard-response","3","60422","0.0-1.0-1.0","0","0","47293","","1727","","","32","","","","","","","","","","","","","","","","",""
"","S1","","html-keyboard-response","4","60677","0.0-1.0-2.0","0","0","47293","","null","","","null","0","","","","","","","","","","","","","","","",""
"","ISI","","html-keyboard-response","5","61682","0.0-1.0-3.0","0","0","47293","","null","","","null","0","NaN","","","","","","","","","","","","","","",""
"","S2","","html-keyboard-response","6","61937","0.0-1.0-4.0","0","0","47293","","null","","","null","0","","NaN","","","","","","","","","","","","","",""
"","response","","html-keyboard-response","7","63108","0.0-1.0-5.0-0.0","0","0","47293","","1168","","","75","0","","","1","0","training","adjacent","GF","7","6","O.jpg","L.jpg","1","0","0","",""
"","feedback","","html-keyboard-response","8","64111","0.0-1.0-6.0-0.0","0","0","47293","","null","","","null","0","","","","","","","","","","","","","","","",""
"","time_out","","html-keyboard-response","9","66114","0.0-1.0-8.0-0.0","0","0","47293","","null","","","null","0","","","","","","","","","","","","","","","",""
"","ITI","","html-keyboard-response","10","67118","0.0-1.0-9.0","0","0","47293","","null","","","null","0","","","","","","","","","","","","","","","NaN",""
"","S1","","html-keyboard-response","11","67372","0.0-1.0-11.0","0","0","47293","","null","","","null","1","","","","","","","","","","","","","","","",""
"","ISI","","html-keyboard-response","12","68377","0.0-1.0-12.0","0","0","47293","","null","","","null","1","NaN","","","","","","","","","","","","","","",""
"","S2","","html-keyboard-response","13","68630","0.0-1.0-13.0","0","0","47293","","null","","","null","1","","NaN","","","","","","","","","","","","","",""
"","response","","html-keyboard-response","14","69350","0.0-1.0-14.0-0.0","0","0","47293","","717","","","68","1","","","1","1","training","adjacent","CD","3","4","P.jpg","Q.jpg","0","1","0","",""
"","feedback","","html-keyboard-response","15","70355","0.0-1.0-15.0-0.0","0","0","47293","","null","","","null","1","","","","","","","","","","","","","","","",""
"","time_out","","html-keyboard-response","16","72357","0.0-1.0-17.0-0.0","0","0","47293","","null","","","null","1","","","","","","","","","","","","","","","",""
"","ITI","","html-keyboard-response","17","73359","0.0-1.0-18.0","0","0","47293","","null","","","null","1","","","","","","","","","","","","","","","NaN",""
"","S1","","html-keyboard-response","18","73619","0.0-1.0-20.0","0","0","47293","","null","","","null","2","","","","","","","","","","","","","","","",""
"","ISI","","html-keyboard-response","19","74623","0.0-1.0-21.0","0","0","47293","","null","","","null","2","NaN","","","","","","","","","","","","","","",""
"","S2","","html-keyboard-response","20","74878","0.0-1.0-22.0","0","0","47293","","null","","","null","2","","NaN","","","","","","","","","","","","","",""
"","response","","html-keyboard-response","21","75475","0.0-1.0-23.0-0.0","0","0","47293","","596","","","75","2","","","1","2","training","adjacent","AB","1","2","M.jpg","N.jpg","1","1","1","",""
"","feedback","","html-keyboard-response","22","76478","0.0-1.0-24.0-0.0","0","0","47293","","null","","","null","2","","","","","","","","","","","","","","","",""
"","ITI","","html-keyboard-response","23","77484","0.0-1.0-27.0","0","0","47293","","null","","","null","2","","","","","","","","","","","","","","","NaN",""
"","S1","","html-keyboard-response","24","77738","0.0-1.0-29.0","0","0","47293","","null","","","null","3","","","","","","","","","","","","","","","",""
"","ISI","","html-keyboard-response","25","78755","0.0-1.0-30.0","0","0","47293","","null","","","null","3","NaN","","","","","","","","","","","","","","",""
"","S2","","html-keyboard-response","26","79011","0.0-1.0-31.0","0","0","47293","","null","","","null","3","","NaN","","","","","","","","","","","","","",""
"","response","","html-keyboard-response","27","79878","0.0-1.0-32.0-0.0","0","0","47293","","863","","","68","3","","","1","3","training","adjacent","DC","4","3","Q.jpg","P.jpg","0","0","1","",""
"","feedback","","html-keyboard-response","28","80882","0.0-1.0-33.0-0.0","0","0","47293","","null","","","null","3","","","","","","","","","","","","","","","",""
"","ITI","","html-keyboard-response","29","81885","0.0-1.0-36.0","0","0","47293","","null","","","null","3","","","","","","","","","","","","","","","NaN",""
"","S1","","html-keyboard-response","30","82139","0.0-1.0-38.0","0","0","47293","","null","","","null","4","","","","","","","","","","","","","","","",""
"","ISI","","html-keyboard-response","31","83144","0.0-1.0-39.0","0","0","47293","","null","","","null","4","NaN","","","","","","","","","","","","","","",""
"","S2","","html-keyboard-response","32","83399","0.0-1.0-40.0","0","0","47293","","null","","","null","4","","NaN","","","","","","","","","","","","","",""
"","response","","html-keyboard-response","33","84643","0.0-1.0-41.0-0.0","0","0","47293","","1243","","","75","4","","","1","4","training","adjacent","DE","4","5","Q.jpg","R.jpg","1","1","1","",""
"","feedback","","html-keyboard-response","34","85646","0.0-1.0-42.0-0.0","0","0","47293","","null","","","null","4","","","","","","","","","","","","","","","",""
"","ITI","","html-keyboard-response","35","86655","0.0-1.0-45.0","0","0","47293","","null","","","null","4","","","","","","","","","","","","","","","NaN",""
"","S1","","html-keyboard-response","36","86909","0.0-1.0-47.0","0","0","47293","","null","","","null","5","","","","","","","","","","","","","","","",""
"","ISI","","html-keyboard-response","37","87912","0.0-1.0-48.0","0","0","47293","","null","","","null","5","NaN","","","","","","","","","","","","","","",""
"","S2","","html-keyboard-response","38","88166","0.0-1.0-49.0","0","0","47293","","null","","","null","5","","NaN","","","","","","","","","","","","","",""
"","response","","html-keyboard-response","39","89637","0.0-1.0-50.0-0.0","0","0","47293","","1468","","","68","5","","","1","5","training","adjacent","ED","5","4","R.jpg","Q.jpg","0","0","1","",""
"","feedback","","html-keyboard-response","40","90642","0.0-1.0-51.0-0.0","0","0","47293","","null","","","null","5","","","","","","","","","","","","","","","",""
"","ITI","","html-keyboard-response","41","91646","0.0-1.0-54.0","0","0","47293","","null","","","null","5","","","","","","","","","","","","","","","NaN",""
"","S1","","html-keyboard-response","42","91901","0.0-1.0-56.0","0","0","47293","","null","","","null","6","","","","","","","","","","","","","","","",""
"","ISI","","html-keyboard-response","43","92905","0.0-1.0-57.0","0","0","47293","","null","","","null","6","NaN","","","","","","","","","","","","","","",""
"","S2","","html-keyboard-response","44","93159","0.0-1.0-58.0","0","0","47293","","null","","","null","6","","NaN","","","","","","","","","","","","","",""
"","response","","html-keyboard-response","45","94166","0.0-1.0-59.0-0.0","0","0","47293","","1003","","","75","6","","","1","6","training","adjacent","AB","1","2","M.jpg","N.jpg","1","1","1","",""
"","feedback","","html-keyboard-response","46","95170","0.0-1.0-60.0-0.0","0","0","47293","","null","","","null","6","","","","","","","","","","","","","","","",""
"","ITI","","html-keyboard-response","47","96175","0.0-1.0-63.0","0","0","47293","","null","","","null","6","","","","","","","","","","","","","","","NaN",""
"","S1","","html-keyboard-response","48","96429","0.0-1.0-65.0","0","0","47293","","null","","","null","7","","","","","","","","","","","","","","","",""
"","ISI","","html-keyboard-response","49","97433","0.0-1.0-66.0","0","0","47293","","null","","","null","7","NaN","","","","","","","","","","","","","","",""
"","S2","","html-keyboard-response","50","97687","0.0-1.0-67.0","0","0","47293","","null","","","null","7","","NaN","","","","","","","","","","","","","",""
"","response","","html-keyboard-response","51","98372","0.0-1.0-68.0-0.0","0","0","47293","","682","","","68","7","","","1","7","training","adjacent","FE","6","5","L.jpg","R.jpg","0","0","1","",""
"","feedback","","html-keyboard-response","52","99376","0.0-1.0-69.0-0.0","0","0","47293","","null","","","null","7","","","","","","","","","","","","","","","",""
"","ITI","","html-keyboard-response","53","100381","0.0-1.0-72.0","0","0","47293","","null","","","null","7","","","","","","","","","","","","","","","NaN",""
"","S1","","html-keyboard-response","54","100635","0.0-1.0-74.0","0","0","47293","","null","","","null","8","","","","","","","","","","","","","","","",""
"","ISI","","html-keyboard-response","55","101639","0.0-1.0-75.0","0","0","47293","","null","","","null","8","NaN","","","","","","","","","","","","","","",""
"","S2","","html-keyboard-response","56","101894","0.0-1.0-76.0","0","0","47293","","null","","","null","8","","NaN","","","","","","","","","","","","","",""
"","response","","html-keyboard-response","57","102565","0.0-1.0-77.0-0.0","0","0","47293","","667","","","75","8","","","1","8","training","adjacent","BA","2","1","N.jpg","M.jpg","1","0","0","",""
"","feedback","","html-keyboard-response","58","103570","0.0-1.0-78.0-0.0","0","0","47293","","null","","","null","8","","","","","","","","","","","","","","","",""
"","time_out","","html-keyboard-response","59","105574","0.0-1.0-80.0-0.0","0","0","47293","","null","","","null","8","","","","","","","","","","","","","","","",""
"","ITI","","html-keyboard-response","60","106578","0.0-1.0-81.0","0","0","47293","","null","","","null","8","","","","","","","","","","","","","","","NaN",""
"","S1","","html-keyboard-response","61","106832","0.0-1.0-83.0","0","0","47293","","null","","","null","9","","","","","","","","","","","","","","","",""
"","ISI","","html-keyboard-response","62","107836","0.0-1.0-84.0","0","0","47293","","null","","","null","9","NaN","","","","","","","","","","","","","","",""
"","S2","","html-keyboard-response","63","108090","0.0-1.0-85.0","0","0","47293","","null","","","null","9","","NaN","","","","","","","","","","","","","",""
"","response","","html-keyboard-response","64","109411","0.0-1.0-86.0-0.0","0","0","47293","","1318","","","68","9","","","1","9","training","adjacent","CD","3","4","P.jpg","Q.jpg","0","1","0","",""
"","feedback","","html-keyboard-response","65","110414","0.0-1.0-87.0-0.0","0","0","47293","","null","","","null","9","","","","","","","","","","","","","","","",""
"","time_out","","html-keyboard-response","66","112418","0.0-1.0-89.0-0.0","0","0","47293","","null","","","null","9","","","","","","","","","","","","","","","",""
"","ITI","","html-keyboard-response","67","113422","0.0-1.0-90.0","0","0","47293","","null","","","null","9","","","","","","","","","","","","","","","NaN",""
"","S1","","html-keyboard-response","68","113677","0.0-1.0-92.0","0","0","47293","","null","","","null","10","","","","","","","","","","","","","","","",""
"","ISI","","html-keyboard-response","69","114680","0.0-1.0-93.0","0","0","47293","","null","","","null","10","NaN","","","","","","","","","","","","","","",""
"","S2","","html-keyboard-response","70","114935","0.0-1.0-94.0","0","0","47293","","null","","","null","10","","NaN","","","","","","","","","","","","","",""
"","response","","html-keyboard-response","71","115477","0.0-1.0-95.0-0.0","0","0","47293","","538","","","75","10","","","1","10","training","adjacent","ED","5","4","R.jpg","Q.jpg","1","0","0","",""
"","feedback","","html-keyboard-response","72","116481","0.0-1.0-96.0-0.0","0","0","47293","","null","","","null","10","","","","","","","","","","","","","","","",""
"","time_out","","html-keyboard-response","73","118485","0.0-1.0-98.0-0.0","0","0","47293","","null","","","null","10","","","","","","","","","","","","","","","",""
"","ITI","","html-keyboard-response","74","119489","0.0-1.0-99.0","0","0","47293","","null","","","null","10","","","","","","","","","","","","","","","NaN",""
"","S1","","html-keyboard-response","75","119744","0.0-1.0-101.0","0","0","47293","","null","","","null","11","","","","","","","","","","","","","","","",""
"","ISI","","html-keyboard-response","76","120748","0.0-1.0-102.0","0","0","47293","","null","","","null","11","NaN","","","","","","","","","","","","","","",""
"","S2","","html-keyboard-response","77","121002","0.0-1.0-103.0","0","0","47293","","null","","","null","11","","NaN","","","","","","","","","","","","","",""
"","response","","html-keyboard-response","78","121365","0.0-1.0-104.0-0.0","0","0","47293","","361","","","75","11","","","1","11","training","adjacent","DE","4","5","Q.jpg","R.jpg","1","1","1","",""
"","feedback","","html-keyboard-response","79","122369","0.0-1.0-105.0-0.0","0","0","47293","","null","","","null","11","","","","","","","","","","","","","","","",""
"","ITI","","html-keyboard-response","80","123373","0.0-1.0-108.0","0","0","47293","","null","","","null","11","","","","","","","","","","","","","","","NaN",""
"","S1","","html-keyboard-response","81","123627","0.0-1.0-110.0","0","0","47293","","null","","","null","12","","","","","","","","","","","","","","","",""
"","ISI","","html-keyboard-response","82","124631","0.0-1.0-111.0","0","0","47293","","null","","","null","12","NaN","","","","","","","","","","","","","","",""
"","S2","","html-keyboard-response","83","124886","0.0-1.0-112.0","0","0","47293","","null","","","null","12","","NaN","","","","","","","","","","","","","",""
"","response","","html-keyboard-response","84","125365","0.0-1.0-113.0-0.0","0","0","47293","","475","","","68","12","","","1","12","training","adjacent","CD","3","4","P.jpg","Q.jpg","0","1","0","",""
"","feedback","","html-keyboard-response","85","126370","0.0-1.0-114.0-0.0","0","0","47293","","null","","","null","12","","","","","","","","","","","","","","","",""
"","time_out","","html-keyboard-response","86","128374","0.0-1.0-116.0-0.0","0","0","47293","","null","","","null","12","","","","","","","","","","","","","","","",""
"","ITI","","html-keyboard-response","87","129378","0.0-1.0-117.0","0","0","47293","","null","","","null","12","","","","","","","","","","","","","","","NaN",""
"","S1","","html-keyboard-response","88","129633","0.0-1.0-119.0","0","0","47293","","null","","","null","13","","","","","","","","","","","","","","","",""
"","ISI","","html-keyboard-response","89","130637","0.0-1.0-120.0","0","0","47293","","null","","","null","13","NaN","","","","","","","","","","","","","","",""
"","S2","","html-keyboard-response","90","130904","0.0-1.0-121.0","0","0","47293","","null","","","null","13","","NaN","","","","","","","","","","","","","",""
"","response","","html-keyboard-response","91","131285","0.0-1.0-122.0-0.0","0","0","47293","","377","","","75","13","","","1","13","training","adjacent","FE","6","5","L.jpg","R.jpg","1","0","0","",""
"","feedback","","html-keyboard-response","92","132289","0.0-1.0-123.0-0.0","0","0","47293","","null","","","null","13","","","","","","","","","","","","","","","",""
"","time_out","","html-keyboard-response","93","134292","0.0-1.0-125.0-0.0","0","0","47293","","null","","","null","13","","","","","","","","","","","","","","","",""
"","ITI","","html-keyboard-response","94","135295","0.0-1.0-126.0","0","0","47293","","null","","","null","13","","","","","","","","","","","","","","","NaN",""
"","S1","","html-keyboard-response","95","135549","0.0-1.0-128.0","0","0","47293","","null","","","null","14","","","","","","","","","","","","","","","",""
"","ISI","","html-keyboard-response","96","136552","0.0-1.0-129.0","0","0","47293","","null","","","null","14","NaN","","","","","","","","","","","","","","",""
"","S2","","html-keyboard-response","97","136806","0.0-1.0-130.0","0","0","47293","","null","","","null","14","","NaN","","","","","","","","","","","","","",""
"","response","","html-keyboard-response","98","138405","0.0-1.0-131.0-0.0","0","0","47293","","1595","","","75","14","","","1","14","training","adjacent","BC","2","3","N.jpg","P.jpg","1","1","1","",""
"","feedback","","html-keyboard-response","99","139408","0.0-1.0-132.0-0.0","0","0","47293","","null","","","null","14","","","","","","","","","","","","","","","",""
"","ITI","","html-keyboard-response","100","140412","0.0-1.0-135.0","0","0","47293","","null","","","null","14","","","","","","","","","","","","","","","NaN",""
"","S1","","html-keyboard-response","101","140665","0.0-1.0-137.0","0","0","47293","","null","","","null","15","","","","","","","","","","","","","","","",""
"","ISI","","html-keyboard-response","102","141670","0.0-1.0-138.0","0","0","47293","","null","","","null","15","NaN","","","","","","","","","","","","","","",""
"","S2","","html-keyboard-response","103","141924","0.0-1.0-139.0","0","0","47293","","null","","","null","15","","NaN","","","","","","","","","","","","","",""
"","response","","html-keyboard-response","104","142549","0.0-1.0-140.0-0.0","0","0","47293","","621","","","68","15","","","1","15","training","adjacent","DC","4","3","Q.jpg","P.jpg","0","0","1","",""
"","feedback","","html-keyboard-response","105","143552","0.0-1.0-141.0-0.0","0","0","47293","","null","","","null","15","","","","","","","","","","","","","","","",""
"","ITI","","html-keyboard-response","106","144554","0.0-1.0-144.0","0","0","47293","","null","","","null","15","","","","","","","","","","","","","","","NaN",""
"","S1","","html-keyboard-response","107","144808","0.0-1.0-146.0","0","0","47293","","null","","","null","16","","","","","","","","","","","","","","","",""
"","ISI","","html-keyboard-response","108","145812","0.0-1.0-147.0","0","0","47293","","null","","","null","16","NaN","","","","","","","","","","","","","","",""
"","S2","","html-keyboard-response","109","146067","0.0-1.0-148.0","0","0","47293","","null","","","null","16","","NaN","","","","","","","","","","","","","",""
"","response","","html-keyboard-response","110","146565","0.0-1.0-149.0-0.0","0","0","47293","","494","","","75","16","","","1","16","training","adjacent","FE","6","5","L.jpg","R.jpg","1","0","0","",""
"","feedback","","html-keyboard-response","111","147569","0.0-1.0-150.0-0.0","0","0","47293","","null","","","null","16","","","","","","","","","","","","","","","",""
"","time_out","","html-keyboard-response","112","149574","0.0-1.0-152.0-0.0","0","0","47293","","null","","","null","16","","","","","","","","","","","","","","","",""
"","ITI","","html-keyboard-response","113","150577","0.0-1.0-153.0","0","0","47293","","null","","","null","16","","","","","","","","","","","","","","","NaN",""
"","S1","","html-keyboard-response","114","150831","0.0-1.0-155.0","0","0","47293","","null","","","null","17","","","","","","","","","","","","","","","",""
"","ISI","","html-keyboard-response","115","151835","0.0-1.0-156.0","0","0","47293","","null","","","null","17","NaN","","","","","","","","","","","","","","",""
"","S2","","html-keyboard-response","116","152089","0.0-1.0-157.0","0","0","47293","","null","","","null","17","","NaN","","","","","","","","","","","","","",""
"","response","","html-keyboard-response","117","152437","0.0-1.0-158.0-0.0","0","0","47293","","344","","","68","17","","","1","17","training","adjacent","FG","6","7","L.jpg","O.jpg","0","1","0","",""
"","feedback","","html-keyboard-response","118","153442","0.0-1.0-159.0-0.0","0","0","47293","","null","","","null","17","","","","","","","","","","","","","","","",""
"","time_out","","html-keyboard-response","119","155445","0.0-1.0-161.0-0.0","0","0","47293","","null","","","null","17","","","","","","","","","","","","","","","",""
"","ITI","","html-keyboard-response","120","156449","0.0-1.0-162.0","0","0","47293","","null","","","null","17","","","","","","","","","","","","","","","NaN",""
"","S1","","html-keyboard-response","121","156703","0.0-1.0-164.0","0","0","47293","","null","","","null","18","","","","","","","","","","","","","","","",""
"","ISI","","html-keyboard-response","122","157707","0.0-1.0-165.0","0","0","47293","","null","","","null","18","NaN","","","","","","","","","","","","","","",""
"","S2","","html-keyboard-response","123","157960","0.0-1.0-166.0","0","0","47293","","null","","","null","18","","NaN","","","","","","","","","","","","","",""
"","response","","html-keyboard-response","124","158341","0.0-1.0-167.0-0.0","0","0","47293","","378","","","75","18","","","1","18","training","adjacent","BA","2","1","N.jpg","M.jpg","1","0","0","",""
"","feedback","","html-keyboard-response","125","159345","0.0-1.0-168.0-0.0","0","0","47293","","null","","","null","18","","","","","","","","","","","","","","","",""
"","time_out","","html-keyboard-response","126","161350","0.0-1.0-170.0-0.0","0","0","47293","","null","","","null","18","","","","","","","","","","","","","","","",""
"","ITI","","html-keyboard-response","127","162354","0.0-1.0-171.0","0","0","47293","","null","","","null","18","","","","","","","","","","","","","","","NaN",""
"","S1","","html-keyboard-response","128","162609","0.0-1.0-173.0","0","0","47293","","null","","","null","19","","","","","","","","","","","","","","","",""
"","ISI","","html-keyboard-response","129","163613","0.0-1.0-174.0","0","0","47293","","null","","","null","19","NaN","","","","","","","","","","","","","","",""
"","S2","","html-keyboard-response","130","163868","0.0-1.0-175.0","0","0","47293","","null","","","null","19","","NaN","","","","","","","","","","","","","",""
"","response","","html-keyboard-response","131","164245","0.0-1.0-176.0-0.0","0","0","47293","","374","","","68","19","","","1","19","training","adjacent","BC","2","3","N.jpg","P.jpg","0","1","0","",""
"","feedback","","html-keyboard-response","132","165249","0.0-1.0-177.0-0.0","0","0","47293","","null","","","null","19","","","","","","","","","","","","","","","",""
"","time_out","","html-keyboard-response","133","167253","0.0-1.0-179.0-0.0","0","0","47293","","null","","","null","19","","","","","","","","","","","","","","","",""
"","ITI","","html-keyboard-response","134","168256","0.0-1.0-180.0","0","0","47293","","null","","","null","19","","","","","","","","","","","","","","","NaN",""
"","S1","","html-keyboard-response","135","168508","0.0-1.0-182.0","0","0","47293","","null","","","null","20","","","","","","","","","","","","","","","",""
"","ISI","","html-keyboard-response","136","169511","0.0-1.0-183.0","0","0","47293","","null","","","null","20","NaN","","","","","","","","","","","","","","",""
"","S2","","html-keyboard-response","137","169767","0.0-1.0-184.0","0","0","47293","","null","","","null","20","","NaN","","","","","","","","","","","","","",""
"","response","","html-keyboard-response","138","170149","0.0-1.0-185.0-0.0","0","0","47293","","379","","","75","20","","","1","20","training","adjacent","DE","4","5","Q.jpg","R.jpg","1","1","1","",""
"","feedback","","html-keyboard-response","139","171154","0.0-1.0-186.0-0.0","0","0","47293","","null","","","null","20","","","","","","","","","","","","","","","",""
"","ITI","","html-keyboard-response","140","172156","0.0-1.0-189.0","0","0","47293","","null","","","null","20","","","","","","","","","","","","","","","NaN",""
"","S1","","html-keyboard-response","141","172409","0.0-1.0-191.0","0","0","47293","","null","","","null","21","","","","","","","","","","","","","","","",""
"","ISI","","html-keyboard-response","142","173413","0.0-1.0-192.0","0","0","47293","","null","","","null","21","NaN","","","","","","","","","","","","","","",""
"","S2","","html-keyboard-response","143","173668","0.0-1.0-193.0","0","0","47293","","null","","","null","21","","NaN","","","","","","","","","","","","","",""
"","response","","html-keyboard-response","144","174069","0.0-1.0-194.0-0.0","0","0","47293","","398","","","75","21","","","1","21","training","adjacent","BC","2","3","N.jpg","P.jpg","1","1","1","",""
"","feedback","","html-keyboard-response","145","175074","0.0-1.0-195.0-0.0","0","0","47293","","null","","","null","21","","","","","","","","","","","","","","","",""
"","ITI","","html-keyboard-response","146","176078","0.0-1.0-198.0","0","0","47293","","null","","","null","21","","","","","","","","","","","","","","","NaN",""
"","S1","","html-keyboard-response","147","176345","0.0-1.0-200.0","0","0","47293","","null","","","null","22","","","","","","","","","","","","","","","",""
"","ISI","","html-keyboard-response","148","177349","0.0-1.0-201.0","0","0","47293","","null","","","null","22","NaN","","","","","","","","","","","","","","",""
"","S2","","html-keyboard-response","149","177603","0.0-1.0-202.0","0","0","47293","","null","","","null","22","","NaN","","","","","","","","","","","","","",""
"","response","","html-keyboard-response","150","177843","0.0-1.0-203.0-0.0","0","0","47293","","239","","","75","22","","","1","22","training","adjacent","CB","3","2","P.jpg","N.jpg","1","0","0","",""
"","feedback","","html-keyboard-response","151","178847","0.0-1.0-204.0-0.0","0","0","47293","","null","","","null","22","","","","","","","","","","","","","","","",""
"","time_out","","html-keyboard-response","152","180850","0.0-1.0-206.0-0.0","0","0","47293","","null","","","null","22","","","","","","","","","","","","","","","",""
"","ITI","","html-keyboard-response","153","181854","0.0-1.0-207.0","0","0","47293","","null","","","null","22","","","","","","","","","","","","","","","NaN",""
"","S1","","html-keyboard-response","154","182108","0.0-1.0-209.0","0","0","47293","","null","","","null","23","","","","","","","","","","","","","","","",""
"","ISI","","html-keyboard-response","155","183113","0.0-1.0-210.0","0","0","47293","","null","","","null","23","NaN","","","","","","","","","","","","","","",""
"","S2","","html-keyboard-response","156","183367","0.0-1.0-211.0","0","0","47293","","null","","","null","23","","NaN","","","","","","","","","","","","","",""
"","response","","html-keyboard-response","157","183733","0.0-1.0-212.0-0.0","0","0","47293","","362","","","68","23","","","1","23","training","adjacent","ED","5","4","R.jpg","Q.jpg","0","0","1","",""
"","feedback","","html-keyboard-response","158","184738","0.0-1.0-213.0-0.0","0","0","47293","","null","","","null","23","","","","","","","","","","","","","","","",""
"","ITI","","html-keyboard-response","159","185743","0.0-1.0-216.0","0","0","47293","","null","","","null","23","","","","","","","","","","","","","","","NaN",""
"","S1","","html-keyboard-response","160","185997","0.0-1.0-218.0","0","0","47293","","null","","","null","24","","","","","","","","","","","","","","","",""
"","ISI","","html-keyboard-response","161","187002","0.0-1.0-219.0","0","0","47293","","null","","","null","24","NaN","","","","","","","","","","","","","","",""
"","S2","","html-keyboard-response","162","187257","0.0-1.0-220.0","0","0","47293","","null","","","null","24","","NaN","","","","","","","","","","","","","",""
"","response","","html-keyboard-response","163","187685","0.0-1.0-221.0-0.0","0","0","47293","","424","","","68","24","","","1","24","training","adjacent","GF","7","6","O.jpg","L.jpg","0","0","1","",""
"","feedback","","html-keyboard-response","164","188689","0.0-1.0-222.0-0.0","0","0","47293","","null","","","null","24","","","","","","","","","","","","","","","",""
"","ITI","","html-keyboard-response","165","189694","0.0-1.0-225.0","0","0","47293","","null","","","null","24","","","","","","","","","","","","","","","NaN",""
"","S1","","html-keyboard-response","166","189947","0.0-1.0-227.0","0","0","47293","","null","","","null","25","","","","","","","","","","","","","","","",""
"","ISI","","html-keyboard-response","167","190951","0.0-1.0-228.0","0","0","47293","","null","","","null","25","NaN","","","","","","","","","","","","","","",""
"","S2","","html-keyboard-response","168","191206","0.0-1.0-229.0","0","0","47293","","null","","","null","25","","NaN","","","","","","","","","","","","","",""
"","response","","html-keyboard-response","169","191829","0.0-1.0-230.0-0.0","0","0","47293","","620","","","68","25","","","1","25","training","adjacent","FG","6","7","L.jpg","O.jpg","0","1","0","",""
"","feedback","","html-keyboard-response","170","192833","0.0-1.0-231.0-0.0","0","0","47293","","null","","","null","25","","","","","","","","","","","","","","","",""
"","time_out","","html-keyboard-response","171","194847","0.0-1.0-233.0-0.0","0","0","47293","","null","","","null","25","","","","","","","","","","","","","","","",""
"","ITI","","html-keyboard-response","172","195850","0.0-1.0-234.0","0","0","47293","","null","","","null","25","","","","","","","","","","","","","","","NaN",""
"","S1","","html-keyboard-response","173","196105","0.0-1.0-236.0","0","0","47293","","null","","","null","26","","","","","","","","","","","","","","","",""
"","ISI","","html-keyboard-response","174","197109","0.0-1.0-237.0","0","0","47293","","null","","","null","26","NaN","","","","","","","","","","","","","","",""
"","S2","","html-keyboard-response","175","197364","0.0-1.0-238.0","0","0","47293","","null","","","null","26","","NaN","","","","","","","","","","","","","",""
"","response","","html-keyboard-response","176","197669","0.0-1.0-239.0-0.0","0","0","47293","","301","","","75","26","","","1","26","training","adjacent","FG","6","7","L.jpg","O.jpg","1","1","1","",""
"","feedback","","html-keyboard-response","177","198675","0.0-1.0-240.0-0.0","0","0","47293","","null","","","null","26","","","","","","","","","","","","","","","",""
"","ITI","","html-keyboard-response","178","199678","0.0-1.0-243.0","0","0","47293","","null","","","null","26","","","","","","","","","","","","","","","NaN",""
"","S1","","html-keyboard-response","179","199933","0.0-1.0-245.0","0","0","47293","","null","","","null","27","","","","","","","","","","","","","","","",""
"","ISI","","html-keyboard-response","180","200937","0.0-1.0-246.0","0","0","47293","","null","","","null","27","NaN","","","","","","","","","","","","","","",""
"","S2","","html-keyboard-response","181","201198","0.0-1.0-247.0","0","0","47293","","null","","","null","27","","NaN","","","","","","","","","","","","","",""
"","response","","html-keyboard-response","182","201445","0.0-1.0-248.0-0.0","0","0","47293","","243","","","75","27","","","1","27","training","adjacent","BA","2","1","N.jpg","M.jpg","1","0","0","",""
"","feedback","","html-keyboard-response","183","202449","0.0-1.0-249.0-0.0","0","0","47293","","null","","","null","27","","","","","","","","","","","","","","","",""
"","time_out","","html-keyboard-response","184","204453","0.0-1.0-251.0-0.0","0","0","47293","","null","","","null","27","","","","","","","","","","","","","","","",""
"","ITI","","html-keyboard-response","185","205456","0.0-1.0-252.0","0","0","47293","","null","","","null","27","","","","","","","","","","","","","","","NaN",""
"","S1","","html-keyboard-response","186","205710","0.0-1.0-254.0","0","0","47293","","null","","","null","28","","","","","","","","","","","","","","","",""
"","ISI","","html-keyboard-response","187","206714","0.0-1.0-255.0","0","0","47293","","null","","","null","28","NaN","","","","","","","","","","","","","","",""
"","S2","","html-keyboard-response","188","206969","0.0-1.0-256.0","0","0","47293","","null","","","null","28","","NaN","","","","","","","","","","","","","",""
"","response","","html-keyboard-response","189","207381","0.0-1.0-257.0-0.0","0","0","47293","","409","","","68","28","","","1","28","training","adjacent","BA","2","1","N.jpg","M.jpg","0","0","1","",""
"","feedback","","html-keyboard-response","190","208386","0.0-1.0-258.0-0.0","0","0","47293","","null","","","null","28","","","","","","","","","","","","","","","",""
"","ITI","","html-keyboard-response","191","209390","0.0-1.0-261.0","0","0","47293","","null","","","null","28","","","","","","","","","","","","","","","NaN",""
"","S1","","html-keyboard-response","192","209643","0.0-1.0-263.0","0","0","47293","","null","","","null","29","","","","","","","","","","","","","","","",""
"","ISI","","html-keyboard-response","193","210645","0.0-1.0-264.0","0","0","47293","","null","","","null","29","NaN","","","","","","","","","","","","","","",""
"","S2","","html-keyboard-response","194","210899","0.0-1.0-265.0","0","0","47293","","null","","","null","29","","NaN","","","","","","","","","","","","","",""
"","response","","html-keyboard-response","195","211253","0.0-1.0-266.0-0.0","0","0","47293","","351","","","68","29","","","1","29","training","adjacent","DE","4","5","Q.jpg","R.jpg","0","1","0","",""
"","feedback","","html-keyboard-response","196","212258","0.0-1.0-267.0-0.0","0","0","47293","","null","","","null","29","","","","","","","","","","","","","","","",""
"","time_out","","html-keyboard-response","197","214263","0.0-1.0-269.0-0.0","0","0","47293","","null","","","null","29","","","","","","","","","","","","","","","",""
"","ITI","","html-keyboard-response","198","215267","0.0-1.0-270.0","0","0","47293","","null","","","null","29","","","","","","","","","","","","","","","NaN",""
"","S1","","html-keyboard-response","199","215521","0.0-1.0-272.0","0","0","47293","","null","","","null","30","","","","","","","","","","","","","","","",""
"","ISI","","html-keyboard-response","200","216525","0.0-1.0-273.0","0","0","47293","","null","","","null","30","NaN","","","","","","","","","","","","","","",""
"","S2","","html-keyboard-response","201","216779","0.0-1.0-274.0","0","0","47293","","null","","","null","30","","NaN","","","","","","","","","","","","","",""
"","response","","html-keyboard-response","202","217061","0.0-1.0-275.0-0.0","0","0","47293","","278","","","75","30","","","1","30","training","adjacent","GF","7","6","O.jpg","L.jpg","1","0","0","",""
"","feedback","","html-keyboard-response","203","218066","0.0-1.0-276.0-0.0","0","0","47293","","null","","","null","30","","","","","","","","","","","","","","","",""
"","time_out","","html-keyboard-response","204","220070","0.0-1.0-278.0-0.0","0","0","47293","","null","","","null","30","","","","","","","","","","","","","","","",""
"","ITI","","html-keyboard-response","205","221075","0.0-1.0-279.0","0","0","47293","","null","","","null","30","","","","","","","","","","","","","","","NaN",""
"","S1","","html-keyboard-response","206","221328","0.0-1.0-281.0","0","0","47293","","null","","","null","31","","","","","","","","","","","","","","","",""
"","ISI","","html-keyboard-response","207","222333","0.0-1.0-282.0","0","0","47293","","null","","","null","31","NaN","","","","","","","","","","","","","","",""
"","S2","","html-keyboard-response","208","222588","0.0-1.0-283.0","0","0","47293","","null","","","null","31","","NaN","","","","","","","","","","","","","",""
"","response","","html-keyboard-response","209","222869","0.0-1.0-284.0-0.0","0","0","47293","","278","","","68","31","","","1","31","training","adjacent","EF","5","6","R.jpg","L.jpg","0","1","0","",""
"","feedback","","html-keyboard-response","210","223874","0.0-1.0-285.0-0.0","0","0","47293","","null","","","null","31","","","","","","","","","","","","","","","",""
"","time_out","","html-keyboard-response","211","225878","0.0-1.0-287.0-0.0","0","0","47293","","null","","","null","31","","","","","","","","","","","","","","","",""
"","ITI","","html-keyboard-response","212","226882","0.0-1.0-288.0","0","0","47293","","null","","","null","31","","","","","","","","","","","","","","","NaN",""
"","S1","","html-keyboard-response","213","227136","0.0-1.0-290.0","0","0","47293","","null","","","null","32","","","","","","","","","","","","","","","",""
"","ISI","","html-keyboard-response","214","228139","0.0-1.0-291.0","0","0","47293","","null","","","null","32","NaN","","","","","","","","","","","","","","",""
"","S2","","html-keyboard-response","215","228394","0.0-1.0-292.0","0","0","47293","","null","","","null","32","","NaN","","","","","","","","","","","","","",""
"","response","","html-keyboard-response","216","228677","0.0-1.0-293.0-0.0","0","0","47293","","279","","","75","32","","","1","32","training","adjacent","ED","5","4","R.jpg","Q.jpg","1","0","0","",""
"","feedback","","html-keyboard-response","217","229682","0.0-1.0-294.0-0.0","0","0","47293","","null","","","null","32","","","","","","","","","","","","","","","",""
"","time_out","","html-keyboard-response","218","231686","0.0-1.0-296.0-0.0","0","0","47293","","null","","","null","32","","","","","","","","","","","","","","","",""
"","ITI","","html-keyboard-response","219","232690","0.0-1.0-297.0","0","0","47293","","null","","","null","32","","","","","","","","","","","","","","","NaN",""
"","S1","","html-keyboard-response","220","232944","0.0-1.0-299.0","0","0","47293","","null","","","null","33","","","","","","","","","","","","","","","",""
"","ISI","","html-keyboard-response","221","233946","0.0-1.0-300.0","0","0","47293","","null","","","null","33","NaN","","","","","","","","","","","","","","",""
"","S2","","html-keyboard-response","222","234200","0.0-1.0-301.0","0","0","47293","","null","","","null","33","","NaN","","","","","","","","","","","","","",""
"","response","","html-keyboard-response","223","234646","0.0-1.0-302.0-0.0","0","0","47293","","442","","","68","33","","","1","33","training","adjacent","CB","3","2","P.jpg","N.jpg","0","0","1","",""
"","feedback","","html-keyboard-response","224","235650","0.0-1.0-303.0-0.0","0","0","47293","","null","","","null","33","","","","","","","","","","","","","","","",""
"","ITI","","html-keyboard-response","225","236654","0.0-1.0-306.0","0","0","47293","","null","","","null","33","","","","","","","","","","","","","","","NaN",""
"","S1","","html-keyboard-response","226","236907","0.0-1.0-308.0","0","0","47293","","null","","","null","34","","","","","","","","","","","","","","","",""
"","ISI","","html-keyboard-response","227","237910","0.0-1.0-309.0","0","0","47293","","null","","","null","34","NaN","","","","","","","","","","","","","","",""
"","S2","","html-keyboard-response","228","238164","0.0-1.0-310.0","0","0","47293","","null","","","null","34","","NaN","","","","","","","","","","","","","",""
"","response","","html-keyboard-response","229","239285","0.0-1.0-311.0-0.0","0","0","47293","","1117","","","75","34","","","1","34","training","adjacent","GF","7","6","O.jpg","L.jpg","1","0","0","",""
"","feedback","","html-keyboard-response","230","240289","0.0-1.0-312.0-0.0","0","0","47293","","null","","","null","34","","","","","","","","","","","","","","","",""
"","time_out","","html-keyboard-response","231","242293","0.0-1.0-314.0-0.0","0","0","47293","","null","","","null","34","","","","","","","","","","","","","","","",""
"","ITI","","html-keyboard-response","232","243297","0.0-1.0-315.0","0","0","47293","","null","","","null","34","","","","","","","","","","","","","","","NaN",""
"","S1","","html-keyboard-response","233","243551","0.0-1.0-317.0","0","0","47293","","null","","","null","35","","","","","","","","","","","","","","","",""
"","ISI","","html-keyboard-response","234","244561","0.0-1.0-318.0","0","0","47293","","null","","","null","35","NaN","","","","","","","","","","","","","","",""
"","S2","","html-keyboard-response","235","244815","0.0-1.0-319.0","0","0","47293","","null","","","null","35","","NaN","","","","","","","","","","","","","",""
"","response","","html-keyboard-response","236","245189","0.0-1.0-320.0-0.0","0","0","47293","","370","","","68","35","","","1","35","training","adjacent","EF","5","6","R.jpg","L.jpg","0","1","0","",""
"","feedback","","html-keyboard-response","237","246192","0.0-1.0-321.0-0.0","0","0","47293","","null","","","null","35","","","","","","","","","","","","","","","",""
"","time_out","","html-keyboard-response","238","248196","0.0-1.0-323.0-0.0","0","0","47293","","null","","","null","35","","","","","","","","","","","","","","","",""
"","ITI","","html-keyboard-response","239","249200","0.0-1.0-324.0","0","0","47293","","null","","","null","35","","","","","","","","","","","","","","","NaN",""
"","S1","","html-keyboard-response","240","249454","0.0-1.0-326.0","0","0","47293","","null","","","null","36","","","","","","","","","","","","","","","",""
"","ISI","","html-keyboard-response","241","250456","0.0-1.0-327.0","0","0","47293","","null","","","null","36","NaN","","","","","","","","","","","","","","",""
"","S2","","html-keyboard-response","242","250709","0.0-1.0-328.0","0","0","47293","","null","","","null","36","","NaN","","","","","","","","","","","","","",""
"","response","","html-keyboard-response","243","250931","0.0-1.0-329.0-0.0","0","0","47293","","221","","","75","36","","","1","36","training","adjacent","FE","6","5","L.jpg","R.jpg","1","0","0","",""
"","feedback","","html-keyboard-response","244","251934","0.0-1.0-330.0-0.0","0","0","47293","","null","","","null","36","","","","","","","","","","","","","","","",""
"","time_out","","html-keyboard-response","245","253937","0.0-1.0-332.0-0.0","0","0","47293","","null","","","null","36","","","","","","","","","","","","","","","",""
"","ITI","","html-keyboard-response","246","254942","0.0-1.0-333.0","0","0","47293","","null","","","null","36","","","","","","","","","","","","","","","NaN",""
"","S1","","html-keyboard-response","247","255196","0.0-1.0-335.0","0","0","47293","","null","","","null","37","","","","","","","","","","","","","","","",""
"","ISI","","html-keyboard-response","248","256200","0.0-1.0-336.0","0","0","47293","","null","","","null","37","NaN","","","","","","","","","","","","","","",""
"","S2","","html-keyboard-response","249","256453","0.0-1.0-337.0","0","0","47293","","null","","","null","37","","NaN","","","","","","","","","","","","","",""
"","response","","html-keyboard-response","250","256725","0.0-1.0-338.0-0.0","0","0","47293","","268","","","68","37","","","1","37","training","adjacent","CB","3","2","P.jpg","N.jpg","0","0","1","",""
"","feedback","","html-keyboard-response","251","257730","0.0-1.0-339.0-0.0","0","0","47293","","null","","","null","37","","","","","","","","","","","","","","","",""
"","ITI","","html-keyboard-response","252","258733","0.0-1.0-342.0","0","0","47293","","null","","","null","37","","","","","","","","","","","","","","","NaN",""
"","S1","","html-keyboard-response","253","258987","0.0-1.0-344.0","0","0","47293","","null","","","null","38","","","","","","","","","","","","","","","",""
"","ISI","","html-keyboard-response","254","259991","0.0-1.0-345.0","0","0","47293","","null","","","null","38","NaN","","","","","","","","","","","","","","",""
"","S2","","html-keyboard-response","255","260245","0.0-1.0-346.0","0","0","47293","","null","","","null","38","","NaN","","","","","","","","","","","","","",""
"","response","","html-keyboard-response","256","261445","0.0-1.0-347.0-0.0","0","0","47293","","1197","","","68","38","","","1","38","training","adjacent","AB","1","2","M.jpg","N.jpg","0","1","0","",""
"","feedback","","html-keyboard-response","257","262449","0.0-1.0-348.0-0.0","0","0","47293","","null","","","null","38","","","","","","","","","","","","","","","",""
"","time_out","","html-keyboard-response","258","264454","0.0-1.0-350.0-0.0","0","0","47293","","null","","","null","38","","","","","","","","","","","","","","","",""
"","ITI","","html-keyboard-response","259","265458","0.0-1.0-351.0","0","0","47293","","null","","","null","38","","","","","","","","","","","","","","","NaN",""
"","S1","","html-keyboard-response","260","265713","0.0-1.0-353.0","0","0","47293","","null","","","null","39","","","","","","","","","","","","","","","",""
"","ISI","","html-keyboard-response","261","266716","0.0-1.0-354.0","0","0","47293","","null","","","null","39","NaN","","","","","","","","","","","","","","",""
"","S2","","html-keyboard-response","262","266970","0.0-1.0-355.0","0","0","47293","","null","","","null","39","","NaN","","","","","","","","","","","","","",""
"","response","","html-keyboard-response","263","267269","0.0-1.0-356.0-0.0","0","0","47293","","295","","","75","39","","","1","39","training","adjacent","CD","3","4","P.jpg","Q.jpg","1","1","1","",""
"","feedback","","html-keyboard-response","264","268274","0.0-1.0-357.0-0.0","0","0","47293","","null","","","null","39","","","","","","","","","","","","","","","",""
"","ITI","","html-keyboard-response","265","269278","0.0-1.0-360.0","0","0","47293","","null","","","null","39","","","","","","","","","","","","","","","NaN",""
"","S1","","html-keyboard-response","266","269531","0.0-1.0-362.0","0","0","47293","","null","","","null","40","","","","","","","","","","","","","","","",""
"","ISI","","html-keyboard-response","267","270534","0.0-1.0-363.0","0","0","47293","","null","","","null","40","NaN","","","","","","","","","","","","","","",""
"","S2","","html-keyboard-response","268","270788","0.0-1.0-364.0","0","0","47293","","null","","","null","40","","NaN","","","","","","","","","","","","","",""
"","response","","html-keyboard-response","269","271205","0.0-1.0-365.0-0.0","0","0","47293","","413","","","75","40","","","1","40","training","adjacent","BC","2","3","N.jpg","P.jpg","1","1","1","",""
"","feedback","","html-keyboard-response","270","272216","0.0-1.0-366.0-0.0","0","0","47293","","null","","","null","40","","","","","","","","","","","","","","","",""
"","ITI","","html-keyboard-response","271","273220","0.0-1.0-369.0","0","0","47293","","null","","","null","40","","","","","","","","","","","","","","","NaN",""
"","S1","","html-keyboard-response","272","273474","0.0-1.0-371.0","0","0","47293","","null","","","null","41","","","","","","","","","","","","","","","",""
"","ISI","","html-keyboard-response","273","274478","0.0-1.0-372.0","0","0","47293","","null","","","null","41","NaN","","","","","","","","","","","","","","",""
"","S2","","html-keyboard-response","274","274733","0.0-1.0-373.0","0","0","47293","","null","","","null","41","","NaN","","","","","","","","","","","","","",""
"","response","","html-keyboard-response","275","275061","0.0-1.0-374.0-0.0","0","0","47293","","324","","","68","41","","","1","41","training","adjacent","FG","6","7","L.jpg","O.jpg","0","1","0","",""
"","feedback","","html-keyboard-response","276","276066","0.0-1.0-375.0-0.0","0","0","47293","","null","","","null","41","","","","","","","","","","","","","","","",""
"","time_out","","html-keyboard-response","277","278070","0.0-1.0-377.0-0.0","0","0","47293","","null","","","null","41","","","","","","","","","","","","","","","",""
"","ITI","","html-keyboard-response","278","279075","0.0-1.0-378.0","0","0","47293","","null","","","null","41","","","","","","","","","","","","","","","NaN",""
"","S1","","html-keyboard-response","279","279329","0.0-1.0-380.0","0","0","47293","","null","","","null","42","","","","","","","","","","","","","","","",""
"","ISI","","html-keyboard-response","280","280332","0.0-1.0-381.0","0","0","47293","","null","","","null","42","NaN","","","","","","","","","","","","","","",""
"","S2","","html-keyboard-response","281","280584","0.0-1.0-382.0","0","0","47293","","null","","","null","42","","NaN","","","","","","","","","","","","","",""
"","response","","html-keyboard-response","282","280709","0.0-1.0-383.0-0.0","0","0","47293","","123","","","75","42","","","1","42","training","adjacent","EF","5","6","R.jpg","L.jpg","1","1","1","",""
"","feedback","","html-keyboard-response","283","281715","0.0-1.0-384.0-0.0","0","0","47293","","null","","","null","42","","","","","","","","","","","","","","","",""
"","ITI","","html-keyboard-response","284","282719","0.0-1.0-387.0","0","0","47293","","null","","","null","42","","","","","","","","","","","","","","","NaN",""
"","S1","","html-keyboard-response","285","282973","0.0-1.0-389.0","0","0","47293","","null","","","null","43","","","","","","","","","","","","","","","",""
"","ISI","","html-keyboard-response","286","283977","0.0-1.0-390.0","0","0","47293","","null","","","null","43","NaN","","","","","","","","","","","","","","",""
"","S2","","html-keyboard-response","287","284230","0.0-1.0-391.0","0","0","47293","","null","","","null","43","","NaN","","","","","","","","","","","","","",""
"","response","","html-keyboard-response","288","285365","0.0-1.0-392.0-0.0","0","0","47293","","1131","","","68","43","","","1","43","training","adjacent","CB","3","2","P.jpg","N.jpg","0","0","1","",""
"","feedback","","html-keyboard-response","289","286370","0.0-1.0-393.0-0.0","0","0","47293","","null","","","null","43","","","","","","","","","","","","","","","",""
"","ITI","","html-keyboard-response","290","287375","0.0-1.0-396.0","0","0","47293","","null","","","null","43","","","","","","","","","","","","","","","NaN",""
"","S1","","html-keyboard-response","291","287630","0.0-1.0-398.0","0","0","47293","","null","","","null","44","","","","","","","","","","","","","","","",""
"","ISI","","html-keyboard-response","292","288634","0.0-1.0-399.0","0","0","47293","","null","","","null","44","NaN","","","","","","","","","","","","","","",""
"","S2","","html-keyboard-response","293","288888","0.0-1.0-400.0","0","0","47293","","null","","","null","44","","NaN","","","","","","","","","","","","","",""
"","response","","html-keyboard-response","294","289861","0.0-1.0-401.0-0.0","0","0","47293","","969","","","75","44","","","1","44","training","adjacent","EF","5","6","R.jpg","L.jpg","1","1","1","",""
"","feedback","","html-keyboard-response","295","290866","0.0-1.0-402.0-0.0","0","0","47293","","null","","","null","44","","","","","","","","","","","","","","","",""
"","ITI","","html-keyboard-response","296","291870","0.0-1.0-405.0","0","0","47293","","null","","","null","44","","","","","","","","","","","","","","","NaN",""
"","S1","","html-keyboard-response","297","292125","0.0-1.0-407.0","0","0","47293","","null","","","null","45","","","","","","","","","","","","","","","",""
"","ISI","","html-keyboard-response","298","293129","0.0-1.0-408.0","0","0","47293","","null","","","null","45","NaN","","","","","","","","","","","","","","",""
"","S2","","html-keyboard-response","299","293384","0.0-1.0-409.0","0","0","47293","","null","","","null","45","","NaN","","","","","","","","","","","","","",""
"","response","","html-keyboard-response","300","294949","0.0-1.0-410.0-0.0","0","0","47293","","1561","","","68","45","","","1","45","training","adjacent","AB","1","2","M.jpg","N.jpg","0","1","0","",""
"","feedback","","html-keyboard-response","301","295953","0.0-1.0-411.0-0.0","0","0","47293","","null","","","null","45","","","","","","","","","","","","","","","",""
"","time_out","","html-keyboard-response","302","297954","0.0-1.0-413.0-0.0","0","0","47293","","null","","","null","45","","","","","","","","","","","","","","","",""
"","ITI","","html-keyboard-response","303","298959","0.0-1.0-414.0","0","0","47293","","null","","","null","45","","","","","","","","","","","","","","","NaN",""
"","S1","","html-keyboard-response","304","299214","0.0-1.0-416.0","0","0","47293","","null","","","null","46","","","","","","","","","","","","","","","",""
"","ISI","","html-keyboard-response","305","300217","0.0-1.0-417.0","0","0","47293","","null","","","null","46","NaN","","","","","","","","","","","","","","",""
"","S2","","html-keyboard-response","306","300473","0.0-1.0-418.0","0","0","47293","","null","","","null","46","","NaN","","","","","","","","","","","","","",""
"","response","","html-keyboard-response","307","300757","0.0-1.0-419.0-0.0","0","0","47293","","280","","","75","46","","","1","46","training","adjacent","DC","4","3","Q.jpg","P.jpg","1","0","0","",""
"","feedback","","html-keyboard-response","308","301763","0.0-1.0-420.0-0.0","0","0","47293","","null","","","null","46","","","","","","","","","","","","","","","",""
"","time_out","","html-keyboard-response","309","303767","0.0-1.0-422.0-0.0","0","0","47293","","null","","","null","46","","","","","","","","","","","","","","","",""
"","ITI","","html-keyboard-response","310","304771","0.0-1.0-423.0","0","0","47293","","null","","","null","46","","","","","","","","","","","","","","","NaN",""
"","S1","","html-keyboard-response","311","305025","0.0-1.0-425.0","0","0","47293","","null","","","null","47","","","","","","","","","","","","","","","",""
"","ISI","","html-keyboard-response","312","306029","0.0-1.0-426.0","0","0","47293","","null","","","null","47","NaN","","","","","","","","","","","","","","",""
"","S2","","html-keyboard-response","313","306284","0.0-1.0-427.0","0","0","47293","","null","","","null","47","","NaN","","","","","","","","","","","","","",""
"","response","","html-keyboard-response","314","306595","0.0-1.0-428.0-0.0","0","0","47293","","309","","","75","47","","","1","47","training","adjacent","DC","4","3","Q.jpg","P.jpg","1","0","0","",""
"","feedback","","html-keyboard-response","315","307597","0.0-1.0-429.0-0.0","0","0","47293","","null","","","null","47","","","","","","","","","","","","","","","",""
"","time_out","","html-keyboard-response","316","309600","0.0-1.0-431.0-0.0","0","0","47293","","null","","","null","47","","","","","","","","","","","","","","","",""
"","ITI","","html-keyboard-response","317","310604","0.0-1.0-432.0","0","0","47293","","null","","","null","47","","","","","","","","","","","","","","","NaN",""
"","block_over","","html-keyboard-response","318","313349","0.0-1.0-433.0-0.0","0","0","47293","","2740","","","32","47","","","","","","","","","","","","","","","",""
"","S1","","html-keyboard-response","319","313603","0.0-1.0-434.0","0","0","47293","","null","","","null","48","","","","","","","","","","","","","","","",""
"","ISI","","html-keyboard-response","320","314606","0.0-1.0-435.0","0","0","47293","","null","","","null","48","NaN","","","","","","","","","","","","","","",""
"","S2","","html-keyboard-response","321","314858","0.0-1.0-436.0","0","0","47293","","null","","","null","48","","NaN","","","","","","","","","","","","","",""
"","response","","html-keyboard-response","322","315507","0.0-1.0-437.0-0.0","0","0","47293","","646","","","75","48","","","2","48","training","adjacent","BC","2","3","N.jpg","P.jpg","1","1","1","",""
"","feedback","","html-keyboard-response","323","316510","0.0-1.0-438.0-0.0","0","0","47293","","null","","","null","48","","","","","","","","","","","","","","","",""
"","ITI","","html-keyboard-response","324","317515","0.0-1.0-441.0","0","0","47293","","null","","","null","48","","","","","","","","","","","","","","","NaN",""
"","S1","","html-keyboard-response","325","317768","0.0-1.0-443.0","0","0","47293","","null","","","null","49","","","","","","","","","","","","","","","",""
"","ISI","","html-keyboard-response","326","318771","0.0-1.0-444.0","0","0","47293","","null","","","null","49","NaN","","","","","","","","","","","","","","",""
"","S2","","html-keyboard-response","327","319027","0.0-1.0-445.0","0","0","47293","","null","","","null","49","","NaN","","","","","","","","","","","","","",""
"","response","","html-keyboard-response","328","319668","0.0-1.0-446.0-0.0","0","0","47293","","638","","","68","49","","","2","49","training","adjacent","FE","6","5","L.jpg","R.jpg","0","0","1","",""
"","feedback","","html-keyboard-response","329","320671","0.0-1.0-447.0-0.0","0","0","47293","","null","","","null","49","","","","","","","","","","","","","","","",""
"","ITI","","html-keyboard-response","330","321676","0.0-1.0-450.0","0","0","47293","","null","","","null","49","","","","","","","","","","","","","","","NaN",""
"","S1","","html-keyboard-response","331","321930","0.0-1.0-452.0","0","0","47293","","null","","","null","50","","","","","","","","","","","","","","","",""
"","ISI","","html-keyboard-response","332","322934","0.0-1.0-453.0","0","0","47293","","null","","","null","50","NaN","","","","","","","","","","","","","","",""
"","S2","","html-keyboard-response","333","323189","0.0-1.0-454.0","0","0","47293","","null","","","null","50","","NaN","","","","","","","","","","","","","",""
"","response","","html-keyboard-response","334","323605","0.0-1.0-455.0-0.0","0","0","47293","","412","","","68","50","","","2","50","training","adjacent","FG","6","7","L.jpg","O.jpg","0","1","0","",""
"","feedback","","html-keyboard-response","335","324614","0.0-1.0-456.0-0.0","0","0","47293","","null","","","null","50","","","","","","","","","","","","","","","",""
"","time_out","","html-keyboard-response","336","326618","0.0-1.0-458.0-0.0","0","0","47293","","null","","","null","50","","","","","","","","","","","","","","","",""
"","ITI","","html-keyboard-response","337","327623","0.0-1.0-459.0","0","0","47293","","null","","","null","50","","","","","","","","","","","","","","","NaN",""
"","S1","","html-keyboard-response","338","327877","0.0-1.0-461.0","0","0","47293","","null","","","null","51","","","","","","","","","","","","","","","",""
"","ISI","","html-keyboard-response","339","328881","0.0-1.0-462.0","0","0","47293","","null","","","null","51","NaN","","","","","","","","","","","","","","",""
"","S2","","html-keyboard-response","340","329136","0.0-1.0-463.0","0","0","47293","","null","","","null","51","","NaN","","","","","","","","","","","","","",""
"","response","","html-keyboard-response","341","329413","0.0-1.0-464.0-0.0","0","0","47293","","273","","","75","51","","","2","51","training","adjacent","FE","6","5","L.jpg","R.jpg","1","0","0","",""
"","feedback","","html-keyboard-response","342","330417","0.0-1.0-465.0-0.0","0","0","47293","","null","","","null","51","","","","","","","","","","","","","","","",""
"","time_out","","html-keyboard-response","343","332420","0.0-1.0-467.0-0.0","0","0","47293","","null","","","null","51","","","","","","","","","","","","","","","",""
"","ITI","","html-keyboard-response","344","333423","0.0-1.0-468.0","0","0","47293","","null","","","null","51","","","","","","","","","","","","","","","NaN",""
"","S1","","html-keyboard-response","345","333677","0.0-1.0-470.0","0","0","47293","","null","","","null","52","","","","","","","","","","","","","","","",""
"","ISI","","html-keyboard-response","346","334681","0.0-1.0-471.0","0","0","47293","","null","","","null","52","NaN","","","","","","","","","","","","","","",""
"","S2","","html-keyboard-response","347","334935","0.0-1.0-472.0","0","0","47293","","null","","","null","52","","NaN","","","","","","","","","","","","","",""
"","response","","html-keyboard-response","348","335061","0.0-1.0-473.0-0.0","0","0","47293","","123","","","75","52","","","2","52","training","adjacent","FG","6","7","L.jpg","O.jpg","1","1","1","",""
"","feedback","","html-keyboard-response","349","336074","0.0-1.0-474.0-0.0","0","0","47293","","null","","","null","52","","","","","","","","","","","","","","","",""
"","ITI","","html-keyboard-response","350","337077","0.0-1.0-477.0","0","0","47293","","null","","","null","52","","","","","","","","","","","","","","","NaN",""
"","S1","","html-keyboard-response","351","337333","0.0-1.0-479.0","0","0","47293","","null","","","null","53","","","","","","","","","","","","","","","",""
"","ISI","","html-keyboard-response","352","338337","0.0-1.0-480.0","0","0","47293","","null","","","null","53","NaN","","","","","","","","","","","","","","",""
"","S2","","html-keyboard-response","353","338596","0.0-1.0-481.0","0","0","47293","","null","","","null","53","","NaN","","","","","","","","","","","","","",""
"","response","","html-keyboard-response","354","339412","0.0-1.0-482.0-0.0","0","0","47293","","813","","","68","53","","","2","53","training","adjacent","ED","5","4","R.jpg","Q.jpg","0","0","1","",""
"","feedback","","html-keyboard-response","355","340417","0.0-1.0-483.0-0.0","0","0","47293","","null","","","null","53","","","","","","","","","","","","","","","",""
"","ITI","","html-keyboard-response","356","341437","0.0-1.0-486.0","0","0","47293","","null","","","null","53","","","","","","","","","","","","","","","NaN",""
"","S1","","html-keyboard-response","357","341689","0.0-1.0-488.0","0","0","47293","","null","","","null","54","","","","","","","","","","","","","","","",""
"","ISI","","html-keyboard-response","358","342705","0.0-1.0-489.0","0","0","47293","","null","","","null","54","NaN","","","","","","","","","","","","","","",""
"","S2","","html-keyboard-response","359","342959","0.0-1.0-490.0","0","0","47293","","null","","","null","54","","NaN","","","","","","","","","","","","","",""
"","response","","html-keyboard-response","360","343779","0.0-1.0-491.0-0.0","0","0","47293","","817","","","68","54","","","2","54","training","adjacent","FE","6","5","L.jpg","R.jpg","0","0","1","",""
"","feedback","","html-keyboard-response","361","344781","0.0-1.0-492.0-0.0","0","0","47293","","null","","","null","54","","","","","","","","","","","","","","","",""
"","ITI","","html-keyboard-response","362","345786","0.0-1.0-495.0","0","0","47293","","null","","","null","54","","","","","","","","","","","","","","","NaN",""
"","S1","","html-keyboard-response","363","346040","0.0-1.0-497.0","0","0","47293","","null","","","null","55","","","","","","","","","","","","","","","",""
"","ISI","","html-keyboard-response","364","347044","0.0-1.0-498.0","0","0","47293","","null","","","null","55","NaN","","","","","","","","","","","","","","",""
"","S2","","html-keyboard-response","365","347298","0.0-1.0-499.0","0","0","47293","","null","","","null","55","","NaN","","","","","","","","","","","","","",""
"","response","","html-keyboard-response","366","347781","0.0-1.0-500.0-0.0","0","0","47293","","479","","","68","55","","","2","55","training","adjacent","AB","1","2","M.jpg","N.jpg","0","1","0","",""
"","feedback","","html-keyboard-response","367","348785","0.0-1.0-501.0-0.0","0","0","47293","","null","","","null","55","","","","","","","","","","","","","","","",""
"","time_out","","html-keyboard-response","368","350788","0.0-1.0-503.0-0.0","0","0","47293","","null","","","null","55","","","","","","","","","","","","","","","",""
"","ITI","","html-keyboard-response","369","351793","0.0-1.0-504.0","0","0","47293","","null","","","null","55","","","","","","","","","","","","","","","NaN",""
"","S1","","html-keyboard-response","370","352047","0.0-1.0-506.0","0","0","47293","","null","","","null","56","","","","","","","","","","","","","","","",""
"","ISI","","html-keyboard-response","371","353050","0.0-1.0-507.0","0","0","47293","","null","","","null","56","NaN","","","","","","","","","","","","","","",""
"","S2","","html-keyboard-response","372","353305","0.0-1.0-508.0","0","0","47293","","null","","","null","56","","NaN","","","","","","","","","","","","","",""
"","response","","html-keyboard-response","373","353525","0.0-1.0-509.0-0.0","0","0","47293","","216","","","75","56","","","2","56","training","adjacent","BC","2","3","N.jpg","P.jpg","1","1","1","",""
"","feedback","","html-keyboard-response","374","354530","0.0-1.0-510.0-0.0","0","0","47293","","null","","","null","56","","","","","","","","","","","","","","","",""
"","ITI","","html-keyboard-response","375","355534","0.0-1.0-513.0","0","0","47293","","null","","","null","56","","","","","","","","","","","","","","","NaN",""
"","S1","","html-keyboard-response","376","355789","0.0-1.0-515.0","0","0","47293","","null","","","null","57","","","","","","","","","","","","","","","",""
"","ISI","","html-keyboard-response","377","356800","0.0-1.0-516.0","0","0","47293","","null","","","null","57","NaN","","","","","","","","","","","","","","",""
"","S2","","html-keyboard-response","378","357055","0.0-1.0-517.0","0","0","47293","","null","","","null","57","","NaN","","","","","","","","","","","","","",""
"","response","","html-keyboard-response","379","357365","0.0-1.0-518.0-0.0","0","0","47293","","306","","","68","57","","","2","57","training","adjacent","CB","3","2","P.jpg","N.jpg","0","0","1","",""
"","feedback","","html-keyboard-response","380","358375","0.0-1.0-519.0-0.0","0","0","47293","","null","","","null","57","","","","","","","","","","","","","","","",""
"","ITI","","html-keyboard-response","381","359380","0.0-1.0-522.0","0","0","47293","","null","","","null","57","","","","","","","","","","","","","","","NaN",""
"","S1","","html-keyboard-response","382","359635","0.0-1.0-524.0","0","0","47293","","null","","","null","58","","","","","","","","","","","","","","","",""
"","ISI","","html-keyboard-response","383","360637","0.0-1.0-525.0","0","0","47293","","null","","","null","58","NaN","","","","","","","","","","","","","","",""
"","S2","","html-keyboard-response","384","360890","0.0-1.0-526.0","0","0","47293","","null","","","null","58","","NaN","","","","","","","","","","","","","",""
"","response","","html-keyboard-response","385","361733","0.0-1.0-527.0-0.0","0","0","47293","","840","","","68","58","","","2","58","training","adjacent","ED","5","4","R.jpg","Q.jpg","0","0","1","",""
"","feedback","","html-keyboard-response","386","362738","0.0-1.0-528.0-0.0","0","0","47293","","null","","","null","58","","","","","","","","","","","","","","","",""
"","ITI","","html-keyboard-response","387","363744","0.0-1.0-531.0","0","0","47293","","null","","","null","58","","","","","","","","","","","","","","","NaN",""
"","S1","","html-keyboard-response","388","363998","0.0-1.0-533.0","0","0","47293","","null","","","null","59","","","","","","","","","","","","","","","",""
"","ISI","","html-keyboard-response","389","365004","0.0-1.0-534.0","0","0","47293","","null","","","null","59","NaN","","","","","","","","","","","","","","",""
"","S2","","html-keyboard-response","390","365259","0.0-1.0-535.0","0","0","47293","","null","","","null","59","","NaN","","","","","","","","","","","","","",""
"","response","","html-keyboard-response","391","366053","0.0-1.0-536.0-0.0","0","0","47293","","790","","","75","59","","","2","59","training","adjacent","AB","1","2","M.jpg","N.jpg","1","1","1","",""
"","feedback","","html-keyboard-response","392","367057","0.0-1.0-537.0-0.0","0","0","47293","","null","","","null","59","","","","","","","","","","","","","","","",""
"","ITI","","html-keyboard-response","393","368061","0.0-1.0-540.0","0","0","47293","","null","","","null","59","","","","","","","","","","","","","","","NaN",""
"","S1","","html-keyboard-response","394","368313","0.0-1.0-542.0","0","0","47293","","null","","","null","60","","","","","","","","","","","","","","","",""
"","ISI","","html-keyboard-response","395","369317","0.0-1.0-543.0","0","0","47293","","null","","","null","60","NaN","","","","","","","","","","","","","","",""
"","S2","","html-keyboard-response","396","369578","0.0-1.0-544.0","0","0","47293","","null","","","null","60","","NaN","","","","","","","","","","","","","",""
"","response","","html-keyboard-response","397","370677","0.0-1.0-545.0-0.0","0","0","47293","","1096","","","75","60","","","2","60","training","adjacent","CD","3","4","P.jpg","Q.jpg","1","1","1","",""
"","feedback","","html-keyboard-response","398","371680","0.0-1.0-546.0-0.0","0","0","47293","","null","","","null","60","","","","","","","","","","","","","","","",""
"","ITI","","html-keyboard-response","399","372683","0.0-1.0-549.0","0","0","47293","","null","","","null","60","","","","","","","","","","","","","","","NaN",""
"","S1","","html-keyboard-response","400","372937","0.0-1.0-551.0","0","0","47293","","null","","","null","61","","","","","","","","","","","","","","","",""
"","ISI","","html-keyboard-response","401","373939","0.0-1.0-552.0","0","0","47293","","null","","","null","61","NaN","","","","","","","","","","","","","","",""
"","S2","","html-keyboard-response","402","374193","0.0-1.0-553.0","0","0","47293","","null","","","null","61","","NaN","","","","","","","","","","","","","",""
"","response","","html-keyboard-response","403","374469","0.0-1.0-554.0-0.0","0","0","47293","","272","","","68","61","","","2","61","training","adjacent","BC","2","3","N.jpg","P.jpg","0","1","0","",""
"","feedback","","html-keyboard-response","404","375475","0.0-1.0-555.0-0.0","0","0","47293","","null","","","null","61","","","","","","","","","","","","","","","",""
"","time_out","","html-keyboard-response","405","377479","0.0-1.0-557.0-0.0","0","0","47293","","null","","","null","61","","","","","","","","","","","","","","","",""
"","ITI","","html-keyboard-response","406","378483","0.0-1.0-558.0","0","0","47293","","null","","","null","61","","","","","","","","","","","","","","","NaN",""
"","S1","","html-keyboard-response","407","378737","0.0-1.0-560.0","0","0","47293","","null","","","null","62","","","","","","","","","","","","","","","",""
"","ISI","","html-keyboard-response","408","379740","0.0-1.0-561.0","0","0","47293","","null","","","null","62","NaN","","","","","","","","","","","","","","",""
"","S2","","html-keyboard-response","409","379993","0.0-1.0-562.0","0","0","47293","","null","","","null","62","","NaN","","","","","","","","","","","","","",""
"","response","","html-keyboard-response","410","380517","0.0-1.0-563.0-0.0","0","0","47293","","520","","","75","62","","","2","62","training","adjacent","DE","4","5","Q.jpg","R.jpg","1","1","1","",""
"","feedback","","html-keyboard-response","411","381522","0.0-1.0-564.0-0.0","0","0","47293","","null","","","null","62","","","","","","","","","","","","","","","",""
"","ITI","","html-keyboard-response","412","382525","0.0-1.0-567.0","0","0","47293","","null","","","null","62","","","","","","","","","","","","","","","NaN",""
"","S1","","html-keyboard-response","413","382779","0.0-1.0-569.0","0","0","47293","","null","","","null","63","","","","","","","","","","","","","","","",""
"","ISI","","html-keyboard-response","414","383783","0.0-1.0-570.0","0","0","47293","","null","","","null","63","NaN","","","","","","","","","","","","","","",""
"","S2","","html-keyboard-response","415","384035","0.0-1.0-571.0","0","0","47293","","null","","","null","63","","NaN","","","","","","","","","","","","","",""
"","response","","html-keyboard-response","416","384325","0.0-1.0-572.0-0.0","0","0","47293","","286","","","75","63","","","2","63","training","adjacent","DC","4","3","Q.jpg","P.jpg","1","0","0","",""
"","feedback","","html-keyboard-response","417","385330","0.0-1.0-573.0-0.0","0","0","47293","","null","","","null","63","","","","","","","","","","","","","","","",""
"","time_out","","html-keyboard-response","418","387334","0.0-1.0-575.0-0.0","0","0","47293","","null","","","null","63","","","","","","","","","","","","","","","",""
"","ITI","","html-keyboard-response","419","388338","0.0-1.0-576.0","0","0","47293","","null","","","null","63","","","","","","","","","","","","","","","NaN",""
"","S1","","html-keyboard-response","420","388593","0.0-1.0-578.0","0","0","47293","","null","","","null","64","","","","","","","","","","","","","","","",""
"","ISI","","html-keyboard-response","421","389597","0.0-1.0-579.0","0","0","47293","","null","","","null","64","NaN","","","","","","","","","","","","","","",""
"","S2","","html-keyboard-response","422","389853","0.0-1.0-580.0","0","0","47293","","null","","","null","64","","NaN","","","","","","","","","","","","","",""
"","response","","html-keyboard-response","423","390310","0.0-1.0-581.0-0.0","0","0","47293","","453","","","68","64","","","2","64","training","adjacent","ED","5","4","R.jpg","Q.jpg","0","0","1","",""
"","feedback","","html-keyboard-response","424","391314","0.0-1.0-582.0-0.0","0","0","47293","","null","","","null","64","","","","","","","","","","","","","","","",""
"","ITI","","html-keyboard-response","425","392317","0.0-1.0-585.0","0","0","47293","","null","","","null","64","","","","","","","","","","","","","","","NaN",""
"","S1","","html-keyboard-response","426","392572","0.0-1.0-587.0","0","0","47293","","null","","","null","65","","","","","","","","","","","","","","","",""
"","ISI","","html-keyboard-response","427","393576","0.0-1.0-588.0","0","0","47293","","null","","","null","65","NaN","","","","","","","","","","","","","","",""
"","S2","","html-keyboard-response","428","393830","0.0-1.0-589.0","0","0","47293","","null","","","null","65","","NaN","","","","","","","","","","","","","",""
"","response","","html-keyboard-response","429","394325","0.0-1.0-590.0-0.0","0","0","47293","","491","","","75","65","","","2","65","training","adjacent","EF","5","6","R.jpg","L.jpg","1","1","1","",""
"","feedback","","html-keyboard-response","430","395329","0.0-1.0-591.0-0.0","0","0","47293","","null","","","null","65","","","","","","","","","","","","","","","",""
"","ITI","","html-keyboard-response","431","396334","0.0-1.0-594.0","0","0","47293","","null","","","null","65","","","","","","","","","","","","","","","NaN",""
"","S1","","html-keyboard-response","432","396588","0.0-1.0-596.0","0","0","47293","","null","","","null","66","","","","","","","","","","","","","","","",""
"","ISI","","html-keyboard-response","433","397593","0.0-1.0-597.0","0","0","47293","","null","","","null","66","NaN","","","","","","","","","","","","","","",""
"","S2","","html-keyboard-response","434","397847","0.0-1.0-598.0","0","0","47293","","null","","","null","66","","NaN","","","","","","","","","","","","","",""
"","response","","html-keyboard-response","435","398917","0.0-1.0-599.0-0.0","0","0","47293","","1067","","","68","66","","","2","66","training","adjacent","DE","4","5","Q.jpg","R.jpg","0","1","0","",""
"","feedback","","html-keyboard-response","436","399923","0.0-1.0-600.0-0.0","0","0","47293","","null","","","null","66","","","","","","","","","","","","","","","",""
"","time_out","","html-keyboard-response","437","401927","0.0-1.0-602.0-0.0","0","0","47293","","null","","","null","66","","","","","","","","","","","","","","","",""
"","ITI","","html-keyboard-response","438","402931","0.0-1.0-603.0","0","0","47293","","null","","","null","66","","","","","","","","","","","","","","","NaN",""
"","S1","","html-keyboard-response","439","403186","0.0-1.0-605.0","0","0","47293","","null","","","null","67","","","","","","","","","","","","","","","",""
"","ISI","","html-keyboard-response","440","404190","0.0-1.0-606.0","0","0","47293","","null","","","null","67","NaN","","","","","","","","","","","","","","",""
"","S2","","html-keyboard-response","441","404445","0.0-1.0-607.0","0","0","47293","","null","","","null","67","","NaN","","","","","","","","","","","","","",""
"","response","","html-keyboard-response","442","404708","0.0-1.0-608.0-0.0","0","0","47293","","260","","","75","67","","","2","67","training","adjacent","BC","2","3","N.jpg","P.jpg","1","1","1","",""
"","feedback","","html-keyboard-response","443","405710","0.0-1.0-609.0-0.0","0","0","47293","","null","","","null","67","","","","","","","","","","","","","","","",""
"","ITI","","html-keyboard-response","444","406712","0.0-1.0-612.0","0","0","47293","","null","","","null","67","","","","","","","","","","","","","","","NaN",""
"","S1","","html-keyboard-response","445","406971","0.0-1.0-614.0","0","0","47293","","null","","","null","68","","","","","","","","","","","","","","","",""
"","ISI","","html-keyboard-response","446","407974","0.0-1.0-615.0","0","0","47293","","null","","","null","68","NaN","","","","","","","","","","","","","","",""
"","S2","","html-keyboard-response","447","408228","0.0-1.0-616.0","0","0","47293","","null","","","null","68","","NaN","","","","","","","","","","","","","",""
"","response","","html-keyboard-response","448","409669","0.0-1.0-617.0-0.0","0","0","47293","","1438","","","75","68","","","2","68","training","adjacent","DC","4","3","Q.jpg","P.jpg","1","0","0","",""
"","feedback","","html-keyboard-response","449","410674","0.0-1.0-618.0-0.0","0","0","47293","","null","","","null","68","","","","","","","","","","","","","","","",""
"","time_out","","html-keyboard-response","450","412678","0.0-1.0-620.0-0.0","0","0","47293","","null","","","null","68","","","","","","","","","","","","","","","",""
"","ITI","","html-keyboard-response","451","413681","0.0-1.0-621.0","0","0","47293","","null","","","null","68","","","","","","","","","","","","","","","NaN",""
"","S1","","html-keyboard-response","452","413934","0.0-1.0-623.0","0","0","47293","","null","","","null","69","","","","","","","","","","","","","","","",""
"","ISI","","html-keyboard-response","453","414937","0.0-1.0-624.0","0","0","47293","","null","","","null","69","NaN","","","","","","","","","","","","","","",""
"","S2","","html-keyboard-response","454","415192","0.0-1.0-625.0","0","0","47293","","null","","","null","69","","NaN","","","","","","","","","","","","","",""
"","response","","html-keyboard-response","455","415462","0.0-1.0-626.0-0.0","0","0","47293","","266","","","68","69","","","2","69","training","adjacent","AB","1","2","M.jpg","N.jpg","0","1","0","",""
"","feedback","","html-keyboard-response","456","416466","0.0-1.0-627.0-0.0","0","0","47293","","null","","","null","69","","","","","","","","","","","","","","","",""
"","time_out","","html-keyboard-response","457","418471","0.0-1.0-629.0-0.0","0","0","47293","","null","","","null","69","","","","","","","","","","","","","","","",""
"","ITI","","html-keyboard-response","458","419475","0.0-1.0-630.0","0","0","47293","","null","","","null","69","","","","","","","","","","","","","","","NaN",""
"","S1","","html-keyboard-response","459","419729","0.0-1.0-632.0","0","0","47293","","null","","","null","70","","","","","","","","","","","","","","","",""
"","ISI","","html-keyboard-response","460","420733","0.0-1.0-633.0","0","0","47293","","null","","","null","70","NaN","","","","","","","","","","","","","","",""
"","S2","","html-keyboard-response","461","420988","0.0-1.0-634.0","0","0","47293","","null","","","null","70","","NaN","","","","","","","","","","","","","",""
"","response","","html-keyboard-response","462","421782","0.0-1.0-635.0-0.0","0","0","47293","","790","","","75","70","","","2","70","training","adjacent","GF","7","6","O.jpg","L.jpg","1","0","0","",""
"","feedback","","html-keyboard-response","463","422786","0.0-1.0-636.0-0.0","0","0","47293","","null","","","null","70","","","","","","","","","","","","","","","",""
"","time_out","","html-keyboard-response","464","424791","0.0-1.0-638.0-0.0","0","0","47293","","null","","","null","70","","","","","","","","","","","","","","","",""
"","ITI","","html-keyboard-response","465","425795","0.0-1.0-639.0","0","0","47293","","null","","","null","70","","","","","","","","","","","","","","","NaN",""
"","S1","","html-keyboard-response","466","426049","0.0-1.0-641.0","0","0","47293","","null","","","null","71","","","","","","","","","","","","","","","",""
"","ISI","","html-keyboard-response","467","427054","0.0-1.0-642.0","0","0","47293","","null","","","null","71","NaN","","","","","","","","","","","","","","",""
"","S2","","html-keyboard-response","468","427309","0.0-1.0-643.0","0","0","47293","","null","","","null","71","","NaN","","","","","","","","","","","","","",""
"","response","","html-keyboard-response","469","427766","0.0-1.0-644.0-0.0","0","0","47293","","453","","","68","71","","","2","71","training","adjacent","EF","5","6","R.jpg","L.jpg","0","1","0","",""
"","feedback","","html-keyboard-response","470","428770","0.0-1.0-645.0-0.0","0","0","47293","","null","","","null","71","","","","","","","","","","","","","","","",""
"","time_out","","html-keyboard-response","471","430775","0.0-1.0-647.0-0.0","0","0","47293","","null","","","null","71","","","","","","","","","","","","","","","",""
"","ITI","","html-keyboard-response","472","431779","0.0-1.0-648.0","0","0","47293","","null","","","null","71","","","","","","","","","","","","","","","NaN",""
"","S1","","html-keyboard-response","473","432035","0.0-1.0-650.0","0","0","47293","","null","","","null","72","","","","","","","","","","","","","","","",""
"","ISI","","html-keyboard-response","474","433038","0.0-1.0-651.0","0","0","47293","","null","","","null","72","NaN","","","","","","","","","","","","","","",""
"","S2","","html-keyboard-response","475","433293","0.0-1.0-652.0","0","0","47293","","null","","","null","72","","NaN","","","","","","","","","","","","","",""
"","response","","html-keyboard-response","476","433477","0.0-1.0-653.0-0.0","0","0","47293","","181","","","75","72","","","2","72","training","adjacent","GF","7","6","O.jpg","L.jpg","1","0","0","",""
"","feedback","","html-keyboard-response","477","434483","0.0-1.0-654.0-0.0","0","0","47293","","null","","","null","72","","","","","","","","","","","","","","","",""
"","time_out","","html-keyboard-response","478","436487","0.0-1.0-656.0-0.0","0","0","47293","","null","","","null","72","","","","","","","","","","","","","","","",""
"","ITI","","html-keyboard-response","479","437491","0.0-1.0-657.0","0","0","47293","","null","","","null","72","","","","","","","","","","","","","","","NaN",""
"","S1","","html-keyboard-response","480","437745","0.0-1.0-659.0","0","0","47293","","null","","","null","73","","","","","","","","","","","","","","","",""
"","ISI","","html-keyboard-response","481","438748","0.0-1.0-660.0","0","0","47293","","null","","","null","73","NaN","","","","","","","","","","","","","","",""
"","S2","","html-keyboard-response","482","439002","0.0-1.0-661.0","0","0","47293","","null","","","null","73","","NaN","","","","","","","","","","","","","",""
"","response","","html-keyboard-response","483","439254","0.0-1.0-662.0-0.0","0","0","47293","","249","","","68","73","","","2","73","training","adjacent","FE","6","5","L.jpg","R.jpg","0","0","1","",""
"","feedback","","html-keyboard-response","484","440258","0.0-1.0-663.0-0.0","0","0","47293","","null","","","null","73","","","","","","","","","","","","","","","",""
"","ITI","","html-keyboard-response","485","441263","0.0-1.0-666.0","0","0","47293","","null","","","null","73","","","","","","","","","","","","","","","NaN",""
"","S1","","html-keyboard-response","486","441517","0.0-1.0-668.0","0","0","47293","","null","","","null","74","","","","","","","","","","","","","","","",""
"","ISI","","html-keyboard-response","487","442521","0.0-1.0-669.0","0","0","47293","","null","","","null","74","NaN","","","","","","","","","","","","","","",""
"","S2","","html-keyboard-response","488","442776","0.0-1.0-670.0","0","0","47293","","null","","","null","74","","NaN","","","","","","","","","","","","","",""
"","response","","html-keyboard-response","489","443077","0.0-1.0-671.0-0.0","0","0","47293","","298","","","75","74","","","2","74","training","adjacent","DE","4","5","Q.jpg","R.jpg","1","1","1","",""
"","feedback","","html-keyboard-response","490","444082","0.0-1.0-672.0-0.0","0","0","47293","","null","","","null","74","","","","","","","","","","","","","","","",""
"","ITI","","html-keyboard-response","491","445087","0.0-1.0-675.0","0","0","47293","","null","","","null","74","","","","","","","","","","","","","","","NaN",""
"","S1","","html-keyboard-response","492","445341","0.0-1.0-677.0","0","0","47293","","null","","","null","75","","","","","","","","","","","","","","","",""
"","ISI","","html-keyboard-response","493","446345","0.0-1.0-678.0","0","0","47293","","null","","","null","75","NaN","","","","","","","","","","","","","","",""
"","S2","","html-keyboard-response","494","446599","0.0-1.0-679.0","0","0","47293","","null","","","null","75","","NaN","","","","","","","","","","","","","",""
"","response","","html-keyboard-response","495","446885","0.0-1.0-680.0-0.0","0","0","47293","","283","","","75","75","","","2","75","training","adjacent","BA","2","1","N.jpg","M.jpg","1","0","0","",""
"","feedback","","html-keyboard-response","496","447890","0.0-1.0-681.0-0.0","0","0","47293","","null","","","null","75","","","","","","","","","","","","","","","",""
"","time_out","","html-keyboard-response","497","449896","0.0-1.0-683.0-0.0","0","0","47293","","null","","","null","75","","","","","","","","","","","","","","","",""
"","ITI","","html-keyboard-response","498","450899","0.0-1.0-684.0","0","0","47293","","null","","","null","75","","","","","","","","","","","","","","","NaN",""
"","S1","","html-keyboard-response","499","451152","0.0-1.0-686.0","0","0","47293","","null","","","null","76","","","","","","","","","","","","","","","",""
"","ISI","","html-keyboard-response","500","452155","0.0-1.0-687.0","0","0","47293","","null","","","null","76","NaN","","","","","","","","","","","","","","",""
"","S2","","html-keyboard-response","501","452409","0.0-1.0-688.0","0","0","47293","","null","","","null","76","","NaN","","","","","","","","","","","","","",""
"","response","","html-keyboard-response","502","452518","0.0-1.0-689.0-0.0","0","0","47293","","105","","","75","76","","","2","76","training","adjacent","BA","2","1","N.jpg","M.jpg","1","0","0","",""
"","feedback","","html-keyboard-response","503","453524","0.0-1.0-690.0-0.0","0","0","47293","","null","","","null","76","","","","","","","","","","","","","","","",""
"","time_out","","html-keyboard-response","504","455528","0.0-1.0-692.0-0.0","0","0","47293","","null","","","null","76","","","","","","","","","","","","","","","",""
"","ITI","","html-keyboard-response","505","456534","0.0-1.0-693.0","0","0","47293","","null","","","null","76","","","","","","","","","","","","","","","NaN",""
"","S1","","html-keyboard-response","506","456788","0.0-1.0-695.0","0","0","47293","","null","","","null","77","","","","","","","","","","","","","","","",""
"","ISI","","html-keyboard-response","507","457792","0.0-1.0-696.0","0","0","47293","","null","","","null","77","NaN","","","","","","","","","","","","","","",""
"","S2","","html-keyboard-response","508","458046","0.0-1.0-697.0","0","0","47293","","null","","","null","77","","NaN","","","","","","","","","","","","","",""
"","response","","html-keyboard-response","509","458228","0.0-1.0-698.0-0.0","0","0","47293","","179","","","68","77","","","2","77","training","adjacent","CB","3","2","P.jpg","N.jpg","0","0","1","",""
"","feedback","","html-keyboard-response","510","459231","0.0-1.0-699.0-0.0","0","0","47293","","null","","","null","77","","","","","","","","","","","","","","","",""
"","ITI","","html-keyboard-response","511","460236","0.0-1.0-702.0","0","0","47293","","null","","","null","77","","","","","","","","","","","","","","","NaN",""
"","S1","","html-keyboard-response","512","460490","0.0-1.0-704.0","0","0","47293","","null","","","null","78","","","","","","","","","","","","","","","",""
"","ISI","","html-keyboard-response","513","461494","0.0-1.0-705.0","0","0","47293","","null","","","null","78","NaN","","","","","","","","","","","","","","",""
"","S2","","html-keyboard-response","514","461748","0.0-1.0-706.0","0","0","47293","","null","","","null","78","","NaN","","","","","","","","","","","","","",""
"","response","","html-keyboard-response","515","462101","0.0-1.0-707.0-0.0","0","0","47293","","349","","","68","78","","","2","78","training","adjacent","GF","7","6","O.jpg","L.jpg","0","0","1","",""
"","feedback","","html-keyboard-response","516","463106","0.0-1.0-708.0-0.0","0","0","47293","","null","","","null","78","","","","","","","","","","","","","","","",""
"","ITI","","html-keyboard-response","517","464111","0.0-1.0-711.0","0","0","47293","","null","","","null","78","","","","","","","","","","","","","","","NaN",""
"","S1","","html-keyboard-response","518","464366","0.0-1.0-713.0","0","0","47293","","null","","","null","79","","","","","","","","","","","","","","","",""
"","ISI","","html-keyboard-response","519","465369","0.0-1.0-714.0","0","0","47293","","null","","","null","79","NaN","","","","","","","","","","","","","","",""
"","S2","","html-keyboard-response","520","465624","0.0-1.0-715.0","0","0","47293","","null","","","null","79","","NaN","","","","","","","","","","","","","",""
"","response","","html-keyboard-response","521","465669","0.0-1.0-716.0-0.0","0","0","47293","","41","","","75","79","","","2","79","training","adjacent","BA","2","1","N.jpg","M.jpg","1","0","0","",""
"","feedback","","html-keyboard-response","522","466674","0.0-1.0-717.0-0.0","0","0","47293","","null","","","null","79","","","","","","","","","","","","","","","",""
"","time_out","","html-keyboard-response","523","468677","0.0-1.0-719.0-0.0","0","0","47293","","null","","","null","79","","","","","","","","","","","","","","","",""
"","ITI","","html-keyboard-response","524","469679","0.0-1.0-720.0","0","0","47293","","null","","","null","79","","","","","","","","","","","","","","","NaN",""
"","S1","","html-keyboard-response","525","469933","0.0-1.0-722.0","0","0","47293","","null","","","null","80","","","","","","","","","","","","","","","",""
"","ISI","","html-keyboard-response","526","470937","0.0-1.0-723.0","0","0","47293","","null","","","null","80","NaN","","","","","","","","","","","","","","",""
"","S2","","html-keyboard-response","527","471201","0.0-1.0-724.0","0","0","47293","","null","","","null","80","","NaN","","","","","","","","","","","","","",""
"","response","","html-keyboard-response","528","471779","0.0-1.0-725.0-0.0","0","0","47293","","577","","","68","80","","","2","80","training","adjacent","EF","5","6","R.jpg","L.jpg","0","1","0","",""
"","feedback","","html-keyboard-response","529","472781","0.0-1.0-726.0-0.0","0","0","47293","","null","","","null","80","","","","","","","","","","","","","","","",""
"","time_out","","html-keyboard-response","530","474785","0.0-1.0-728.0-0.0","0","0","47293","","null","","","null","80","","","","","","","","","","","","","","","",""
"","ITI","","html-keyboard-response","531","475789","0.0-1.0-729.0","0","0","47293","","null","","","null","80","","","","","","","","","","","","","","","NaN",""
"","S1","","html-keyboard-response","532","476044","0.0-1.0-731.0","0","0","47293","","null","","","null","81","","","","","","","","","","","","","","","",""
"","ISI","","html-keyboard-response","533","477048","0.0-1.0-732.0","0","0","47293","","null","","","null","81","NaN","","","","","","","","","","","","","","",""
"","S2","","html-keyboard-response","534","477303","0.0-1.0-733.0","0","0","47293","","null","","","null","81","","NaN","","","","","","","","","","","","","",""
"","response","","html-keyboard-response","535","477589","0.0-1.0-734.0-0.0","0","0","47293","","282","","","75","81","","","2","81","training","adjacent","DC","4","3","Q.jpg","P.jpg","1","0","0","",""
"","feedback","","html-keyboard-response","536","478600","0.0-1.0-735.0-0.0","0","0","47293","","null","","","null","81","","","","","","","","","","","","","","","",""
"","time_out","","html-keyboard-response","537","480604","0.0-1.0-737.0-0.0","0","0","47293","","null","","","null","81","","","","","","","","","","","","","","","",""
"","ITI","","html-keyboard-response","538","481608","0.0-1.0-738.0","0","0","47293","","null","","","null","81","","","","","","","","","","","","","","","NaN",""
"","S1","","html-keyboard-response","539","481863","0.0-1.0-740.0","0","0","47293","","null","","","null","82","","","","","","","","","","","","","","","",""
"","ISI","","html-keyboard-response","540","482867","0.0-1.0-741.0","0","0","47293","","null","","","null","82","NaN","","","","","","","","","","","","","","",""
"","S2","","html-keyboard-response","541","483125","0.0-1.0-742.0","0","0","47293","","null","","","null","82","","NaN","","","","","","","","","","","","","",""
"","response","","html-keyboard-response","542","483381","0.0-1.0-743.0-0.0","0","0","47293","","252","","","68","82","","","2","82","training","adjacent","CD","3","4","P.jpg","Q.jpg","0","1","0","",""
"","feedback","","html-keyboard-response","543","484386","0.0-1.0-744.0-0.0","0","0","47293","","null","","","null","82","","","","","","","","","","","","","","","",""
"","time_out","","html-keyboard-response","544","486391","0.0-1.0-746.0-0.0","0","0","47293","","null","","","null","82","","","","","","","","","","","","","","","",""
"","ITI","","html-keyboard-response","545","487397","0.0-1.0-747.0","0","0","47293","","null","","","null","82","","","","","","","","","","","","","","","NaN",""
"","S1","","html-keyboard-response","546","487660","0.0-1.0-749.0","0","0","47293","","null","","","null","83","","","","","","","","","","","","","","","",""
"","ISI","","html-keyboard-response","547","488676","0.0-1.0-750.0","0","0","47293","","null","","","null","83","NaN","","","","","","","","","","","","","","",""
"","S2","","html-keyboard-response","548","488931","0.0-1.0-751.0","0","0","47293","","null","","","null","83","","NaN","","","","","","","","","","","","","",""
"","response","","html-keyboard-response","549","488980","0.0-1.0-752.0-0.0","0","0","47293","","46","","","75","83","","","2","83","training","adjacent","FG","6","7","L.jpg","O.jpg","1","1","1","",""
"","feedback","","html-keyboard-response","550","489984","0.0-1.0-753.0-0.0","0","0","47293","","null","","","null","83","","","","","","","","","","","","","","","",""
"","ITI","","html-keyboard-response","551","490989","0.0-1.0-756.0","0","0","47293","","null","","","null","83","","","","","","","","","","","","","","","NaN",""
"","S1","","html-keyboard-response","552","491243","0.0-1.0-758.0","0","0","47293","","null","","","null","84","","","","","","","","","","","","","","","",""
"","ISI","","html-keyboard-response","553","492246","0.0-1.0-759.0","0","0","47293","","null","","","null","84","NaN","","","","","","","","","","","","","","",""
"","S2","","html-keyboard-response","554","492501","0.0-1.0-760.0","0","0","47293","","null","","","null","84","","NaN","","","","","","","","","","","","","",""
"","response","","html-keyboard-response","555","493045","0.0-1.0-761.0-0.0","0","0","47293","","540","","","68","84","","","2","84","training","adjacent","ED","5","4","R.jpg","Q.jpg","0","0","1","",""
"","feedback","","html-keyboard-response","556","494050","0.0-1.0-762.0-0.0","0","0","47293","","null","","","null","84","","","","","","","","","","","","","","","",""
"","ITI","","html-keyboard-response","557","495063","0.0-1.0-765.0","0","0","47293","","null","","","null","84","","","","","","","","","","","","","","","NaN",""
"","S1","","html-keyboard-response","558","495317","0.0-1.0-767.0","0","0","47293","","null","","","null","85","","","","","","","","","","","","","","","",""
"","ISI","","html-keyboard-response","559","496321","0.0-1.0-768.0","0","0","47293","","null","","","null","85","NaN","","","","","","","","","","","","","","",""
"","S2","","html-keyboard-response","560","496575","0.0-1.0-769.0","0","0","47293","","null","","","null","85","","NaN","","","","","","","","","","","","","",""
"","response","","html-keyboard-response","561","496693","0.0-1.0-770.0-0.0","0","0","47293","","114","","","75","85","","","2","85","training","adjacent","CB","3","2","P.jpg","N.jpg","1","0","0","",""
"","feedback","","html-keyboard-response","562","497697","0.0-1.0-771.0-0.0","0","0","47293","","null","","","null","85","","","","","","","","","","","","","","","",""
"","time_out","","html-keyboard-response","563","499702","0.0-1.0-773.0-0.0","0","0","47293","","null","","","null","85","","","","","","","","","","","","","","","",""
"","ITI","","html-keyboard-response","564","500705","0.0-1.0-774.0","0","0","47293","","null","","","null","85","","","","","","","","","","","","","","","NaN",""
"","S1","","html-keyboard-response","565","500960","0.0-1.0-776.0","0","0","47293","","null","","","null","86","","","","","","","","","","","","","","","",""
"","ISI","","html-keyboard-response","566","501965","0.0-1.0-777.0","0","0","47293","","null","","","null","86","NaN","","","","","","","","","","","","","","",""
"","S2","","html-keyboard-response","567","502219","0.0-1.0-778.0","0","0","47293","","null","","","null","86","","NaN","","","","","","","","","","","","","",""
"","response","","html-keyboard-response","568","502517","0.0-1.0-779.0-0.0","0","0","47293","","295","","","68","86","","","2","86","training","adjacent","GF","7","6","O.jpg","L.jpg","0","0","1","",""
"","feedback","","html-keyboard-response","569","503522","0.0-1.0-780.0-0.0","0","0","47293","","null","","","null","86","","","","","","","","","","","","","","","",""
"","ITI","","html-keyboard-response","570","504526","0.0-1.0-783.0","0","0","47293","","null","","","null","86","","","","","","","","","","","","","","","NaN",""
"","S1","","html-keyboard-response","571","504784","0.0-1.0-785.0","0","0","47293","","null","","","null","87","","","","","","","","","","","","","","","",""
"","ISI","","html-keyboard-response","572","505787","0.0-1.0-786.0","0","0","47293","","null","","","null","87","NaN","","","","","","","","","","","","","","",""
"","S2","","html-keyboard-response","573","506041","0.0-1.0-787.0","0","0","47293","","null","","","null","87","","NaN","","","","","","","","","","","","","",""
"","response","","html-keyboard-response","574","506373","0.0-1.0-788.0-0.0","0","0","47293","","328","","","68","87","","","2","87","training","adjacent","FG","6","7","L.jpg","O.jpg","0","1","0","",""
"","feedback","","html-keyboard-response","575","507377","0.0-1.0-789.0-0.0","0","0","47293","","null","","","null","87","","","","","","","","","","","","","","","",""
"","time_out","","html-keyboard-response","576","509380","0.0-1.0-791.0-0.0","0","0","47293","","null","","","null","87","","","","","","","","","","","","","","","",""
"","ITI","","html-keyboard-response","577","510383","0.0-1.0-792.0","0","0","47293","","null","","","null","87","","","","","","","","","","","","","","","NaN",""
"","S1","","html-keyboard-response","578","510637","0.0-1.0-794.0","0","0","47293","","null","","","null","88","","","","","","","","","","","","","","","",""
"","ISI","","html-keyboard-response","579","511641","0.0-1.0-795.0","0","0","47293","","null","","","null","88","NaN","","","","","","","","","","","","","","",""
"","S2","","html-keyboard-response","580","511895","0.0-1.0-796.0","0","0","47293","","null","","","null","88","","NaN","","","","","","","","","","","","","",""
"","response","","html-keyboard-response","581","512181","0.0-1.0-797.0-0.0","0","0","47293","","282","","","75","88","","","2","88","training","adjacent","EF","5","6","R.jpg","L.jpg","1","1","1","",""
"","feedback","","html-keyboard-response","582","513186","0.0-1.0-798.0-0.0","0","0","47293","","null","","","null","88","","","","","","","","","","","","","","","",""
