"success","ttype","start_time","trial_type","trial_index","time_elapsed","internal_node_id","warning","missed_checkup","PID","view_history","rt","responses","repeat_instructions","key_press","index","keypress_isi","keypress_S2","block","trial_num","phase","group_type","pair_type","S1_stim","S2_stim","S1_img","S2_img","S1_chosen","S1_higher","accuracy","keypress_iti","total_bonus_tally"
"true","full_screen","d04062023hr1701","fullscreen","0","2955","0.0-0.0","0","0","79646","","","","","","","","","","","","","","","","","","","","","",""
"","instructions","","instructions","1","6474","0.0-1.0-0.0-0.0","0","0","79646","[{""page_index"":0,""viewing_time"":1114},{""page_index"":1,""viewing_time"":436},{""page_index"":2,""viewing_time"":809},{""page_index"":3,""viewing_time"":1159}]","3518","","","","","","","","","","","","","","","","","","","",""
"","comprehension_check","","survey-multi-choice","2","13100","0.0-1.0-0.0-1.0","0","0","79646","","6624","{""Q0"":""True"",""Q1"":""D"",""Q2"":""Once the second image appears and while the screen 'MAKE A CHOICE' is shown"",""Q3"":""Green mark"",""Q4"":""either D or K""}","0","","","","","","","","","","","","","","","","","",""
"","start_exp","","html-keyboard-response","3","15151","0.0-1.0-1.0","0","0","79646","","2048","","","32","","","","","","","","","","","","","","","","",""
"","S1","","html-keyboard-response","4","15308","0.0-1.0-2.0","0","0","79646","","null","","","null","0","","","","","","","","","","","","","","","",""
"","ISI","","html-keyboard-response","5","15420","0.0-1.0-3.0","0","0","79646","","null","","","null","0","NaN","","","","","","","","","","","","","","",""
"","S2","","html-keyboard-response","6","15580","0.0-1.0-4.0","0","0","79646","","null","","","null","0","","NaN","","","","","","","","","","","","","",""
"","response","","html-keyboard-response","7","15866","0.0-1.0-5.0-0.0","0","0","79646","","285","","","68","0","","","1","0","training","adjacent","BA","2","1","L.jpg","R.jpg","1","0","0","",""
"","feedback","","html-keyboard-response","8","15972","0.0-1.0-6.0-0.0","0","0","79646","","null","","","null","0","","","","","","","","","","","","","","","",""
"","time_out","","html-keyboard-response","9","16082","0.0-1.0-8.0-0.0","0","0","79646","","null","","","null","0","","","","","","","","","","","","","","","",""
"","ITI","","html-keyboard-response","10","16588","0.0-1.0-9.0","0","0","79646","","121","","","68","0","","","","","","","","","","","","","","","d",""
"","S1","","html-keyboard-response","11","16748","0.0-1.0-11.0","0","0","79646","","null","","","null","1","","","","","","","","","","","","","","","",""
"","ISI","","html-keyboard-response","12","16860","0.0-1.0-12.0","0","0","79646","","59","","","68","1","d","","","","","","","","","","","","","","",""
"","S2","","html-keyboard-response","13","16984","0.0-1.0-13.0","0","0","79646","","121","","","68","1","","d","1","1","training","adjacent","FG","6","7","Q.jpg","O.jpg","1","1","1","",""
"","feedback","","html-keyboard-response","14","17090","0.0-1.0-15.0-0.0","0","0","79646","","null","","","null","1","","","","","","","","","","","","","","","",""
"","ITI","","html-keyboard-response","15","17597","0.0-1.0-18.0","0","0","79646","","60","","","68","1","","","","","","","","","","","","","","","d",""
"","S1","","html-keyboard-response","16","17756","0.0-1.0-20.0","0","0","79646","","null","","","null","2","","","","","","","","","","","","","","","",""
"","ISI","","html-keyboard-response","17","17868","0.0-1.0-21.0","0","0","79646","","null","","","null","2","NaN","","","","","","","","","","","","","","",""
"","S2","","html-keyboard-response","18","17916","0.0-1.0-22.0","0","0","79646","","47","","","68","2","","d","1","2","training","adjacent","AB","1","2","R.jpg","L.jpg","1","1","1","",""
"","feedback","","html-keyboard-response","19","18020","0.0-1.0-24.0-0.0","0","0","79646","","null","","","null","2","","","","","","","","","","","","","","","",""
"","ITI","","html-keyboard-response","20","18530","0.0-1.0-27.0","0","0","79646","","109","","","68","2","","","","","","","","","","","","","","","d",""
"","S1","","html-keyboard-response","21","18688","0.0-1.0-29.0","0","0","79646","","null","","","null","3","","","","","","","","","","","","","","","",""
"","ISI","","html-keyboard-response","22","18796","0.0-1.0-30.0","0","0","79646","","81","","","68","3","d","","","","","","","","","","","","","","",""
"","S2","","html-keyboard-response","23","18956","0.0-1.0-31.0","0","0","79646","","null","","","null","3","","NaN","","","","","","","","","","","","","",""
"","response","","html-keyboard-response","24","18978","0.0-1.0-32.0-0.0","0","0","79646","","21","","","68","3","","","1","3","training","adjacent","EF","5","6","P.jpg","Q.jpg","1","1","1","",""
"","feedback","","html-keyboard-response","25","19082","0.0-1.0-33.0-0.0","0","0","79646","","null","","","null","3","","","","","","","","","","","","","","","",""
"","ITI","","html-keyboard-response","26","19586","0.0-1.0-36.0","0","0","79646","","96","","","68","3","","","","","","","","","","","","","","","d",""
"","S1","","html-keyboard-response","27","19745","0.0-1.0-38.0","0","0","79646","","null","","","null","4","","","","","","","","","","","","","","","",""
"","ISI","","html-keyboard-response","28","19853","0.0-1.0-39.0","0","0","79646","","71","","","68","4","d","","","","","","","","","","","","","","",""
"","S2","","html-keyboard-response","29","20012","0.0-1.0-40.0","0","0","79646","","null","","","null","4","","NaN","","","","","","","","","","","","","",""
"","response","","html-keyboard-response","30","20024","0.0-1.0-41.0-0.0","0","0","79646","","10","","","68","4","","","1","4","training","adjacent","BC","2","3","L.jpg","N.jpg","1","1","1","",""
"","feedback","","html-keyboard-response","31","20125","0.0-1.0-42.0-0.0","0","0","79646","","null","","","null","4","","","","","","","","","","","","","","","",""
"","ITI","","html-keyboard-response","32","20636","0.0-1.0-45.0","0","0","79646","","124","","","68","4","","","","","","","","","","","","","","","d",""
"","S1","","html-keyboard-response","33","20796","0.0-1.0-47.0","0","0","79646","","null","","","null","5","","","","","","","","","","","","","","","",""
"","ISI","","html-keyboard-response","34","20908","0.0-1.0-48.0","0","0","79646","","null","","","null","5","NaN","","","","","","","","","","","","","","",""
"","S2","","html-keyboard-response","35","20929","0.0-1.0-49.0","0","0","79646","","19","","","68","5","","d","1","5","training","adjacent","GF","7","6","O.jpg","Q.jpg","1","0","0","",""
"","feedback","","html-keyboard-response","36","21036","0.0-1.0-51.0-0.0","0","0","79646","","null","","","null","5","","","","","","","","","","","","","","","",""
"","time_out","","html-keyboard-response","37","21148","0.0-1.0-53.0-0.0","0","0","79646","","null","","","null","5","","","","","","","","","","","","","","","",""
"","ITI","","html-keyboard-response","38","21660","0.0-1.0-54.0","0","0","79646","","6","","","68","5","","","","","","","","","","","","","","","d",""
"","S1","","html-keyboard-response","39","21820","0.0-1.0-56.0","0","0","79646","","null","","","null","6","","","","","","","","","","","","","","","",""
"","ISI","","html-keyboard-response","40","21932","0.0-1.0-57.0","0","0","79646","","51","","","68","6","d","","","","","","","","","","","","","","",""
"","S2","","html-keyboard-response","41","22091","0.0-1.0-58.0","0","0","79646","","null","","","null","6","","NaN","","","","","","","","","","","","","",""
"","response","","html-keyboard-response","42","22096","0.0-1.0-59.0-0.0","0","0","79646","","3","","","68","6","","","1","6","training","adjacent","ED","5","4","P.jpg","M.jpg","1","0","0","",""
"","feedback","","html-keyboard-response","43","22200","0.0-1.0-60.0-0.0","0","0","79646","","null","","","null","6","","","","","","","","","","","","","","","",""
"","time_out","","html-keyboard-response","44","22309","0.0-1.0-62.0-0.0","0","0","79646","","null","","","null","6","","","","","","","","","","","","","","","",""
"","ITI","","html-keyboard-response","45","22820","0.0-1.0-63.0","0","0","79646","","28","","","68","6","","","","","","","","","","","","","","","d",""
"","S1","","html-keyboard-response","46","22977","0.0-1.0-65.0","0","0","79646","","null","","","null","7","","","","","","","","","","","","","","","",""
"","ISI","","html-keyboard-response","47","23081","0.0-1.0-66.0","0","0","79646","","null","","","null","7","NaN","","","","","","","","","","","","","","",""
"","S2","","html-keyboard-response","48","23083","0.0-1.0-67.0","0","0","79646","","1","","","68","7","","d","1","7","training","adjacent","FE","6","5","Q.jpg","P.jpg","1","0","0","",""
"","feedback","","html-keyboard-response","49","23188","0.0-1.0-69.0-0.0","0","0","79646","","null","","","null","7","","","","","","","","","","","","","","","",""
"","time_out","","html-keyboard-response","50","23293","0.0-1.0-71.0-0.0","0","0","79646","","null","","","null","7","","","","","","","","","","","","","","","",""
"","ITI","","html-keyboard-response","51","23804","0.0-1.0-72.0","0","0","79646","","11","","","68","7","","","","","","","","","","","","","","","d",""
"","S1","","html-keyboard-response","52","23964","0.0-1.0-74.0","0","0","79646","","null","","","null","8","","","","","","","","","","","","","","","",""
"","ISI","","html-keyboard-response","53","24076","0.0-1.0-75.0","0","0","79646","","57","","","68","8","d","","","","","","","","","","","","","","",""
"","S2","","html-keyboard-response","54","24236","0.0-1.0-76.0","0","0","79646","","null","","","null","8","","NaN","","","","","","","","","","","","","",""
"","response","","html-keyboard-response","55","24251","0.0-1.0-77.0-0.0","0","0","79646","","13","","","68","8","","","1","8","training","adjacent","DC","4","3","M.jpg","N.jpg","1","0","0","",""
"","feedback","","html-keyboard-response","56","24354","0.0-1.0-78.0-0.0","0","0","79646","","null","","","null","8","","","","","","","","","","","","","","","",""
"","time_out","","html-keyboard-response","57","24460","0.0-1.0-80.0-0.0","0","0","79646","","null","","","null","8","","","","","","","","","","","","","","","",""
"","ITI","","html-keyboard-response","58","24971","0.0-1.0-81.0","0","0","79646","","9","","","68","8","","","","","","","","","","","","","","","d",""
"","S1","","html-keyboard-response","59","25132","0.0-1.0-83.0","0","0","79646","","null","","","null","9","","","","","","","","","","","","","","","",""
"","ISI","","html-keyboard-response","60","25244","0.0-1.0-84.0","0","0","79646","","40","","","68","9","d","","","","","","","","","","","","","","",""
"","S2","","html-keyboard-response","61","25405","0.0-1.0-85.0","0","0","79646","","null","","","null","9","","NaN","","","","","","","","","","","","","",""
"","response","","html-keyboard-response","62","25423","0.0-1.0-86.0-0.0","0","0","79646","","17","","","68","9","","","1","9","training","adjacent","CD","3","4","N.jpg","M.jpg","1","1","1","",""
"","feedback","","html-keyboard-response","63","25533","0.0-1.0-87.0-0.0","0","0","79646","","null","","","null","9","","","","","","","","","","","","","","","",""
"","ITI","","html-keyboard-response","64","26044","0.0-1.0-90.0","0","0","79646","","89","","","68","9","","","","","","","","","","","","","","","d",""
"","S1","","html-keyboard-response","65","26204","0.0-1.0-92.0","0","0","79646","","null","","","null","10","","","","","","","","","","","","","","","",""
"","ISI","","html-keyboard-response","66","26316","0.0-1.0-93.0","0","0","79646","","65","","","68","10","d","","","","","","","","","","","","","","",""
"","S2","","html-keyboard-response","67","26475","0.0-1.0-94.0","0","0","79646","","null","","","null","10","","NaN","","","","","","","","","","","","","",""
"","response","","html-keyboard-response","68","26480","0.0-1.0-95.0-0.0","0","0","79646","","4","","","68","10","","","1","10","training","adjacent","DE","4","5","M.jpg","P.jpg","1","1","1","",""
"","feedback","","html-keyboard-response","69","26588","0.0-1.0-96.0-0.0","0","0","79646","","null","","","null","10","","","","","","","","","","","","","","","",""
"","ITI","","html-keyboard-response","70","27100","0.0-1.0-99.0","0","0","79646","","106","","","68","10","","","","","","","","","","","","","","","d",""
"","S1","","html-keyboard-response","71","27259","0.0-1.0-101.0","0","0","79646","","null","","","null","11","","","","","","","","","","","","","","","",""
"","ISI","","html-keyboard-response","72","27371","0.0-1.0-102.0","0","0","79646","","85","","","68","11","d","","","","","","","","","","","","","","",""
"","S2","","html-keyboard-response","73","27532","0.0-1.0-103.0","0","0","79646","","null","","","null","11","","NaN","","","","","","","","","","","","","",""
"","response","","html-keyboard-response","74","27564","0.0-1.0-104.0-0.0","0","0","79646","","30","","","68","11","","","1","11","training","adjacent","CB","3","2","N.jpg","L.jpg","1","0","0","",""
"","feedback","","html-keyboard-response","75","27674","0.0-1.0-105.0-0.0","0","0","79646","","null","","","null","11","","","","","","","","","","","","","","","",""
"","time_out","","html-keyboard-response","76","27777","0.0-1.0-107.0-0.0","0","0","79646","","null","","","null","11","","","","","","","","","","","","","","","",""
"","ITI","","html-keyboard-response","77","28282","0.0-1.0-108.0","0","0","79646","","2","","","68","11","","","","","","","","","","","","","","","d",""
"","block_over","","html-keyboard-response","78","29653","0.0-1.0-109.0-0.0","0","0","79646","","1369","","","32","11","","","","","","","","","","","","","","","",""
"","S1","","html-keyboard-response","79","29809","0.0-1.0-110.0","0","0","79646","","null","","","null","12","","","","","","","","","","","","","","","",""
"","ISI","","html-keyboard-response","80","29916","0.0-1.0-111.0","0","0","79646","","null","","","null","12","NaN","","","","","","","","","","","","","","",""
"","S2","","html-keyboard-response","81","30047","0.0-1.0-112.0","0","0","79646","","130","","","68","12","","d","2","12","training","adjacent","BC","2","3","L.jpg","N.jpg","1","1","1","",""
"","feedback","","html-keyboard-response","82","30155","0.0-1.0-114.0-0.0","0","0","79646","","null","","","null","12","","","","","","","","","","","","","","","",""
"","ITI","","html-keyboard-response","83","30667","0.0-1.0-117.0","0","0","79646","","110","","","68","12","","","","","","","","","","","","","","","d",""
"","S1","","html-keyboard-response","84","30820","0.0-1.0-119.0","0","0","79646","","null","","","null","13","","","","","","","","","","","","","","","",""
"","ISI","","html-keyboard-response","85","30929","0.0-1.0-120.0","0","0","79646","","null","","","null","13","NaN","","","","","","","","","","","","","","",""
"","S2","","html-keyboard-response","86","30933","0.0-1.0-121.0","0","0","79646","","2","","","68","13","","d","2","13","training","adjacent","DE","4","5","M.jpg","P.jpg","1","1","1","",""
"","feedback","","html-keyboard-response","87","31041","0.0-1.0-123.0-0.0","0","0","79646","","null","","","null","13","","","","","","","","","","","","","","","",""
"","ITI","","html-keyboard-response","88","31548","0.0-1.0-126.0","0","0","79646","","102","","","68","13","","","","","","","","","","","","","","","d",""
"","S1","","html-keyboard-response","89","31707","0.0-1.0-128.0","0","0","79646","","null","","","null","14","","","","","","","","","","","","","","","",""
"","ISI","","html-keyboard-response","90","31809","0.0-1.0-129.0","0","0","79646","","91","","","68","14","d","","","","","","","","","","","","","","",""
"","S2","","html-keyboard-response","91","31971","0.0-1.0-130.0","0","0","79646","","null","","","null","14","","NaN","","","","","","","","","","","","","",""
"","response","","html-keyboard-response","92","32007","0.0-1.0-131.0-0.0","0","0","79646","","34","","","68","14","","","2","14","training","adjacent","CD","3","4","N.jpg","M.jpg","1","1","1","",""
"","feedback","","html-keyboard-response","93","32112","0.0-1.0-132.0-0.0","0","0","79646","","null","","","null","14","","","","","","","","","","","","","","","",""
"","ITI","","html-keyboard-response","94","32620","0.0-1.0-135.0","0","0","79646","","110","","","68","14","","","","","","","","","","","","","","","d",""
"","S1","","html-keyboard-response","95","32780","0.0-1.0-137.0","0","0","79646","","null","","","null","15","","","","","","","","","","","","","","","",""
"","ISI","","html-keyboard-response","96","32892","0.0-1.0-138.0","0","0","79646","","null","","","null","15","NaN","","","","","","","","","","","","","","",""
"","S2","","html-keyboard-response","97","32944","0.0-1.0-139.0","0","0","79646","","50","","","68","15","","d","2","15","training","adjacent","ED","5","4","P.jpg","M.jpg","1","0","0","",""
"","feedback","","html-keyboard-response","98","33046","0.0-1.0-141.0-0.0","0","0","79646","","null","","","null","15","","","","","","","","","","","","","","","",""
"","time_out","","html-keyboard-response","99","33153","0.0-1.0-143.0-0.0","0","0","79646","","null","","","null","15","","","","","","","","","","","","","","","",""
"","ITI","","html-keyboard-response","100","33659","0.0-1.0-144.0","0","0","79646","","13","","","68","15","","","","","","","","","","","","","","","d",""
"","S1","","html-keyboard-response","101","33821","0.0-1.0-146.0","0","0","79646","","null","","","null","16","","","","","","","","","","","","","","","",""
"","ISI","","html-keyboard-response","102","33932","0.0-1.0-147.0","0","0","79646","","74","","","68","16","d","","","","","","","","","","","","","","",""
"","S2","","html-keyboard-response","103","34093","0.0-1.0-148.0","0","0","79646","","null","","","null","16","","NaN","","","","","","","","","","","","","",""
"","response","","html-keyboard-response","104","34125","0.0-1.0-149.0-0.0","0","0","79646","","31","","","68","16","","","2","16","training","adjacent","FE","6","5","Q.jpg","P.jpg","1","0","0","",""
"","feedback","","html-keyboard-response","105","34237","0.0-1.0-150.0-0.0","0","0","79646","","null","","","null","16","","","","","","","","","","","","","","","",""
"","time_out","","html-keyboard-response","106","34348","0.0-1.0-152.0-0.0","0","0","79646","","null","","","null","16","","","","","","","","","","","","","","","",""
"","ITI","","html-keyboard-response","107","34860","0.0-1.0-153.0","0","0","79646","","33","","","68","16","","","","","","","","","","","","","","","d",""
"","S1","","html-keyboard-response","108","35021","0.0-1.0-155.0","0","0","79646","","null","","","null","17","","","","","","","","","","","","","","","",""
"","ISI","","html-keyboard-response","109","35128","0.0-1.0-156.0","0","0","79646","","106","","","68","17","d","","","","","","","","","","","","","","",""
"","S2","","html-keyboard-response","110","35281","0.0-1.0-157.0","0","0","79646","","null","","","null","17","","NaN","","","","","","","","","","","","","",""
"","response","","html-keyboard-response","111","35355","0.0-1.0-158.0-0.0","0","0","79646","","72","","","68","17","","","2","17","training","adjacent","GF","7","6","O.jpg","Q.jpg","1","0","0","",""
"","feedback","","html-keyboard-response","112","35457","0.0-1.0-159.0-0.0","0","0","79646","","null","","","null","17","","","","","","","","","","","","","","","",""
"","time_out","","html-keyboard-response","113","35564","0.0-1.0-161.0-0.0","0","0","79646","","null","","","null","17","","","","","","","","","","","","","","","",""
"","ITI","","html-keyboard-response","114","36076","0.0-1.0-162.0","0","0","79646","","24","","","68","17","","","","","","","","","","","","","","","d",""
"","S1","","html-keyboard-response","115","36234","0.0-1.0-164.0","0","0","79646","","null","","","null","18","","","","","","","","","","","","","","","",""
"","ISI","","html-keyboard-response","116","36336","0.0-1.0-165.0","0","0","79646","","null","","","null","18","NaN","","","","","","","","","","","","","","",""
"","S2","","html-keyboard-response","117","36395","0.0-1.0-166.0","0","0","79646","","57","","","68","18","","d","2","18","training","adjacent","AB","1","2","R.jpg","L.jpg","1","1","1","",""
"","feedback","","html-keyboard-response","118","36497","0.0-1.0-168.0-0.0","0","0","79646","","null","","","null","18","","","","","","","","","","","","","","","",""
"","ITI","","html-keyboard-response","119","37003","0.0-1.0-171.0","0","0","79646","","117","","","68","18","","","","","","","","","","","","","","","d",""
"","S1","","html-keyboard-response","120","37164","0.0-1.0-173.0","0","0","79646","","null","","","null","19","","","","","","","","","","","","","","","",""
"","ISI","","html-keyboard-response","121","37276","0.0-1.0-174.0","0","0","79646","","null","","","null","19","NaN","","","","","","","","","","","","","","",""
"","S2","","html-keyboard-response","122","37337","0.0-1.0-175.0","0","0","79646","","60","","","68","19","","d","2","19","training","adjacent","DC","4","3","M.jpg","N.jpg","1","0","0","",""
"","feedback","","html-keyboard-response","123","37441","0.0-1.0-177.0-0.0","0","0","79646","","null","","","null","19","","","","","","","","","","","","","","","",""
"","time_out","","html-keyboard-response","124","37547","0.0-1.0-179.0-0.0","0","0","79646","","null","","","null","19","","","","","","","","","","","","","","","",""
"","ITI","","html-keyboard-response","125","38060","0.0-1.0-180.0","0","0","79646","","75","","","68","19","","","","","","","","","","","","","","","d",""
"","S1","","html-keyboard-response","126","38220","0.0-1.0-182.0","0","0","79646","","null","","","null","20","","","","","","","","","","","","","","","",""
"","ISI","","html-keyboard-response","127","38332","0.0-1.0-183.0","0","0","79646","","null","","","null","20","NaN","","","","","","","","","","","","","","",""
"","S2","","html-keyboard-response","128","38381","0.0-1.0-184.0","0","0","79646","","47","","","68","20","","d","2","20","training","adjacent","BA","2","1","L.jpg","R.jpg","1","0","0","",""
"","feedback","","html-keyboard-response","129","38492","0.0-1.0-186.0-0.0","0","0","79646","","null","","","null","20","","","","","","","","","","","","","","","",""
"","time_out","","html-keyboard-response","130","38603","0.0-1.0-188.0-0.0","0","0","79646","","null","","","null","20","","","","","","","","","","","","","","","",""
"","ITI","","html-keyboard-response","131","39116","0.0-1.0-189.0","0","0","79646","","22","","","68","20","","","","","","","","","","","","","","","d",""
"","S1","","html-keyboard-response","132","39275","0.0-1.0-191.0","0","0","79646","","null","","","null","21","","","","","","","","","","","","","","","",""
"","ISI","","html-keyboard-response","133","39377","0.0-1.0-192.0","0","0","79646","","88","","","68","21","d","","","","","","","","","","","","","","",""
"","S2","","html-keyboard-response","134","39537","0.0-1.0-193.0","0","0","79646","","null","","","null","21","","NaN","","","","","","","","","","","","","",""
"","response","","html-keyboard-response","135","39598","0.0-1.0-194.0-0.0","0","0","79646","","61","","","68","21","","","2","21","training","adjacent","CB","3","2","N.jpg","L.jpg","1","0","0","",""
"","feedback","","html-keyboard-response","136","39708","0.0-1.0-195.0-0.0","0","0","79646","","null","","","null","21","","","","","","","","","","","","","","","",""
"","time_out","","html-keyboard-response","137","39820","0.0-1.0-197.0-0.0","0","0","79646","","null","","","null","21","","","","","","","","","","","","","","","",""
"","ITI","","html-keyboard-response","138","40332","0.0-1.0-198.0","0","0","79646","","18","","","68","21","","","","","","","","","","","","","","","d",""
"","S1","","html-keyboard-response","139","40490","0.0-1.0-200.0","0","0","79646","","null","","","null","22","","","","","","","","","","","","","","","",""
"","ISI","","html-keyboard-response","140","40593","0.0-1.0-201.0","0","0","79646","","null","","","null","22","NaN","","","","","","","","","","","","","","",""
"","S2","","html-keyboard-response","141","40624","0.0-1.0-202.0","0","0","79646","","30","","","68","22","","d","2","22","training","adjacent","EF","5","6","P.jpg","Q.jpg","1","1","1","",""
"","feedback","","html-keyboard-response","142","40729","0.0-1.0-204.0-0.0","0","0","79646","","null","","","null","22","","","","","","","","","","","","","","","",""
"","ITI","","html-keyboard-response","143","41232","0.0-1.0-207.0","0","0","79646","","142","","","68","22","","","","","","","","","","","","","","","d",""
"","S1","","html-keyboard-response","144","41385","0.0-1.0-209.0","0","0","79646","","null","","","null","23","","","","","","","","","","","","","","","",""
"","ISI","","html-keyboard-response","145","41489","0.0-1.0-210.0","0","0","79646","","14","","","68","23","d","","","","","","","","","","","","","","",""
"","S2","","html-keyboard-response","146","41644","0.0-1.0-211.0","0","0","79646","","null","","","null","23","","NaN","","","","","","","","","","","","","",""
"","response","","html-keyboard-response","147","41676","0.0-1.0-212.0-0.0","0","0","79646","","32","","","68","23","","","2","23","training","adjacent","FG","6","7","Q.jpg","O.jpg","1","1","1","",""
"","feedback","","html-keyboard-response","148","41788","0.0-1.0-213.0-0.0","0","0","79646","","null","","","null","23","","","","","","","","","","","","","","","",""
"","ITI","","html-keyboard-response","149","42300","0.0-1.0-216.0","0","0","79646","","196","","","68","23","","","","","","","","","","","","","","","d",""
"","block_over","","html-keyboard-response","150","55846","0.0-1.0-217.0-0.0","0","0","79646","","13545","","","32","23","","","","","","","","","","","","","","","",""
"","S1","","html-keyboard-response","151","56001","0.0-1.0-218.0","0","0","79646","","null","","","null","24","","","","","","","","","","","","","","","",""
"","ISI","","html-keyboard-response","152","56107","0.0-1.0-219.0","0","0","79646","","null","","","null","24","NaN","","","","","","","","","","","","","","",""
"","S2","","html-keyboard-response","153","56268","0.0-1.0-220.0","0","0","79646","","null","","","null","24","","NaN","","","","","","","","","","","","","",""
"","response","","html-keyboard-response","154","56465","0.0-1.0-221.0-0.0","0","0","79646","","196","","","68","24","","","3","24","training","adjacent","AB","1","2","R.jpg","L.jpg","1","1","1","",""
"","feedback","","html-keyboard-response","155","56572","0.0-1.0-222.0-0.0","0","0","79646","","null","","","null","24","","","","","","","","","","","","","","","",""
"","ITI","","html-keyboard-response","156","57084","0.0-1.0-225.0","0","0","79646","","146","","","68","24","","","","","","","","","","","","","","","d",""
"","S1","","html-keyboard-response","157","57244","0.0-1.0-227.0","0","0","79646","","null","","","null","25","","","","","","","","","","","","","","","",""
"","ISI","","html-keyboard-response","158","57356","0.0-1.0-228.0","0","0","79646","","null","","","null","25","NaN","","","","","","","","","","","","","","",""
"","S2","","html-keyboard-response","159","57505","0.0-1.0-229.0","0","0","79646","","149","","","68","25","","d","3","25","training","adjacent","FE","6","5","Q.jpg","P.jpg","1","0","0","",""
"","feedback","","html-keyboard-response","160","57611","0.0-1.0-231.0-0.0","0","0","79646","","null","","","null","25","","","","","","","","","","","","","","","",""
"","time_out","","html-keyboard-response","161","57713","0.0-1.0-233.0-0.0","0","0","79646","","null","","","null","25","","","","","","","","","","","","","","","",""
"","ITI","","html-keyboard-response","162","58220","0.0-1.0-234.0","0","0","79646","","81","","","68","25","","","","","","","","","","","","","","","d",""
"","S1","","html-keyboard-response","163","58376","0.0-1.0-236.0","0","0","79646","","null","","","null","26","","","","","","","","","","","","","","","",""
"","ISI","","html-keyboard-response","164","58481","0.0-1.0-237.0","0","0","79646","","null","","","null","26","NaN","","","","","","","","","","","","","","",""
"","S2","","html-keyboard-response","165","58486","0.0-1.0-238.0","0","0","79646","","5","","","68","26","","d","3","26","training","adjacent","ED","5","4","P.jpg","M.jpg","1","0","0","",""
"","feedback","","html-keyboard-response","166","58593","0.0-1.0-240.0-0.0","0","0","79646","","null","","","null","26","","","","","","","","","","","","","","","",""
"","time_out","","html-keyboard-response","167","58699","0.0-1.0-242.0-0.0","0","0","79646","","null","","","null","26","","","","","","","","","","","","","","","",""
"","ITI","","html-keyboard-response","168","59201","0.0-1.0-243.0","0","0","79646","","30","","","68","26","","","","","","","","","","","","","","","d",""
"","S1","","html-keyboard-response","169","59361","0.0-1.0-245.0","0","0","79646","","null","","","null","27","","","","","","","","","","","","","","","",""
"","ISI","","html-keyboard-response","170","59468","0.0-1.0-246.0","0","0","79646","","null","","","null","27","NaN","","","","","","","","","","","","","","",""
"","S2","","html-keyboard-response","171","59553","0.0-1.0-247.0","0","0","79646","","85","","","68","27","","d","3","27","training","adjacent","CD","3","4","N.jpg","M.jpg","1","1","1","",""
"","feedback","","html-keyboard-response","172","59659","0.0-1.0-249.0-0.0","0","0","79646","","null","","","null","27","","","","","","","","","","","","","","","",""
"","ITI","","html-keyboard-response","173","60160","0.0-1.0-252.0","0","0","79646","","161","","","68","27","","","","","","","","","","","","","","","d",""
"","S1","","html-keyboard-response","174","60312","0.0-1.0-254.0","0","0","79646","","null","","","null","28","","","","","","","","","","","","","","","",""
"","ISI","","html-keyboard-response","175","60420","0.0-1.0-255.0","0","0","79646","","null","","","null","28","NaN","","","","","","","","","","","","","","",""
"","S2","","html-keyboard-response","176","60451","0.0-1.0-256.0","0","0","79646","","30","","","68","28","","d","3","28","training","adjacent","FG","6","7","Q.jpg","O.jpg","1","1","1","",""
"","feedback","","html-keyboard-response","177","60556","0.0-1.0-258.0-0.0","0","0","79646","","null","","","null","28","","","","","","","","","","","","","","","",""
"","ITI","","html-keyboard-response","178","61067","0.0-1.0-261.0","0","0","79646","","144","","","68","28","","","","","","","","","","","","","","","d",""
"","S1","","html-keyboard-response","179","61227","0.0-1.0-263.0","0","0","79646","","null","","","null","29","","","","","","","","","","","","","","","",""
"","ISI","","html-keyboard-response","180","61329","0.0-1.0-264.0","0","0","79646","","84","","","68","29","d","","","","","","","","","","","","","","",""
"","S2","","html-keyboard-response","181","61483","0.0-1.0-265.0","0","0","79646","","null","","","null","29","","NaN","","","","","","","","","","","","","",""
"","response","","html-keyboard-response","182","61561","0.0-1.0-266.0-0.0","0","0","79646","","77","","","68","29","","","3","29","training","adjacent","DE","4","5","M.jpg","P.jpg","1","1","1","",""
"","feedback","","html-keyboard-response","183","61665","0.0-1.0-267.0-0.0","0","0","79646","","null","","","null","29","","","","","","","","","","","","","","","",""
"","ITI","","html-keyboard-response","184","62171","0.0-1.0-270.0","0","0","79646","","157","","","68","29","","","","","","","","","","","","","","","d",""
"","S1","","html-keyboard-response","185","62332","0.0-1.0-272.0","0","0","79646","","null","","","null","30","","","","","","","","","","","","","","","",""
"","ISI","","html-keyboard-response","186","62444","0.0-1.0-273.0","0","0","79646","","73","","","68","30","d","","","","","","","","","","","","","","",""
"","S2","","html-keyboard-response","187","62604","0.0-1.0-274.0","0","0","79646","","null","","","null","30","","NaN","","","","","","","","","","","","","",""
"","response","","html-keyboard-response","188","62650","0.0-1.0-275.0-0.0","0","0","79646","","45","","","68","30","","","3","30","training","adjacent","CB","3","2","N.jpg","L.jpg","1","0","0","",""
"","feedback","","html-keyboard-response","189","62753","0.0-1.0-276.0-0.0","0","0","79646","","null","","","null","30","","","","","","","","","","","","","","","",""
"","time_out","","html-keyboard-response","190","62859","0.0-1.0-278.0-0.0","0","0","79646","","null","","","null","30","","","","","","","","","","","","","","","",""
"","ITI","","html-keyboard-response","191","63361","0.0-1.0-279.0","0","0","79646","","22","","","68","30","","","","","","","","","","","","","","","d",""
"","S1","","html-keyboard-response","192","63516","0.0-1.0-281.0","0","0","79646","","null","","","null","31","","","","","","","","","","","","","","","",""
"","ISI","","html-keyboard-response","193","63617","0.0-1.0-282.0","0","0","79646","","null","","","null","31","NaN","","","","","","","","","","","","","","",""
"","S2","","html-keyboard-response","194","63723","0.0-1.0-283.0","0","0","79646","","105","","","68","31","","d","3","31","training","adjacent","BA","2","1","L.jpg","R.jpg","1","0","0","",""
"","feedback","","html-keyboard-response","195","63828","0.0-1.0-285.0-0.0","0","0","79646","","null","","","null","31","","","","","","","","","","","","","","","",""
"","time_out","","html-keyboard-response","196","63936","0.0-1.0-287.0-0.0","0","0","79646","","null","","","null","31","","","","","","","","","","","","","","","",""
"","ITI","","html-keyboard-response","197","64444","0.0-1.0-288.0","0","0","79646","","6","","","68","31","","","","","","","","","","","","","","","d",""
"","S1","","html-keyboard-response","198","64604","0.0-1.0-290.0","0","0","79646","","null","","","null","32","","","","","","","","","","","","","","","",""
"","ISI","","html-keyboard-response","199","64716","0.0-1.0-291.0","0","0","79646","","null","","","null","32","NaN","","","","","","","","","","","","","","",""
"","S2","","html-keyboard-response","200","64788","0.0-1.0-292.0","0","0","79646","","71","","","68","32","","d","3","32","training","adjacent","BC","2","3","L.jpg","N.jpg","1","1","1","",""
"","feedback","","html-keyboard-response","201","64892","0.0-1.0-294.0-0.0","0","0","79646","","null","","","null","32","","","","","","","","","","","","","","","",""
"","ITI","","html-keyboard-response","202","65400","0.0-1.0-297.0","0","0","79646","","127","","","68","32","","","","","","","","","","","","","","","d",""
"","S1","","html-keyboard-response","203","65553","0.0-1.0-299.0","0","0","79646","","null","","","null","33","","","","","","","","","","","","","","","",""
"","ISI","","html-keyboard-response","204","65659","0.0-1.0-300.0","0","0","79646","","5","","","68","33","d","","","","","","","","","","","","","","",""
"","S2","","html-keyboard-response","205","65813","0.0-1.0-301.0","0","0","79646","","154","","","68","33","","d","3","33","training","adjacent","GF","7","6","O.jpg","Q.jpg","1","0","0","",""
"","feedback","","html-keyboard-response","206","65920","0.0-1.0-303.0-0.0","0","0","79646","","null","","","null","33","","","","","","","","","","","","","","","",""
"","time_out","","html-keyboard-response","207","66028","0.0-1.0-305.0-0.0","0","0","79646","","null","","","null","33","","","","","","","","","","","","","","","",""
"","ITI","","html-keyboard-response","208","66540","0.0-1.0-306.0","0","0","79646","","20","","","68","33","","","","","","","","","","","","","","","d",""
"","S1","","html-keyboard-response","209","66699","0.0-1.0-308.0","0","0","79646","","null","","","null","34","","","","","","","","","","","","","","","",""
"","ISI","","html-keyboard-response","210","66812","0.0-1.0-309.0","0","0","79646","","null","","","null","34","NaN","","","","","","","","","","","","","","",""
"","S2","","html-keyboard-response","211","66874","0.0-1.0-310.0","0","0","79646","","60","","","68","34","","d","3","34","training","adjacent","EF","5","6","P.jpg","Q.jpg","1","1","1","",""
"","feedback","","html-keyboard-response","212","66978","0.0-1.0-312.0-0.0","0","0","79646","","null","","","null","34","","","","","","","","","","","","","","","",""
"","ITI","","html-keyboard-response","213","67483","0.0-1.0-315.0","0","0","79646","","134","","","68","34","","","","","","","","","","","","","","","d",""
"","S1","","html-keyboard-response","214","67644","0.0-1.0-317.0","0","0","79646","","null","","","null","35","","","","","","","","","","","","","","","",""
"","ISI","","html-keyboard-response","215","67752","0.0-1.0-318.0","0","0","79646","","106","","","68","35","d","","","","","","","","","","","","","","",""
"","S2","","html-keyboard-response","216","67905","0.0-1.0-319.0","0","0","79646","","null","","","null","35","","NaN","","","","","","","","","","","","","",""
"","response","","html-keyboard-response","217","67973","0.0-1.0-320.0-0.0","0","0","79646","","67","","","68","35","","","3","35","training","adjacent","DC","4","3","M.jpg","N.jpg","1","0","0","",""
"","feedback","","html-keyboard-response","218","68081","0.0-1.0-321.0-0.0","0","0","79646","","null","","","null","35","","","","","","","","","","","","","","","",""
"","time_out","","html-keyboard-response","219","68188","0.0-1.0-323.0-0.0","0","0","79646","","null","","","null","35","","","","","","","","","","","","","","","",""
"","ITI","","html-keyboard-response","220","68699","0.0-1.0-324.0","0","0","79646","","32","","","68","35","","","","","","","","","","","","","","","d",""
"","block_over","","html-keyboard-response","221","69741","0.0-1.0-325.0-0.0","0","0","79646","","1040","","","32","35","","","","","","","","","","","","","","","",""
"","S1","","html-keyboard-response","222","69896","0.0-1.0-326.0","0","0","79646","","null","","","null","36","","","","","","","","","","","","","","","",""
"","ISI","","html-keyboard-response","223","70001","0.0-1.0-327.0","0","0","79646","","83","","","68","36","d","","","","","","","","","","","","","","",""
"","S2","","html-keyboard-response","224","70161","0.0-1.0-328.0","0","0","79646","","null","","","null","36","","NaN","","","","","","","","","","","","","",""
"","response","","html-keyboard-response","225","70240","0.0-1.0-329.0-0.0","0","0","79646","","77","","","68","36","","","4","36","test","non_adjacent","DA","4","1","M.jpg","R.jpg","1","0","0","",""
"","feedback","","html-keyboard-response","226","70348","0.0-1.0-330.0-0.0","0","0","79646","","null","","","null","36","","","","","","","","","","","","","","","",""
"","time_out","","html-keyboard-response","227","70460","0.0-1.0-332.0-0.0","0","0","79646","","null","","","null","36","","","","","","","","","","","","","","","",""
"","ITI","","html-keyboard-response","228","70972","0.0-1.0-333.0","0","0","79646","","6","","","68","36","","","","","","","","","","","","","","","d",""
"","S1","","html-keyboard-response","229","71132","0.0-1.0-335.0","0","0","79646","","null","","","null","37","","","","","","","","","","","","","","","",""
"","ISI","","html-keyboard-response","230","71245","0.0-1.0-336.0","0","0","79646","","34","","","68","37","d","","","","","","","","","","","","","","",""
"","S2","","html-keyboard-response","231","71381","0.0-1.0-337.0","0","0","79646","","136","","","68","37","","d","4","37","test","adjacent","CD","3","4","N.jpg","M.jpg","1","1","1","",""
"","feedback","","html-keyboard-response","232","71489","0.0-1.0-339.0-0.0","0","0","79646","","null","","","null","37","","","","","","","","","","","","","","","",""
"","ITI","","html-keyboard-response","233","71994","0.0-1.0-342.0","0","0","79646","","261","","","68","37","","","","","","","","","","","","","","","d",""
"","S1","","html-keyboard-response","234","72156","0.0-1.0-344.0","0","0","79646","","null","","","null","38","","","","","","","","","","","","","","","",""
"","ISI","","html-keyboard-response","235","72267","0.0-1.0-345.0","0","0","79646","","77","","","68","38","d","","","","","","","","","","","","","","",""
"","S2","","html-keyboard-response","236","72428","0.0-1.0-346.0","0","0","79646","","null","","","null","38","","NaN","","","","","","","","","","","","","",""
"","response","","html-keyboard-response","237","72477","0.0-1.0-347.0-0.0","0","0","79646","","49","","","68","38","","","4","38","test","adjacent","BC","2","3","L.jpg","N.jpg","1","1","1","",""
"","feedback","","html-keyboard-response","238","72588","0.0-1.0-348.0-0.0","0","0","79646","","null","","","null","38","","","","","","","","","","","","","","","",""
"","ITI","","html-keyboard-response","239","73100","0.0-1.0-351.0","0","0","79646","","190","","","68","38","","","","","","","","","","","","","","","d",""
"","S1","","html-keyboard-response","240","73258","0.0-1.0-353.0","0","0","79646","","null","","","null","39","","","","","","","","","","","","","","","",""
"","ISI","","html-keyboard-response","241","73362","0.0-1.0-354.0","0","0","79646","","89","","","68","39","d","","","","","","","","","","","","","","",""
"","S2","","html-keyboard-response","242","73521","0.0-1.0-355.0","0","0","79646","","null","","","null","39","","NaN","","","","","","","","","","","","","",""
"","response","","html-keyboard-response","243","73586","0.0-1.0-356.0-0.0","0","0","79646","","63","","","68","39","","","4","39","test","non_adjacent","AC","1","3","R.jpg","N.jpg","1","1","1","",""
"","feedback","","html-keyboard-response","244","73692","0.0-1.0-357.0-0.0","0","0","79646","","null","","","null","39","","","","","","","","","","","","","","","",""
"","ITI","","html-keyboard-response","245","74204","0.0-1.0-360.0","0","0","79646","","149","","","68","39","","","","","","","","","","","","","","","d",""
"","S1","","html-keyboard-response","246","74364","0.0-1.0-362.0","0","0","79646","","null","","","null","40","","","","","","","","","","","","","","","",""
"","ISI","","html-keyboard-response","247","74476","0.0-1.0-363.0","0","0","79646","","12","","","68","40","d","","","","","","","","","","","","","","",""
"","S2","","html-keyboard-response","248","74622","0.0-1.0-364.0","0","0","79646","","144","","","68","40","","d","4","40","test","non_adjacent","GB","7","2","O.jpg","L.jpg","1","0","0","",""
"","feedback","","html-keyboard-response","249","74732","0.0-1.0-366.0-0.0","0","0","79646","","null","","","null","40","","","","","","","","","","","","","","","",""
"","time_out","","html-keyboard-response","250","74844","0.0-1.0-368.0-0.0","0","0","79646","","null","","","null","40","","","","","","","","","","","","","","","",""
"","ITI","","html-keyboard-response","251","75356","0.0-1.0-369.0","0","0","79646","","25","","","68","40","","","","","","","","","","","","","","","d",""
"","S1","","html-keyboard-response","252","75516","0.0-1.0-371.0","0","0","79646","","null","","","null","41","","","","","","","","","","","","","","","",""
"","ISI","","html-keyboard-response","253","75627","0.0-1.0-372.0","0","0","79646","","null","","","null","41","NaN","","","","","","","","","","","","","","",""
"","S2","","html-keyboard-response","254","75629","0.0-1.0-373.0","0","0","79646","","0","","","68","41","","d","4","41","test","non_adjacent","FA","6","1","Q.jpg","R.jpg","1","0","0","",""
"","feedback","","html-keyboard-response","255","75733","0.0-1.0-375.0-0.0","0","0","79646","","null","","","null","41","","","","","","","","","","","","","","","",""
"","time_out","","html-keyboard-response","256","75841","0.0-1.0-377.0-0.0","0","0","79646","","null","","","null","41","","","","","","","","","","","","","","","",""
"","ITI","","html-keyboard-response","257","76348","0.0-1.0-378.0","0","0","79646","","34","","","68","41","","","","","","","","","","","","","","","d",""
"","S1","","html-keyboard-response","258","76508","0.0-1.0-380.0","0","0","79646","","null","","","null","42","","","","","","","","","","","","","","","",""
"","ISI","","html-keyboard-response","259","76620","0.0-1.0-381.0","0","0","79646","","null","","","null","42","NaN","","","","","","","","","","","","","","",""
"","S2","","html-keyboard-response","260","76653","0.0-1.0-382.0","0","0","79646","","31","","","68","42","","d","4","42","test","adjacent","AB","1","2","R.jpg","L.jpg","1","1","1","",""
"","feedback","","html-keyboard-response","261","76764","0.0-1.0-384.0-0.0","0","0","79646","","null","","","null","42","","","","","","","","","","","","","","","",""
"","ITI","","html-keyboard-response","262","77275","0.0-1.0-387.0","0","0","79646","","124","","","68","42","","","","","","","","","","","","","","","d",""
"","S1","","html-keyboard-response","263","77431","0.0-1.0-389.0","0","0","79646","","null","","","null","43","","","","","","","","","","","","","","","",""
"","ISI","","html-keyboard-response","264","77539","0.0-1.0-390.0","0","0","79646","","null","","","null","43","NaN","","","","","","","","","","","","","","",""
"","S2","","html-keyboard-response","265","77673","0.0-1.0-391.0","0","0","79646","","133","","","68","43","","d","4","43","test","adjacent","CB","3","2","N.jpg","L.jpg","1","0","0","",""
"","feedback","","html-keyboard-response","266","77778","0.0-1.0-393.0-0.0","0","0","79646","","null","","","null","43","","","","","","","","","","","","","","","",""
"","time_out","","html-keyboard-response","267","77884","0.0-1.0-395.0-0.0","0","0","79646","","null","","","null","43","","","","","","","","","","","","","","","",""
"","ITI","","html-keyboard-response","268","78396","0.0-1.0-396.0","0","0","79646","","34","","","68","43","","","","","","","","","","","","","","","d",""
"","S1","","html-keyboard-response","269","78556","0.0-1.0-398.0","0","0","79646","","null","","","null","44","","","","","","","","","","","","","","","",""
"","ISI","","html-keyboard-response","270","78667","0.0-1.0-399.0","0","0","79646","","null","","","null","44","NaN","","","","","","","","","","","","","","",""
"","S2","","html-keyboard-response","271","78672","0.0-1.0-400.0","0","0","79646","","3","","","68","44","","d","4","44","test","non_adjacent","GC","7","3","O.jpg","N.jpg","1","0","0","",""
"","feedback","","html-keyboard-response","272","78780","0.0-1.0-402.0-0.0","0","0","79646","","null","","","null","44","","","","","","","","","","","","","","","",""
"","time_out","","html-keyboard-response","273","78893","0.0-1.0-404.0-0.0","0","0","79646","","null","","","null","44","","","","","","","","","","","","","","","",""
"","ITI","","html-keyboard-response","274","79404","0.0-1.0-405.0","0","0","79646","","4","","","68","44","","","","","","","","","","","","","","","d",""
"","S1","","html-keyboard-response","275","79564","0.0-1.0-407.0","0","0","79646","","null","","","null","45","","","","","","","","","","","","","","","",""
"","ISI","","html-keyboard-response","276","79676","0.0-1.0-408.0","0","0","79646","","65","","","68","45","d","","","","","","","","","","","","","","",""
"","S2","","html-keyboard-response","277","79836","0.0-1.0-409.0","0","0","79646","","null","","","null","45","","NaN","","","","","","","","","","","","","",""
"","response","","html-keyboard-response","278","79884","0.0-1.0-410.0-0.0","0","0","79646","","46","","","68","45","","","4","45","test","non_adjacent","EA","5","1","P.jpg","R.jpg","1","0","0","",""
"","feedback","","html-keyboard-response","279","79990","0.0-1.0-411.0-0.0","0","0","79646","","null","","","null","45","","","","","","","","","","","","","","","",""
"","time_out","","html-keyboard-response","280","80098","0.0-1.0-413.0-0.0","0","0","79646","","null","","","null","45","","","","","","","","","","","","","","","",""
"","ITI","","html-keyboard-response","281","80604","0.0-1.0-414.0","0","0","79646","","33","","","68","45","","","","","","","","","","","","","","","d",""
"","S1","","html-keyboard-response","282","80761","0.0-1.0-416.0","0","0","79646","","null","","","null","46","","","","","","","","","","","","","","","",""
"","ISI","","html-keyboard-response","283","80866","0.0-1.0-417.0","0","0","79646","","null","","","null","46","NaN","","","","","","","","","","","","","","",""
"","S2","","html-keyboard-response","284","80894","0.0-1.0-418.0","0","0","79646","","26","","","68","46","","d","4","46","test","non_adjacent","FB","6","2","Q.jpg","L.jpg","1","0","0","",""
"","feedback","","html-keyboard-response","285","81004","0.0-1.0-420.0-0.0","0","0","79646","","null","","","null","46","","","","","","","","","","","","","","","",""
"","time_out","","html-keyboard-response","286","81115","0.0-1.0-422.0-0.0","0","0","79646","","null","","","null","46","","","","","","","","","","","","","","","",""
"","ITI","","html-keyboard-response","287","81627","0.0-1.0-423.0","0","0","79646","","4","","","68","46","","","","","","","","","","","","","","","d",""
"","S1","","html-keyboard-response","288","81788","0.0-1.0-425.0","0","0","79646","","null","","","null","47","","","","","","","","","","","","","","","",""
"","ISI","","html-keyboard-response","289","81894","0.0-1.0-426.0","0","0","79646","","105","","","68","47","d","","","","","","","","","","","","","","",""
"","S2","","html-keyboard-response","290","82048","0.0-1.0-427.0","0","0","79646","","null","","","null","47","","NaN","","","","","","","","","","","","","",""
"","response","","html-keyboard-response","291","82145","0.0-1.0-428.0-0.0","0","0","79646","","95","","","68","47","","","4","47","test","non_adjacent","AD","1","4","R.jpg","M.jpg","1","1","1","",""
"","feedback","","html-keyboard-response","292","82253","0.0-1.0-429.0-0.0","0","0","79646","","null","","","null","47","","","","","","","","","","","","","","","",""
"","ITI","","html-keyboard-response","293","82762","0.0-1.0-432.0","0","0","79646","","131","","","68","47","","","","","","","","","","","","","","","d",""
"","S1","","html-keyboard-response","294","82924","0.0-1.0-434.0","0","0","79646","","null","","","null","48","","","","","","","","","","","","","","","",""
"","ISI","","html-keyboard-response","295","83036","0.0-1.0-435.0","0","0","79646","","null","","","null","48","NaN","","","","","","","","","","","","","","",""
"","S2","","html-keyboard-response","296","83123","0.0-1.0-436.0","0","0","79646","","85","","","68","48","","d","4","48","test","non_adjacent","DB","4","2","M.jpg","L.jpg","1","0","0","",""
"","feedback","","html-keyboard-response","297","83227","0.0-1.0-438.0-0.0","0","0","79646","","null","","","null","48","","","","","","","","","","","","","","","",""
"","time_out","","html-keyboard-response","298","83330","0.0-1.0-440.0-0.0","0","0","79646","","null","","","null","48","","","","","","","","","","","","","","","",""
"","ITI","","html-keyboard-response","299","83836","0.0-1.0-441.0","0","0","79646","","63","","","68","48","","","","","","","","","","","","","","","d",""
"","S1","","html-keyboard-response","300","83996","0.0-1.0-443.0","0","0","79646","","null","","","null","49","","","","","","","","","","","","","","","",""
"","ISI","","html-keyboard-response","301","84108","0.0-1.0-444.0","0","0","79646","","null","","","null","49","NaN","","","","","","","","","","","","","","",""
"","S2","","html-keyboard-response","302","84174","0.0-1.0-445.0","0","0","79646","","64","","","68","49","","d","4","49","test","non_adjacent","FC","6","3","Q.jpg","N.jpg","1","0","0","",""
"","feedback","","html-keyboard-response","303","84282","0.0-1.0-447.0-0.0","0","0","79646","","null","","","null","49","","","","","","","","","","","","","","","",""
"","time_out","","html-keyboard-response","304","84389","0.0-1.0-449.0-0.0","0","0","79646","","null","","","null","49","","","","","","","","","","","","","","","",""
"","ITI","","html-keyboard-response","305","84898","0.0-1.0-450.0","0","0","79646","","26","","","68","49","","","","","","","","","","","","","","","d",""
"","S1","","html-keyboard-response","306","85057","0.0-1.0-452.0","0","0","79646","","null","","","null","50","","","","","","","","","","","","","","","",""
"","ISI","","html-keyboard-response","307","85164","0.0-1.0-453.0","0","0","79646","","null","","","null","50","NaN","","","","","","","","","","","","","","",""
"","S2","","html-keyboard-response","308","85184","0.0-1.0-454.0","0","0","79646","","18","","","68","50","","d","4","50","test","non_adjacent","GA","7","1","O.jpg","R.jpg","1","0","0","",""
"","feedback","","html-keyboard-response","309","85292","0.0-1.0-456.0-0.0","0","0","79646","","null","","","null","50","","","","","","","","","","","","","","","",""
"","time_out","","html-keyboard-response","310","85404","0.0-1.0-458.0-0.0","0","0","79646","","null","","","null","50","","","","","","","","","","","","","","","",""
"","ITI","","html-keyboard-response","311","85916","0.0-1.0-459.0","0","0","79646","","44","","","68","50","","","","","","","","","","","","","","","d",""
"","S1","","html-keyboard-response","312","86074","0.0-1.0-461.0","0","0","79646","","null","","","null","51","","","","","","","","","","","","","","","",""
"","ISI","","html-keyboard-response","313","86177","0.0-1.0-462.0","0","0","79646","","null","","","null","51","NaN","","","","","","","","","","","","","","",""
"","S2","","html-keyboard-response","314","86203","0.0-1.0-463.0","0","0","79646","","24","","","68","51","","d","4","51","test","non_adjacent","CA","3","1","N.jpg","R.jpg","1","0","0","",""
"","feedback","","html-keyboard-response","315","86309","0.0-1.0-465.0-0.0","0","0","79646","","null","","","null","51","","","","","","","","","","","","","","","",""
"","time_out","","html-keyboard-response","316","86421","0.0-1.0-467.0-0.0","0","0","79646","","null","","","null","51","","","","","","","","","","","","","","","",""
"","ITI","","html-keyboard-response","317","86928","0.0-1.0-468.0","0","0","79646","","26","","","68","51","","","","","","","","","","","","","","","d",""
"","S1","","html-keyboard-response","318","87083","0.0-1.0-470.0","0","0","79646","","null","","","null","52","","","","","","","","","","","","","","","",""
"","ISI","","html-keyboard-response","319","87185","0.0-1.0-471.0","0","0","79646","","null","","","null","52","NaN","","","","","","","","","","","","","","",""
"","S2","","html-keyboard-response","320","87230","0.0-1.0-472.0","0","0","79646","","43","","","68","52","","d","4","52","test","adjacent","BA","2","1","L.jpg","R.jpg","1","0","0","",""
"","feedback","","html-keyboard-response","321","87339","0.0-1.0-474.0-0.0","0","0","79646","","null","","","null","52","","","","","","","","","","","","","","","",""
"","time_out","","html-keyboard-response","322","87440","0.0-1.0-476.0-0.0","0","0","79646","","null","","","null","52","","","","","","","","","","","","","","","",""
"","ITI","","html-keyboard-response","323","87948","0.0-1.0-477.0","0","0","79646","","49","","","68","52","","","","","","","","","","","","","","","d",""
"","S1","","html-keyboard-response","324","88104","0.0-1.0-479.0","0","0","79646","","null","","","null","53","","","","","","","","","","","","","","","",""
"","ISI","","html-keyboard-response","325","88210","0.0-1.0-480.0","0","0","79646","","null","","","null","53","NaN","","","","","","","","","","","","","","",""
"","S2","","html-keyboard-response","326","88276","0.0-1.0-481.0","0","0","79646","","65","","","68","53","","d","4","53","test","non_adjacent","EB","5","2","P.jpg","L.jpg","1","0","0","",""
"","feedback","","html-keyboard-response","327","88380","0.0-1.0-483.0-0.0","0","0","79646","","null","","","null","53","","","","","","","","","","","","","","","",""
"","time_out","","html-keyboard-response","328","88493","0.0-1.0-485.0-0.0","0","0","79646","","null","","","null","53","","","","","","","","","","","","","","","",""
"","ITI","","html-keyboard-response","329","89004","0.0-1.0-486.0","0","0","79646","","86","","","68","53","","","","","","","","","","","","","","","d",""
"","S1","","html-keyboard-response","330","89164","0.0-1.0-488.0","0","0","79646","","null","","","null","54","","","","","","","","","","","","","","","",""
"","ISI","","html-keyboard-response","331","89275","0.0-1.0-489.0","0","0","79646","","null","","","null","54","NaN","","","","","","","","","","","","","","",""
"","S2","","html-keyboard-response","332","89309","0.0-1.0-490.0","0","0","79646","","31","","","68","54","","d","4","54","test","non_adjacent","BD","2","4","L.jpg","M.jpg","1","1","1","",""
"","feedback","","html-keyboard-response","333","89420","0.0-1.0-492.0-0.0","0","0","79646","","null","","","null","54","","","","","","","","","","","","","","","",""
"","ITI","","html-keyboard-response","334","89932","0.0-1.0-495.0","0","0","79646","","140","","","68","54","","","","","","","","","","","","","","","d",""
"","S1","","html-keyboard-response","335","90091","0.0-1.0-497.0","0","0","79646","","null","","","null","55","","","","","","","","","","","","","","","",""
"","ISI","","html-keyboard-response","336","90204","0.0-1.0-498.0","0","0","79646","","32","","","68","55","d","","","","","","","","","","","","","","",""
"","S2","","html-keyboard-response","337","90364","0.0-1.0-499.0","0","0","79646","","null","","","null","55","","NaN","","","","","","","","","","","","","",""
"","response","","html-keyboard-response","338","90374","0.0-1.0-500.0-0.0","0","0","79646","","8","","","68","55","","","4","55","test","adjacent","DC","4","3","M.jpg","N.jpg","1","0","0","",""
"","feedback","","html-keyboard-response","339","90482","0.0-1.0-501.0-0.0","0","0","79646","","null","","","null","55","","","","","","","","","","","","","","","",""
"","time_out","","html-keyboard-response","340","90587","0.0-1.0-503.0-0.0","0","0","79646","","null","","","null","55","","","","","","","","","","","","","","","",""
"","ITI","","html-keyboard-response","341","91091","0.0-1.0-504.0","0","0","79646","","29","","","68","55","","","","","","","","","","","","","","","d",""
"","S1","","html-keyboard-response","342","91247","0.0-1.0-506.0","0","0","79646","","null","","","null","56","","","","","","","","","","","","","","","",""
"","ISI","","html-keyboard-response","343","91355","0.0-1.0-507.0","0","0","79646","","null","","","null","56","NaN","","","","","","","","","","","","","","",""
"","S2","","html-keyboard-response","344","91377","0.0-1.0-508.0","0","0","79646","","22","","","68","56","","d","4","56","test","non_adjacent","EC","5","3","P.jpg","N.jpg","1","0","0","",""
"","feedback","","html-keyboard-response","345","91484","0.0-1.0-510.0-0.0","0","0","79646","","null","","","null","56","","","","","","","","","","","","","","","",""
"","time_out","","html-keyboard-response","346","91596","0.0-1.0-512.0-0.0","0","0","79646","","null","","","null","56","","","","","","","","","","","","","","","",""
"","ITI","","html-keyboard-response","347","92105","0.0-1.0-513.0","0","0","79646","","22","","","68","56","","","","","","","","","","","","","","","d",""
"","block_over","","html-keyboard-response","348","93725","0.0-1.0-514.0-0.0","0","0","79646","","1619","","","32","56","","","","","","","","","","","","","","","",""
"","S1","","html-keyboard-response","349","93884","0.0-1.0-515.0","0","0","79646","","null","","","null","57","","","","","","","","","","","","","","","",""
"","ISI","","html-keyboard-response","350","93993","0.0-1.0-516.0","0","0","79646","","null","","","null","57","NaN","","","","","","","","","","","","","","",""
"","S2","","html-keyboard-response","351","94156","0.0-1.0-517.0","0","0","79646","","null","","","null","57","","NaN","","","","","","","","","","","","","",""
"","response","","html-keyboard-response","352","94171","0.0-1.0-518.0-0.0","0","0","79646","","14","","","68","57","","","5","57","test","non_adjacent","AG","1","7","R.jpg","O.jpg","1","1","1","",""
"","feedback","","html-keyboard-response","353","94274","0.0-1.0-519.0-0.0","0","0","79646","","null","","","null","57","","","","","","","","","","","","","","","",""
"","ITI","","html-keyboard-response","354","94779","0.0-1.0-522.0","0","0","79646","","164","","","68","57","","","","","","","","","","","","","","","d",""
"","S1","","html-keyboard-response","355","94940","0.0-1.0-524.0","0","0","79646","","null","","","null","58","","","","","","","","","","","","","","","",""
"","ISI","","html-keyboard-response","356","95051","0.0-1.0-525.0","0","0","79646","","31","","","68","58","d","","","","","","","","","","","","","","",""
"","S2","","html-keyboard-response","357","95211","0.0-1.0-526.0","0","0","79646","","null","","","null","58","","NaN","","","","","","","","","","","","","",""
"","response","","html-keyboard-response","358","95219","0.0-1.0-527.0-0.0","0","0","79646","","8","","","68","58","","","5","58","test","non_adjacent","CF","3","6","N.jpg","Q.jpg","1","1","1","",""
"","feedback","","html-keyboard-response","359","95328","0.0-1.0-528.0-0.0","0","0","79646","","null","","","null","58","","","","","","","","","","","","","","","",""
"","ITI","","html-keyboard-response","360","95836","0.0-1.0-531.0","0","0","79646","","148","","","68","58","","","","","","","","","","","","","","","d",""
"","S1","","html-keyboard-response","361","95995","0.0-1.0-533.0","0","0","79646","","null","","","null","59","","","","","","","","","","","","","","","",""
"","ISI","","html-keyboard-response","362","96097","0.0-1.0-534.0","0","0","79646","","40","","","68","59","d","","","","","","","","","","","","","","",""
"","S2","","html-keyboard-response","363","96251","0.0-1.0-535.0","0","0","79646","","null","","","null","59","","NaN","","","","","","","","","","","","","",""
"","response","","html-keyboard-response","364","96285","0.0-1.0-536.0-0.0","0","0","79646","","33","","","68","59","","","5","59","test","adjacent","DE","4","5","M.jpg","P.jpg","1","1","1","",""
"","feedback","","html-keyboard-response","365","96395","0.0-1.0-537.0-0.0","0","0","79646","","null","","","null","59","","","","","","","","","","","","","","","",""
"","ITI","","html-keyboard-response","366","96907","0.0-1.0-540.0","0","0","79646","","110","","","68","59","","","","","","","","","","","","","","","d",""
"","S1","","html-keyboard-response","367","97068","0.0-1.0-542.0","0","0","79646","","null","","","null","60","","","","","","","","","","","","","","","",""
"","ISI","","html-keyboard-response","368","97180","0.0-1.0-543.0","0","0","79646","","null","","","null","60","NaN","","","","","","","","","","","","","","",""
"","S2","","html-keyboard-response","369","97308","0.0-1.0-544.0","0","0","79646","","126","","","68","60","","d","5","60","test","non_adjacent","BF","2","6","L.jpg","Q.jpg","1","1","1","",""
"","feedback","","html-keyboard-response","370","97418","0.0-1.0-546.0-0.0","0","0","79646","","null","","","null","60","","","","","","","","","","","","","","","",""
"","ITI","","html-keyboard-response","371","97921","0.0-1.0-549.0","0","0","79646","","135","","","68","60","","","","","","","","","","","","","","","d",""
"","S1","","html-keyboard-response","372","98081","0.0-1.0-551.0","0","0","79646","","null","","","null","61","","","","","","","","","","","","","","","",""
"","ISI","","html-keyboard-response","373","98187","0.0-1.0-552.0","0","0","79646","","1","","","68","61","d","","","","","","","","","","","","","","",""
"","S2","","html-keyboard-response","374","98346","0.0-1.0-553.0","0","0","79646","","157","","","68","61","","d","5","61","test","non_adjacent","BG","2","7","L.jpg","O.jpg","1","1","1","",""
"","feedback","","html-keyboard-response","375","98449","0.0-1.0-555.0-0.0","0","0","79646","","null","","","null","61","","","","","","","","","","","","","","","",""
"","ITI","","html-keyboard-response","376","98956","0.0-1.0-558.0","0","0","79646","","156","","","68","61","","","","","","","","","","","","","","","d",""
"","S1","","html-keyboard-response","377","99112","0.0-1.0-560.0","0","0","79646","","null","","","null","62","","","","","","","","","","","","","","","",""
"","ISI","","html-keyboard-response","378","99221","0.0-1.0-561.0","0","0","79646","","null","","","null","62","NaN","","","","","","","","","","","","","","",""
"","S2","","html-keyboard-response","379","99376","0.0-1.0-562.0","0","0","79646","","154","","","68","62","","d","5","62","test","non_adjacent","GE","7","5","O.jpg","P.jpg","1","0","0","",""
"","feedback","","html-keyboard-response","380","99484","0.0-1.0-564.0-0.0","0","0","79646","","null","","","null","62","","","","","","","","","","","","","","","",""
"","time_out","","html-keyboard-response","381","99595","0.0-1.0-566.0-0.0","0","0","79646","","null","","","null","62","","","","","","","","","","","","","","","",""
"","ITI","","html-keyboard-response","382","100100","0.0-1.0-567.0","0","0","79646","","68","","","68","62","","","","","","","","","","","","","","","d",""
"","S1","","html-keyboard-response","383","100257","0.0-1.0-569.0","0","0","79646","","null","","","null","63","","","","","","","","","","","","","","","",""
"","ISI","","html-keyboard-response","384","100364","0.0-1.0-570.0","0","0","79646","","null","","","null","63","NaN","","","","","","","","","","","","","","",""
"","S2","","html-keyboard-response","385","100454","0.0-1.0-571.0","0","0","79646","","89","","","68","63","","d","5","63","test","non_adjacent","CG","3","7","N.jpg","O.jpg","1","1","1","",""
"","feedback","","html-keyboard-response","386","100562","0.0-1.0-573.0-0.0","0","0","79646","","null","","","null","63","","","","","","","","","","","","","","","",""
"","ITI","","html-keyboard-response","387","101067","0.0-1.0-576.0","0","0","79646","","143","","","68","63","","","","","","","","","","","","","","","d",""
"","S1","","html-keyboard-response","388","101221","0.0-1.0-578.0","0","0","79646","","null","","","null","64","","","","","","","","","","","","","","","",""
"","ISI","","html-keyboard-response","389","101329","0.0-1.0-579.0","0","0","79646","","17","","","68","64","d","","","","","","","","","","","","","","",""
"","S2","","html-keyboard-response","390","101490","0.0-1.0-580.0","0","0","79646","","null","","","null","64","","NaN","","","","","","","","","","","","","",""
"","response","","html-keyboard-response","391","101507","0.0-1.0-581.0-0.0","0","0","79646","","15","","","68","64","","","5","64","test","adjacent","EF","5","6","P.jpg","Q.jpg","1","1","1","",""
"","feedback","","html-keyboard-response","392","101611","0.0-1.0-582.0-0.0","0","0","79646","","null","","","null","64","","","","","","","","","","","","","","","",""
"","ITI","","html-keyboard-response","393","102113","0.0-1.0-585.0","0","0","79646","","113","","","68","64","","","","","","","","","","","","","","","d",""
"","S1","","html-keyboard-response","394","102267","0.0-1.0-587.0","0","0","79646","","null","","","null","65","","","","","","","","","","","","","","","",""
"","ISI","","html-keyboard-response","395","102370","0.0-1.0-588.0","0","0","79646","","null","","","null","65","NaN","","","","","","","","","","","","","","",""
"","S2","","html-keyboard-response","396","102478","0.0-1.0-589.0","0","0","79646","","106","","","68","65","","d","5","65","test","adjacent","GF","7","6","O.jpg","Q.jpg","1","0","0","",""
"","feedback","","html-keyboard-response","397","102588","0.0-1.0-591.0-0.0","0","0","79646","","null","","","null","65","","","","","","","","","","","","","","","",""
"","time_out","","html-keyboard-response","398","102700","0.0-1.0-593.0-0.0","0","0","79646","","null","","","null","65","","","","","","","","","","","","","","","",""
"","ITI","","html-keyboard-response","399","103211","0.0-1.0-594.0","0","0","79646","","48","","","68","65","","","","","","","","","","","","","","","d",""
"","S1","","html-keyboard-response","400","103371","0.0-1.0-596.0","0","0","79646","","null","","","null","66","","","","","","","","","","","","","","","",""
"","ISI","","html-keyboard-response","401","103483","0.0-1.0-597.0","0","0","79646","","null","","","null","66","NaN","","","","","","","","","","","","","","",""
"","S2","","html-keyboard-response","402","103508","0.0-1.0-598.0","0","0","79646","","24","","","68","66","","d","5","66","test","non_adjacent","BE","2","5","L.jpg","P.jpg","1","1","1","",""
"","feedback","","html-keyboard-response","403","103612","0.0-1.0-600.0-0.0","0","0","79646","","null","","","null","66","","","","","","","","","","","","","","","",""
"","ITI","","html-keyboard-response","404","104124","0.0-1.0-603.0","0","0","79646","","147","","","68","66","","","","","","","","","","","","","","","d",""
"","S1","","html-keyboard-response","405","104283","0.0-1.0-605.0","0","0","79646","","null","","","null","67","","","","","","","","","","","","","","","",""
"","ISI","","html-keyboard-response","406","104395","0.0-1.0-606.0","0","0","79646","","2","","","68","67","d","","","","","","","","","","","","","","",""
"","S2","","html-keyboard-response","407","104535","0.0-1.0-607.0","0","0","79646","","138","","","68","67","","d","5","67","test","adjacent","ED","5","4","P.jpg","M.jpg","1","0","0","",""
"","feedback","","html-keyboard-response","408","104645","0.0-1.0-609.0-0.0","0","0","79646","","null","","","null","67","","","","","","","","","","","","","","","",""
"","time_out","","html-keyboard-response","409","104754","0.0-1.0-611.0-0.0","0","0","79646","","null","","","null","67","","","","","","","","","","","","","","","",""
"","ITI","","html-keyboard-response","410","105260","0.0-1.0-612.0","0","0","79646","","50","","","68","67","","","","","","","","","","","","","","","d",""
"","S1","","html-keyboard-response","411","105417","0.0-1.0-614.0","0","0","79646","","null","","","null","68","","","","","","","","","","","","","","","",""
"","ISI","","html-keyboard-response","412","105521","0.0-1.0-615.0","0","0","79646","","null","","","null","68","NaN","","","","","","","","","","","","","","",""
"","S2","","html-keyboard-response","413","105539","0.0-1.0-616.0","0","0","79646","","17","","","68","68","","d","5","68","test","non_adjacent","DG","4","7","M.jpg","O.jpg","1","1","1","",""
"","feedback","","html-keyboard-response","414","105644","0.0-1.0-618.0-0.0","0","0","79646","","null","","","null","68","","","","","","","","","","","","","","","",""
"","ITI","","html-keyboard-response","415","106157","0.0-1.0-621.0","0","0","79646","","154","","","68","68","","","","","","","","","","","","","","","d",""
"","S1","","html-keyboard-response","416","106311","0.0-1.0-623.0","0","0","79646","","null","","","null","69","","","","","","","","","","","","","","","",""
"","ISI","","html-keyboard-response","417","106417","0.0-1.0-624.0","0","0","79646","","null","","","null","69","NaN","","","","","","","","","","","","","","",""
"","S2","","html-keyboard-response","418","106532","0.0-1.0-625.0","0","0","79646","","114","","","68","69","","d","5","69","test","adjacent","FG","6","7","Q.jpg","O.jpg","1","1","1","",""
"","feedback","","html-keyboard-response","419","106636","0.0-1.0-627.0-0.0","0","0","79646","","null","","","null","69","","","","","","","","","","","","","","","",""
"","ITI","","html-keyboard-response","420","107145","0.0-1.0-630.0","0","0","79646","","141","","","68","69","","","","","","","","","","","","","","","d",""
"","S1","","html-keyboard-response","421","107308","0.0-1.0-632.0","0","0","79646","","null","","","null","70","","","","","","","","","","","","","","","",""
"","ISI","","html-keyboard-response","422","107420","0.0-1.0-633.0","0","0","79646","","2","","","68","70","d","","","","","","","","","","","","","","",""
"","S2","","html-keyboard-response","423","107565","0.0-1.0-634.0","0","0","79646","","143","","","68","70","","d","5","70","test","non_adjacent","FD","6","4","Q.jpg","M.jpg","1","0","0","",""
"","feedback","","html-keyboard-response","424","107675","0.0-1.0-636.0-0.0","0","0","79646","","null","","","null","70","","","","","","","","","","","","","","","",""
"","time_out","","html-keyboard-response","425","107788","0.0-1.0-638.0-0.0","0","0","79646","","null","","","null","70","","","","","","","","","","","","","","","",""
"","ITI","","html-keyboard-response","426","108294","0.0-1.0-639.0","0","0","79646","","52","","","68","70","","","","","","","","","","","","","","","d",""
"","S1","","html-keyboard-response","427","108450","0.0-1.0-641.0","0","0","79646","","null","","","null","71","","","","","","","","","","","","","","","",""
"","ISI","","html-keyboard-response","428","108556","0.0-1.0-642.0","0","0","79646","","null","","","null","71","NaN","","","","","","","","","","","","","","",""
"","S2","","html-keyboard-response","429","108621","0.0-1.0-643.0","0","0","79646","","63","","","68","71","","d","5","71","test","non_adjacent","AE","1","5","R.jpg","P.jpg","1","1","1","",""
"","feedback","","html-keyboard-response","430","108729","0.0-1.0-645.0-0.0","0","0","79646","","null","","","null","71","","","","","","","","","","","","","","","",""
"","ITI","","html-keyboard-response","431","109232","0.0-1.0-648.0","0","0","79646","","159","","","68","71","","","","","","","","","","","","","","","d",""
"","S1","","html-keyboard-response","432","109385","0.0-1.0-650.0","0","0","79646","","null","","","null","72","","","","","","","","","","","","","","","",""
"","ISI","","html-keyboard-response","433","109492","0.0-1.0-651.0","0","0","79646","","16","","","68","72","d","","","","","","","","","","","","","","",""
"","S2","","html-keyboard-response","434","109621","0.0-1.0-652.0","0","0","79646","","128","","","68","72","","d","5","72","test","non_adjacent","GD","7","4","O.jpg","M.jpg","1","0","0","",""
"","feedback","","html-keyboard-response","435","109729","0.0-1.0-654.0-0.0","0","0","79646","","null","","","null","72","","","","","","","","","","","","","","","",""
"","time_out","","html-keyboard-response","436","109835","0.0-1.0-656.0-0.0","0","0","79646","","null","","","null","72","","","","","","","","","","","","","","","",""
"","ITI","","html-keyboard-response","437","110345","0.0-1.0-657.0","0","0","79646","","9","","","68","72","","","","","","","","","","","","","","","d",""
"","S1","","html-keyboard-response","438","110507","0.0-1.0-659.0","0","0","79646","","null","","","null","73","","","","","","","","","","","","","","","",""
"","ISI","","html-keyboard-response","439","110610","0.0-1.0-660.0","0","0","79646","","77","","","68","73","d","","","","","","","","","","","","","","",""
"","S2","","html-keyboard-response","440","110771","0.0-1.0-661.0","0","0","79646","","null","","","null","73","","NaN","","","","","","","","","","","","","",""
"","response","","html-keyboard-response","441","110817","0.0-1.0-662.0-0.0","0","0","79646","","45","","","68","73","","","5","73","test","adjacent","FE","6","5","Q.jpg","P.jpg","1","0","0","",""
"","feedback","","html-keyboard-response","442","110924","0.0-1.0-663.0-0.0","0","0","79646","","null","","","null","73","","","","","","","","","","","","","","","",""
"","time_out","","html-keyboard-response","443","111036","0.0-1.0-665.0-0.0","0","0","79646","","null","","","null","73","","","","","","","","","","","","","","","",""
"","ITI","","html-keyboard-response","444","111537","0.0-1.0-666.0","0","0","79646","","11","","","68","73","","","","","","","","","","","","","","","d",""
"","S1","","html-keyboard-response","445","111696","0.0-1.0-668.0","0","0","79646","","null","","","null","74","","","","","","","","","","","","","","","",""
"","ISI","","html-keyboard-response","446","111803","0.0-1.0-669.0","0","0","79646","","106","","","68","74","d","","","","","","","","","","","","","","",""
"","S2","","html-keyboard-response","447","111964","0.0-1.0-670.0","0","0","79646","","null","","","null","74","","NaN","","","","","","","","","","","","","",""
"","response","","html-keyboard-response","448","112057","0.0-1.0-671.0-0.0","0","0","79646","","92","","","68","74","","","5","74","test","non_adjacent","CE","3","5","N.jpg","P.jpg","1","1","1","",""
"","feedback","","html-keyboard-response","449","112165","0.0-1.0-672.0-0.0","0","0","79646","","null","","","null","74","","","","","","","","","","","","","","","",""
"","ITI","","html-keyboard-response","450","112673","0.0-1.0-675.0","0","0","79646","","148","","","68","74","","","","","","","","","","","","","","","d",""
"","S1","","html-keyboard-response","451","112834","0.0-1.0-677.0","0","0","79646","","null","","","null","75","","","","","","","","","","","","","","","",""
"","ISI","","html-keyboard-response","452","112940","0.0-1.0-678.0","0","0","79646","","null","","","null","75","NaN","","","","","","","","","","","","","","",""
"","S2","","html-keyboard-response","453","113027","0.0-1.0-679.0","0","0","79646","","85","","","68","75","","d","5","75","test","non_adjacent","EG","5","7","P.jpg","O.jpg","1","1","1","",""
"","feedback","","html-keyboard-response","454","113132","0.0-1.0-681.0-0.0","0","0","79646","","null","","","null","75","","","","","","","","","","","","","","","",""
"","ITI","","html-keyboard-response","455","113634","0.0-1.0-684.0","0","0","79646","","155","","","68","75","","","","","","","","","","","","","","","d",""
"","S1","","html-keyboard-response","456","113794","0.0-1.0-686.0","0","0","79646","","null","","","null","76","","","","","","","","","","","","","","","",""
"","ISI","","html-keyboard-response","457","113900","0.0-1.0-687.0","0","0","79646","","null","","","null","76","NaN","","","","","","","","","","","","","","",""
"","S2","","html-keyboard-response","458","113998","0.0-1.0-688.0","0","0","79646","","96","","","68","76","","d","5","76","test","non_adjacent","AF","1","6","R.jpg","Q.jpg","1","1","1","",""
"","feedback","","html-keyboard-response","459","114107","0.0-1.0-690.0-0.0","0","0","79646","","null","","","null","76","","","","","","","","","","","","","","","",""
"","ITI","","html-keyboard-response","460","114620","0.0-1.0-693.0","0","0","79646","","146","","","68","76","","","","","","","","","","","","","","","d",""
"","S1","","html-keyboard-response","461","114780","0.0-1.0-695.0","0","0","79646","","null","","","null","77","","","","","","","","","","","","","","","",""
"","ISI","","html-keyboard-response","462","114889","0.0-1.0-696.0","0","0","79646","","null","","","null","77","NaN","","","","","","","","","","","","","","",""
"","S2","","html-keyboard-response","463","114985","0.0-1.0-697.0","0","0","79646","","95","","","68","77","","d","5","77","test","non_adjacent","DF","4","6","M.jpg","Q.jpg","1","1","1","",""
"","feedback","","html-keyboard-response","464","115090","0.0-1.0-699.0-0.0","0","0","79646","","null","","","null","77","","","","","","","","","","","","","","","",""
"","ITI","","html-keyboard-response","465","115596","0.0-1.0-702.0","0","0","79646","","139","","","68","77","","","","","","","","","","","","","","","d",""
"","block_over","","html-keyboard-response","466","116497","0.0-1.0-703.0-0.0","0","0","79646","","900","","","32","77","","","","","","","","","","","","","","","",""
"","S1","","html-keyboard-response","467","116656","0.0-1.0-704.0","0","0","79646","","null","","","null","78","","","","","","","","","","","","","","","",""
"","ISI","","html-keyboard-response","468","116763","0.0-1.0-705.0","0","0","79646","","91","","","68","78","d","","","","","","","","","","","","","","",""
"","S2","","html-keyboard-response","469","116920","0.0-1.0-706.0","0","0","79646","","null","","","null","78","","NaN","","","","","","","","","","","","","",""
"","response","","html-keyboard-response","470","117042","0.0-1.0-707.0-0.0","0","0","79646","","121","","","68","78","","","6","78","test","adjacent","DC","4","3","M.jpg","N.jpg","1","0","0","",""
"","feedback","","html-keyboard-response","471","117148","0.0-1.0-708.0-0.0","0","0","79646","","null","","","null","78","","","","","","","","","","","","","","","",""
"","time_out","","html-keyboard-response","472","117260","0.0-1.0-710.0-0.0","0","0","79646","","null","","","null","78","","","","","","","","","","","","","","","",""
"","ITI","","html-keyboard-response","473","117771","0.0-1.0-711.0","0","0","79646","","23","","","68","78","","","","","","","","","","","","","","","d",""
"","S1","","html-keyboard-response","474","117931","0.0-1.0-713.0","0","0","79646","","null","","","null","79","","","","","","","","","","","","","","","",""
"","ISI","","html-keyboard-response","475","118043","0.0-1.0-714.0","0","0","79646","","83","","","68","79","d","","","","","","","","","","","","","","",""
"","S2","","html-keyboard-response","476","118204","0.0-1.0-715.0","0","0","79646","","null","","","null","79","","NaN","","","","","","","","","","","","","",""
"","response","","html-keyboard-response","477","118262","0.0-1.0-716.0-0.0","0","0","79646","","57","","","68","79","","","6","79","test","non_adjacent","EA","5","1","P.jpg","R.jpg","1","0","0","",""
"","feedback","","html-keyboard-response","478","118371","0.0-1.0-717.0-0.0","0","0","79646","","null","","","null","79","","","","","","","","","","","","","","","",""
"","time_out","","html-keyboard-response","479","118482","0.0-1.0-719.0-0.0","0","0","79646","","null","","","null","79","","","","","","","","","","","","","","","",""
"","ITI","","html-keyboard-response","480","118985","0.0-1.0-720.0","0","0","79646","","10","","","68","79","","","","","","","","","","","","","","","d",""
"","S1","","html-keyboard-response","481","119147","0.0-1.0-722.0","0","0","79646","","null","","","null","80","","","","","","","","","","","","","","","",""
"","ISI","","html-keyboard-response","482","119249","0.0-1.0-723.0","0","0","79646","","75","","","68","80","d","","","","","","","","","","","","","","",""
"","S2","","html-keyboard-response","483","119404","0.0-1.0-724.0","0","0","79646","","null","","","null","80","","NaN","","","","","","","","","","","","","",""
"","response","","html-keyboard-response","484","119483","0.0-1.0-725.0-0.0","0","0","79646","","77","","","68","80","","","6","80","test","non_adjacent","GA","7","1","O.jpg","R.jpg","1","0","0","",""
"","feedback","","html-keyboard-response","485","119586","0.0-1.0-726.0-0.0","0","0","79646","","null","","","null","80","","","","","","","","","","","","","","","",""
"","time_out","","html-keyboard-response","486","119692","0.0-1.0-728.0-0.0","0","0","79646","","null","","","null","80","","","","","","","","","","","","","","","",""
"","ITI","","html-keyboard-response","487","120204","0.0-1.0-729.0","0","0","79646","","43","","","68","80","","","","","","","","","","","","","","","d",""
"","S1","","html-keyboard-response","488","120364","0.0-1.0-731.0","0","0","79646","","null","","","null","81","","","","","","","","","","","","","","","",""
"","ISI","","html-keyboard-response","489","120476","0.0-1.0-732.0","0","0","79646","","null","","","null","81","NaN","","","","","","","","","","","","","","",""
"","S2","","html-keyboard-response","490","120481","0.0-1.0-733.0","0","0","79646","","2","","","68","81","","d","6","81","test","adjacent","CD","3","4","N.jpg","M.jpg","1","1","1","",""
"","feedback","","html-keyboard-response","491","120588","0.0-1.0-735.0-0.0","0","0","79646","","null","","","null","81","","","","","","","","","","","","","","","",""
"","ITI","","html-keyboard-response","492","121099","0.0-1.0-738.0","0","0","79646","","129","","","68","81","","","","","","","","","","","","","","","d",""
"","S1","","html-keyboard-response","493","121260","0.0-1.0-740.0","0","0","79646","","null","","","null","82","","","","","","","","","","","","","","","",""
"","ISI","","html-keyboard-response","494","121372","0.0-1.0-741.0","0","0","79646","","null","","","null","82","NaN","","","","","","","","","","","","","","",""
"","S2","","html-keyboard-response","495","121433","0.0-1.0-742.0","0","0","79646","","59","","","68","82","","d","6","82","test","non_adjacent","DB","4","2","M.jpg","L.jpg","1","0","0","",""
"","feedback","","html-keyboard-response","496","121536","0.0-1.0-744.0-0.0","0","0","79646","","null","","","null","82","","","","","","","","","","","","","","","",""
"","time_out","","html-keyboard-response","497","121644","0.0-1.0-746.0-0.0","0","0","79646","","null","","","null","82","","","","","","","","","","","","","","","",""
"","ITI","","html-keyboard-response","498","122153","0.0-1.0-747.0","0","0","79646","","46","","","68","82","","","","","","","","","","","","","","","d",""
"","S1","","html-keyboard-response","499","122317","0.0-1.0-749.0","0","0","79646","","null","","","null","83","","","","","","","","","","","","","","","",""
"","ISI","","html-keyboard-response","500","122428","0.0-1.0-750.0","0","0","79646","","null","","","null","83","NaN","","","","","","","","","","","","","","",""
"","S2","","html-keyboard-response","501","122481","0.0-1.0-751.0","0","0","79646","","51","","","68","83","","d","6","83","test","adjacent","CB","3","2","N.jpg","L.jpg","1","0","0","",""
"","feedback","","html-keyboard-response","502","122588","0.0-1.0-753.0-0.0","0","0","79646","","null","","","null","83","","","","","","","","","","","","","","","",""
"","time_out","","html-keyboard-response","503","122699","0.0-1.0-755.0-0.0","0","0","79646","","null","","","null","83","","","","","","","","","","","","","","","",""
"","ITI","","html-keyboard-response","504","123204","0.0-1.0-756.0","0","0","79646","","60","","","68","83","","","","","","","","","","","","","","","d",""
"","S1","","html-keyboard-response","505","123361","0.0-1.0-758.0","0","0","79646","","null","","","null","84","","","","","","","","","","","","","","","",""
"","ISI","","html-keyboard-response","506","123468","0.0-1.0-759.0","0","0","79646","","null","","","null","84","NaN","","","","","","","","","","","","","","",""
"","S2","","html-keyboard-response","507","123538","0.0-1.0-760.0","0","0","79646","","69","","","68","84","","d","6","84","test","non_adjacent","EB","5","2","P.jpg","L.jpg","1","0","0","",""
"","feedback","","html-keyboard-response","508","123645","0.0-1.0-762.0-0.0","0","0","79646","","null","","","null","84","","","","","","","","","","","","","","","",""
"","time_out","","html-keyboard-response","509","123756","0.0-1.0-764.0-0.0","0","0","79646","","null","","","null","84","","","","","","","","","","","","","","","",""
"","ITI","","html-keyboard-response","510","124260","0.0-1.0-765.0","0","0","79646","","254","","","68","84","","","","","","","","","","","","","","","d",""
"","S1","","html-keyboard-response","511","124421","0.0-1.0-767.0","0","0","79646","","null","","","null","85","","","","","","","","","","","","","","","",""
"","ISI","","html-keyboard-response","512","124530","0.0-1.0-768.0","0","0","79646","","null","","","null","85","NaN","","","","","","","","","","","","","","",""
"","S2","","html-keyboard-response","513","124535","0.0-1.0-769.0","0","0","79646","","4","","","68","85","","d","6","85","test","non_adjacent","FA","6","1","Q.jpg","R.jpg","1","0","0","",""
"","feedback","","html-keyboard-response","514","124641","0.0-1.0-771.0-0.0","0","0","79646","","null","","","null","85","","","","","","","","","","","","","","","",""
"","time_out","","html-keyboard-response","515","124747","0.0-1.0-773.0-0.0","0","0","79646","","null","","","null","85","","","","","","","","","","","","","","","",""
"","ITI","","html-keyboard-response","516","125249","0.0-1.0-774.0","0","0","79646","","185","","","68","85","","","","","","","","","","","","","","","d",""
"","S1","","html-keyboard-response","517","125410","0.0-1.0-776.0","0","0","79646","","null","","","null","86","","","","","","","","","","","","","","","",""
"","ISI","","html-keyboard-response","518","125516","0.0-1.0-777.0","0","0","79646","","19","","","68","86","d","","","","","","","","","","","","","","",""
"","S2","","html-keyboard-response","519","125675","0.0-1.0-778.0","0","0","79646","","null","","","null","86","","NaN","","","","","","","","","","","","","",""
"","response","","html-keyboard-response","520","125677","0.0-1.0-779.0-0.0","0","0","79646","","1","","","68","86","","","6","86","test","non_adjacent","EC","5","3","P.jpg","N.jpg","1","0","0","",""
"","feedback","","html-keyboard-response","521","125788","0.0-1.0-780.0-0.0","0","0","79646","","null","","","null","86","","","","","","","","","","","","","","","",""
"","time_out","","html-keyboard-response","522","125900","0.0-1.0-782.0-0.0","0","0","79646","","null","","","null","86","","","","","","","","","","","","","","","",""
"","ITI","","html-keyboard-response","523","126411","0.0-1.0-783.0","0","0","79646","","25","","","68","86","","","","","","","","","","","","","","","d",""
"","S1","","html-keyboard-response","524","126571","0.0-1.0-785.0","0","0","79646","","null","","","null","87","","","","","","","","","","","","","","","",""
"","ISI","","html-keyboard-response","525","126674","0.0-1.0-786.0","0","0","79646","","null","","","null","87","NaN","","","","","","","","","","","","","","",""
"","S2","","html-keyboard-response","526","126688","0.0-1.0-787.0","0","0","79646","","12","","","68","87","","d","6","87","test","non_adjacent","GC","7","3","O.jpg","N.jpg","1","0","0","",""
"","feedback","","html-keyboard-response","527","126796","0.0-1.0-789.0-0.0","0","0","79646","","null","","","null","87","","","","","","","","","","","","","","","",""
"","time_out","","html-keyboard-response","528","126908","0.0-1.0-791.0-0.0","0","0","79646","","null","","","null","87","","","","","","","","","","","","","","","",""
"","ITI","","html-keyboard-response","529","127420","0.0-1.0-792.0","0","0","79646","","31","","","68","87","","","","","","","","","","","","","","","d",""
"","S1","","html-keyboard-response","530","127580","0.0-1.0-794.0","0","0","79646","","null","","","null","88","","","","","","","","","","","","","","","",""
"","ISI","","html-keyboard-response","531","127692","0.0-1.0-795.0","0","0","79646","","93","","","68","88","d","","","","","","","","","","","","","","",""
"","S2","","html-keyboard-response","532","127852","0.0-1.0-796.0","0","0","79646","","null","","","null","88","","NaN","","","","","","","","","","","","","",""
"","response","","html-keyboard-response","533","127926","0.0-1.0-797.0-0.0","0","0","79646","","72","","","68","88","","","6","88","test","non_adjacent","DA","4","1","M.jpg","R.jpg","1","0","0","",""
"","feedback","","html-keyboard-response","534","128033","0.0-1.0-798.0-0.0","0","0","79646","","null","","","null","88","","","","","","","","","","","","","","","",""
"","time_out","","html-keyboard-response","535","128140","0.0-1.0-800.0-0.0","0","0","79646","","null","","","null","88","","","","","","","","","","","","","","","",""
"","ITI","","html-keyboard-response","536","128651","0.0-1.0-801.0","0","0","79646","","40","","","68","88","","","","","","","","","","","","","","","d",""
"","S1","","html-keyboard-response","537","128812","0.0-1.0-803.0","0","0","79646","","null","","","null","89","","","","","","","","","","","","","","","",""
"","ISI","","html-keyboard-response","538","128919","0.0-1.0-804.0","0","0","79646","","105","","","68","89","d","","","","","","","","","","","","","","",""
"","S2","","html-keyboard-response","539","129074","0.0-1.0-805.0","0","0","79646","","null","","","null","89","","NaN","","","","","","","","","","","","","",""
"","response","","html-keyboard-response","540","129174","0.0-1.0-806.0-0.0","0","0","79646","","100","","","68","89","","","6","89","test","adjacent","BA","2","1","L.jpg","R.jpg","1","0","0","",""
"","feedback","","html-keyboard-response","541","129282","0.0-1.0-807.0-0.0","0","0","79646","","null","","","null","89","","","","","","","","","","","","","","","",""
"","time_out","","html-keyboard-response","542","129387","0.0-1.0-809.0-0.0","0","0","79646","","null","","","null","89","","","","","","","","","","","","","","","",""
"","ITI","","html-keyboard-response","543","129888","0.0-1.0-810.0","0","0","79646","","50","","","68","89","","","","","","","","","","","","","","","d",""
"","S1","","html-keyboard-response","544","130043","0.0-1.0-812.0","0","0","79646","","null","","","null","90","","","","","","","","","","","","","","","",""
"","ISI","","html-keyboard-response","545","130156","0.0-1.0-813.0","0","0","79646","","null","","","null","90","NaN","","","","","","","","","","","","","","",""
"","S2","","html-keyboard-response","546","130177","0.0-1.0-814.0","0","0","79646","","19","","","68","90","","d","6","90","test","non_adjacent","FB","6","2","Q.jpg","L.jpg","1","0","0","",""
"","feedback","","html-keyboard-response","547","130284","0.0-1.0-816.0-0.0","0","0","79646","","null","","","null","90","","","","","","","","","","","","","","","",""
"","time_out","","html-keyboard-response","548","130395","0.0-1.0-818.0-0.0","0","0","79646","","null","","","null","90","","","","","","","","","","","","","","","",""
"","ITI","","html-keyboard-response","549","130897","0.0-1.0-819.0","0","0","79646","","29","","","68","90","","","","","","","","","","","","","","","d",""
"","S1","","html-keyboard-response","550","131050","0.0-1.0-821.0","0","0","79646","","null","","","null","91","","","","","","","","","","","","","","","",""
"","ISI","","html-keyboard-response","551","131154","0.0-1.0-822.0","0","0","79646","","null","","","null","91","NaN","","","","","","","","","","","","","","",""
"","S2","","html-keyboard-response","552","131204","0.0-1.0-823.0","0","0","79646","","49","","","68","91","","d","6","91","test","non_adjacent","FC","6","3","Q.jpg","N.jpg","1","0","0","",""
"","feedback","","html-keyboard-response","553","131313","0.0-1.0-825.0-0.0","0","0","79646","","null","","","null","91","","","","","","","","","","","","","","","",""
"","time_out","","html-keyboard-response","554","131420","0.0-1.0-827.0-0.0","0","0","79646","","null","","","null","91","","","","","","","","","","","","","","","",""
"","ITI","","html-keyboard-response","555","131931","0.0-1.0-828.0","0","0","79646","","50","","","68","91","","","","","","","","","","","","","","","d",""
"","S1","","html-keyboard-response","556","132092","0.0-1.0-830.0","0","0","79646","","null","","","null","92","","","","","","","","","","","","","","","",""
"","ISI","","html-keyboard-response","557","132204","0.0-1.0-831.0","0","0","79646","","null","","","null","92","NaN","","","","","","","","","","","","","","",""
"","S2","","html-keyboard-response","558","132256","0.0-1.0-832.0","0","0","79646","","50","","","68","92","","d","6","92","test","adjacent","AB","1","2","R.jpg","L.jpg","1","1","1","",""
"","feedback","","html-keyboard-response","559","132363","0.0-1.0-834.0-0.0","0","0","79646","","null","","","null","92","","","","","","","","","","","","","","","",""
"","ITI","","html-keyboard-response","560","132867","0.0-1.0-837.0","0","0","79646","","137","","","68","92","","","","","","","","","","","","","","","d",""
"","S1","","html-keyboard-response","561","133020","0.0-1.0-839.0","0","0","79646","","null","","","null","93","","","","","","","","","","","","","","","",""
"","ISI","","html-keyboard-response","562","133131","0.0-1.0-840.0","0","0","79646","","null","","","null","93","NaN","","","","","","","","","","","","","","",""
"","S2","","html-keyboard-response","563","133239","0.0-1.0-841.0","0","0","79646","","106","","","68","93","","d","6","93","test","non_adjacent","BD","2","4","L.jpg","M.jpg","1","1","1","",""
"","feedback","","html-keyboard-response","564","133344","0.0-1.0-843.0-0.0","0","0","79646","","null","","","null","93","","","","","","","","","","","","","","","",""
"","ITI","","html-keyboard-response","565","133853","0.0-1.0-846.0","0","0","79646","","155","","","68","93","","","","","","","","","","","","","","","d",""
"","S1","","html-keyboard-response","566","134009","0.0-1.0-848.0","0","0","79646","","null","","","null","94","","","","","","","","","","","","","","","",""
"","ISI","","html-keyboard-response","567","134113","0.0-1.0-849.0","0","0","79646","","20","","","68","94","d","","","","","","","","","","","","","","",""
"","S2","","html-keyboard-response","568","134265","0.0-1.0-850.0","0","0","79646","","151","","","68","94","","d","6","94","test","non_adjacent","AC","1","3","R.jpg","N.jpg","1","1","1","",""
"","feedback","","html-keyboard-response","569","134370","0.0-1.0-852.0-0.0","0","0","79646","","null","","","null","94","","","","","","","","","","","","","","","",""
"","ITI","","html-keyboard-response","570","134876","0.0-1.0-855.0","0","0","79646","","196","","","68","94","","","","","","","","","","","","","","","d",""
"","S1","","html-keyboard-response","571","135035","0.0-1.0-857.0","0","0","79646","","null","","","null","95","","","","","","","","","","","","","","","",""
"","ISI","","html-keyboard-response","572","135137","0.0-1.0-858.0","0","0","79646","","99","","","68","95","d","","","","","","","","","","","","","","",""
"","S2","","html-keyboard-response","573","135299","0.0-1.0-859.0","0","0","79646","","null","","","null","95","","NaN","","","","","","","","","","","","","",""
"","response","","html-keyboard-response","574","135399","0.0-1.0-860.0-0.0","0","0","79646","","99","","","68","95","","","6","95","test","non_adjacent","AD","1","4","R.jpg","M.jpg","1","1","1","",""
"","feedback","","html-keyboard-response","575","135509","0.0-1.0-861.0-0.0","0","0","79646","","null","","","null","95","","","","","","","","","","","","","","","",""
"","ITI","","html-keyboard-response","576","136021","0.0-1.0-864.0","0","0","79646","","184","","","68","95","","","","","","","","","","","","","","","d",""
"","S1","","html-keyboard-response","577","136178","0.0-1.0-866.0","0","0","79646","","null","","","null","96","","","","","","","","","","","","","","","",""
"","ISI","","html-keyboard-response","578","136283","0.0-1.0-867.0","0","0","79646","","79","","","68","96","d","","","","","","","","","","","","","","",""
"","S2","","html-keyboard-response","579","136444","0.0-1.0-868.0","0","0","79646","","null","","","null","96","","NaN","","","","","","","","","","","","","",""
"","response","","html-keyboard-response","580","136500","0.0-1.0-869.0-0.0","0","0","79646","","54","","","68","96","","","6","96","test","non_adjacent","CA","3","1","N.jpg","R.jpg","1","0","0","",""
"","feedback","","html-keyboard-response","581","136605","0.0-1.0-870.0-0.0","0","0","79646","","null","","","null","96","","","","","","","","","","","","","","","",""
"","time_out","","html-keyboard-response","582","136715","0.0-1.0-872.0-0.0","0","0","79646","","null","","","null","96","","","","","","","","","","","","","","","",""
"","ITI","","html-keyboard-response","583","137221","0.0-1.0-873.0","0","0","79646","","68","","","68","96","","","","","","","","","","","","","","","d",""
"","S1","","html-keyboard-response","584","137378","0.0-1.0-875.0","0","0","79646","","null","","","null","97","","","","","","","","","","","","","","","",""
"","ISI","","html-keyboard-response","585","137484","0.0-1.0-876.0","0","0","79646","","null","","","null","97","NaN","","","","","","","","","","","","","","",""
"","S2","","html-keyboard-response","586","137581","0.0-1.0-877.0","0","0","79646","","96","","","68","97","","d","6","97","test","non_adjacent","GB","7","2","O.jpg","L.jpg","1","0","0","",""
"","feedback","","html-keyboard-response","587","137691","0.0-1.0-879.0-0.0","0","0","79646","","null","","","null","97","","","","","","","","","","","","","","","",""
"","time_out","","html-keyboard-response","588","137792","0.0-1.0-881.0-0.0","0","0","79646","","null","","","null","97","","","","","","","","","","","","","","","",""
"","ITI","","html-keyboard-response","589","138300","0.0-1.0-882.0","0","0","79646","","51","","","68","97","","","","","","","","","","","","","","","d",""
"","S1","","html-keyboard-response","590","138459","0.0-1.0-884.0","0","0","79646","","null","","","null","98","","","","","","","","","","","","","","","",""
"","ISI","","html-keyboard-response","591","138561","0.0-1.0-885.0","0","0","79646","","null","","","null","98","NaN","","","","","","","","","","","","","","",""
