"success","ttype","start_time","trial_type","trial_index","time_elapsed","internal_node_id","warning","missed_checkup","PID","view_history","rt","responses","repeat_instructions","key_press","index","keypress_isi","keypress_S2","block","trial_num","phase","group_type","pair_type","S1_stim","S2_stim","S1_img","S2_img","S1_chosen","S1_higher","accuracy","keypress_iti","total_bonus_tally"
"true","full_screen","d03092023hr0103","fullscreen","0","14562","0.0-0.0","0","0","84950","","","","","","","","","","","","","","","","","","","","","",""
"","instructions","","instructions","1","97431","0.0-1.0-0.0-0.0","0","0","84950","[{""page_index"":0,""viewing_time"":6637},{""page_index"":1,""viewing_time"":24980},{""page_index"":2,""viewing_time"":17520},{""page_index"":3,""viewing_time"":33728}]","82866","","","","","","","","","","","","","","","","","","","",""
"","comprehension_check","","survey-multi-choice","2","137693","0.0-1.0-0.0-1.0","0","0","84950","","40254","{""Q0"":""True"",""Q1"":""D"",""Q2"":""Once the second image appears and while the screen 'MAKE A CHOICE' is shown"",""Q3"":""Green mark"",""Q4"":""either D or K""}","0","","","","","","","","","","","","","","","","","",""
"","start_exp","","html-keyboard-response","3","142143","0.0-1.0-1.0","0","0","84950","","4445","","","32","","","","","","","","","","","","","","","","",""
"","S1","","html-keyboard-response","4","142412","0.0-1.0-2.0","0","0","84950","","null","","","null","0","","","","","","","","","","","","","","","",""
"","ISI","","html-keyboard-response","5","142572","0.0-1.0-3.0","0","0","84950","","null","","","null","0","NaN","","","","","","","","","","","","","","",""
"","S2","","html-keyboard-response","6","142828","0.0-1.0-4.0","0","0","84950","","null","","","null","0","","NaN","","","","","","","","","","","","","",""
"","response","","html-keyboard-response","7","143267","0.0-1.0-5.0-0.0","0","0","84950","","436","","","75","0","","","1","0","training","adjacent","EF","5","6","R.jpg","L.jpg","0","1","0","",""
"","feedback","","html-keyboard-response","8","144284","0.0-1.0-6.0-0.0","0","0","84950","","null","","","null","0","","","","","","","","","","","","","","","",""
"","time_out","","html-keyboard-response","9","146292","0.0-1.0-8.0-0.0","0","0","84950","","null","","","null","0","","","","","","","","","","","","","","","",""
"","ITI","","html-keyboard-response","10","147300","0.0-1.0-9.0","0","0","84950","","null","","","null","0","","","","","","","","","","","","","","","NaN",""
"","S1","","html-keyboard-response","11","147563","0.0-1.0-11.0","0","0","84950","","null","","","null","1","","","","","","","","","","","","","","","",""
"","ISI","","html-keyboard-response","12","147725","0.0-1.0-12.0","0","0","84950","","null","","","null","1","NaN","","","","","","","","","","","","","","",""
"","S2","","html-keyboard-response","13","147995","0.0-1.0-13.0","0","0","84950","","null","","","null","1","","NaN","","","","","","","","","","","","","",""
"","response","","html-keyboard-response","14","148138","0.0-1.0-14.0-0.0","0","0","84950","","140","","","68","1","","","1","1","training","adjacent","CB","3","2","N.jpg","P.jpg","1","0","0","",""
"","feedback","","html-keyboard-response","15","149149","0.0-1.0-15.0-0.0","0","0","84950","","null","","","null","1","","","","","","","","","","","","","","","",""
"","time_out","","html-keyboard-response","16","151156","0.0-1.0-17.0-0.0","0","0","84950","","null","","","null","1","","","","","","","","","","","","","","","",""
"","ITI","","html-keyboard-response","17","152165","0.0-1.0-18.0","0","0","84950","","null","","","null","1","","","","","","","","","","","","","","","NaN",""
"","S1","","html-keyboard-response","18","152420","0.0-1.0-20.0","0","0","84950","","null","","","null","2","","","","","","","","","","","","","","","",""
"","ISI","","html-keyboard-response","19","152581","0.0-1.0-21.0","0","0","84950","","null","","","null","2","NaN","","","","","","","","","","","","","","",""
"","S2","","html-keyboard-response","20","152838","0.0-1.0-22.0","0","0","84950","","null","","","null","2","","NaN","","","","","","","","","","","","","",""
"","response","","html-keyboard-response","21","152974","0.0-1.0-23.0-0.0","0","0","84950","","135","","","68","2","","","1","2","training","adjacent","CB","3","2","N.jpg","P.jpg","1","0","0","",""
"","feedback","","html-keyboard-response","22","153981","0.0-1.0-24.0-0.0","0","0","84950","","null","","","null","2","","","","","","","","","","","","","","","",""
"","time_out","","html-keyboard-response","23","155995","0.0-1.0-26.0-0.0","0","0","84950","","null","","","null","2","","","","","","","","","","","","","","","",""
"","ITI","","html-keyboard-response","24","157004","0.0-1.0-27.0","0","0","84950","","null","","","null","2","","","","","","","","","","","","","","","NaN",""
"","S1","","html-keyboard-response","25","157260","0.0-1.0-29.0","0","0","84950","","null","","","null","3","","","","","","","","","","","","","","","",""
"","ISI","","html-keyboard-response","26","157420","0.0-1.0-30.0","0","0","84950","","null","","","null","3","NaN","","","","","","","","","","","","","","",""
"","S2","","html-keyboard-response","27","157677","0.0-1.0-31.0","0","0","84950","","null","","","null","3","","NaN","","","","","","","","","","","","","",""
"","response","","html-keyboard-response","28","157753","0.0-1.0-32.0-0.0","0","0","84950","","73","","","75","3","","","1","3","training","adjacent","BC","2","3","P.jpg","N.jpg","0","1","0","",""
"","feedback","","html-keyboard-response","29","158765","0.0-1.0-33.0-0.0","0","0","84950","","null","","","null","3","","","","","","","","","","","","","","","",""
"","time_out","","html-keyboard-response","30","160772","0.0-1.0-35.0-0.0","0","0","84950","","null","","","null","3","","","","","","","","","","","","","","","",""
"","ITI","","html-keyboard-response","31","161781","0.0-1.0-36.0","0","0","84950","","null","","","null","3","","","","","","","","","","","","","","","NaN",""
"","S1","","html-keyboard-response","32","162044","0.0-1.0-38.0","0","0","84950","","null","","","null","4","","","","","","","","","","","","","","","",""
"","ISI","","html-keyboard-response","33","162205","0.0-1.0-39.0","0","0","84950","","null","","","null","4","NaN","","","","","","","","","","","","","","",""
"","S2","","html-keyboard-response","34","162365","0.0-1.0-40.0","0","0","84950","","157","","","75","4","","k","1","4","training","adjacent","CD","3","4","N.jpg","Q.jpg","0","1","0","",""
"","feedback","","html-keyboard-response","35","163373","0.0-1.0-42.0-0.0","0","0","84950","","null","","","null","4","","","","","","","","","","","","","","","",""
"","time_out","","html-keyboard-response","36","165379","0.0-1.0-44.0-0.0","0","0","84950","","null","","","null","4","","","","","","","","","","","","","","","",""
"","ITI","","html-keyboard-response","37","166388","0.0-1.0-45.0","0","0","84950","","null","","","null","4","","","","","","","","","","","","","","","NaN",""
"","S1","","html-keyboard-response","38","166659","0.0-1.0-47.0","0","0","84950","","null","","","null","5","","","","","","","","","","","","","","","",""
"","ISI","","html-keyboard-response","39","166820","0.0-1.0-48.0","0","0","84950","","null","","","null","5","NaN","","","","","","","","","","","","","","",""
"","S2","","html-keyboard-response","40","167055","0.0-1.0-49.0","0","0","84950","","232","","","68","5","","d","1","5","training","adjacent","CD","3","4","N.jpg","Q.jpg","1","1","1","",""
"","feedback","","html-keyboard-response","41","168060","0.0-1.0-51.0-0.0","0","0","84950","","null","","","null","5","","","","","","","","","","","","","","","",""
"","ITI","","html-keyboard-response","42","169069","0.0-1.0-54.0","0","0","84950","","null","","","null","5","","","","","","","","","","","","","","","NaN",""
"","S1","","html-keyboard-response","43","169324","0.0-1.0-56.0","0","0","84950","","null","","","null","6","","","","","","","","","","","","","","","",""
"","ISI","","html-keyboard-response","44","169485","0.0-1.0-57.0","0","0","84950","","null","","","null","6","NaN","","","","","","","","","","","","","","",""
"","S2","","html-keyboard-response","45","169741","0.0-1.0-58.0","0","0","84950","","null","","","null","6","","NaN","","","","","","","","","","","","","",""
"","response","","html-keyboard-response","46","169757","0.0-1.0-59.0-0.0","0","0","84950","","13","","","68","6","","","1","6","training","adjacent","CD","3","4","N.jpg","Q.jpg","1","1","1","",""
"","feedback","","html-keyboard-response","47","170765","0.0-1.0-60.0-0.0","0","0","84950","","null","","","null","6","","","","","","","","","","","","","","","",""
"","ITI","","html-keyboard-response","48","171773","0.0-1.0-63.0","0","0","84950","","null","","","null","6","","","","","","","","","","","","","","","NaN",""
"","S1","","html-keyboard-response","49","172028","0.0-1.0-65.0","0","0","84950","","null","","","null","7","","","","","","","","","","","","","","","",""
"","ISI","","html-keyboard-response","50","172188","0.0-1.0-66.0","0","0","84950","","null","","","null","7","NaN","","","","","","","","","","","","","","",""
"","S2","","html-keyboard-response","51","172460","0.0-1.0-67.0","0","0","84950","","null","","","null","7","","NaN","","","","","","","","","","","","","",""
"","response","","html-keyboard-response","52","172510","0.0-1.0-68.0-0.0","0","0","84950","","47","","","68","7","","","1","7","training","adjacent","CB","3","2","N.jpg","P.jpg","1","0","0","",""
"","feedback","","html-keyboard-response","53","173516","0.0-1.0-69.0-0.0","0","0","84950","","null","","","null","7","","","","","","","","","","","","","","","",""
"","time_out","","html-keyboard-response","54","175524","0.0-1.0-71.0-0.0","0","0","84950","","null","","","null","7","","","","","","","","","","","","","","","",""
"","ITI","","html-keyboard-response","55","176532","0.0-1.0-72.0","0","0","84950","","null","","","null","7","","","","","","","","","","","","","","","NaN",""
"","S1","","html-keyboard-response","56","176796","0.0-1.0-74.0","0","0","84950","","null","","","null","8","","","","","","","","","","","","","","","",""
"","ISI","","html-keyboard-response","57","176972","0.0-1.0-75.0","0","0","84950","","null","","","null","8","NaN","","","","","","","","","","","","","","",""
"","S2","","html-keyboard-response","58","177183","0.0-1.0-76.0","0","0","84950","","209","","","68","8","","d","1","8","training","adjacent","DC","4","3","Q.jpg","N.jpg","1","0","0","",""
"","feedback","","html-keyboard-response","59","178188","0.0-1.0-78.0-0.0","0","0","84950","","null","","","null","8","","","","","","","","","","","","","","","",""
"","time_out","","html-keyboard-response","60","180198","0.0-1.0-80.0-0.0","0","0","84950","","null","","","null","8","","","","","","","","","","","","","","","",""
"","ITI","","html-keyboard-response","61","181204","0.0-1.0-81.0","0","0","84950","","null","","","null","8","","","","","","","","","","","","","","","NaN",""
"","S1","","html-keyboard-response","62","181461","0.0-1.0-83.0","0","0","84950","","null","","","null","9","","","","","","","","","","","","","","","",""
"","ISI","","html-keyboard-response","63","181620","0.0-1.0-84.0","0","0","84950","","null","","","null","9","NaN","","","","","","","","","","","","","","",""
"","S2","","html-keyboard-response","64","181807","0.0-1.0-85.0","0","0","84950","","184","","","75","9","","k","1","9","training","adjacent","BC","2","3","P.jpg","N.jpg","0","1","0","",""
"","feedback","","html-keyboard-response","65","182813","0.0-1.0-87.0-0.0","0","0","84950","","null","","","null","9","","","","","","","","","","","","","","","",""
"","time_out","","html-keyboard-response","66","184820","0.0-1.0-89.0-0.0","0","0","84950","","null","","","null","9","","","","","","","","","","","","","","","",""
"","ITI","","html-keyboard-response","67","185827","0.0-1.0-90.0","0","0","84950","","null","","","null","9","","","","","","","","","","","","","","","NaN",""
"","S1","","html-keyboard-response","68","186085","0.0-1.0-92.0","0","0","84950","","null","","","null","10","","","","","","","","","","","","","","","",""
"","ISI","","html-keyboard-response","69","186244","0.0-1.0-93.0","0","0","84950","","null","","","null","10","NaN","","","","","","","","","","","","","","",""
"","S2","","html-keyboard-response","70","186500","0.0-1.0-94.0","0","0","84950","","null","","","null","10","","NaN","","","","","","","","","","","","","",""
"","response","","html-keyboard-response","71","186521","0.0-1.0-95.0-0.0","0","0","84950","","19","","","75","10","","","1","10","training","adjacent","FE","6","5","L.jpg","R.jpg","0","0","1","",""
"","feedback","","html-keyboard-response","72","187531","0.0-1.0-96.0-0.0","0","0","84950","","null","","","null","10","","","","","","","","","","","","","","","",""
"","ITI","","html-keyboard-response","73","188540","0.0-1.0-99.0","0","0","84950","","null","","","null","10","","","","","","","","","","","","","","","NaN",""
"","S1","","html-keyboard-response","74","188796","0.0-1.0-101.0","0","0","84950","","null","","","null","11","","","","","","","","","","","","","","","",""
"","ISI","","html-keyboard-response","75","188956","0.0-1.0-102.0","0","0","84950","","null","","","null","11","NaN","","","","","","","","","","","","","","",""
"","S2","","html-keyboard-response","76","189212","0.0-1.0-103.0","0","0","84950","","null","","","null","11","","NaN","","","","","","","","","","","","","",""
"","response","","html-keyboard-response","77","189627","0.0-1.0-104.0-0.0","0","0","84950","","412","","","68","11","","","1","11","training","adjacent","GF","7","6","O.jpg","L.jpg","1","0","0","",""
"","feedback","","html-keyboard-response","78","190635","0.0-1.0-105.0-0.0","0","0","84950","","null","","","null","11","","","","","","","","","","","","","","","",""
"","time_out","","html-keyboard-response","79","192644","0.0-1.0-107.0-0.0","0","0","84950","","null","","","null","11","","","","","","","","","","","","","","","",""
"","ITI","","html-keyboard-response","80","193652","0.0-1.0-108.0","0","0","84950","","null","","","null","11","","","","","","","","","","","","","","","NaN",""
"","S1","","html-keyboard-response","81","193916","0.0-1.0-110.0","0","0","84950","","null","","","null","12","","","","","","","","","","","","","","","",""
"","ISI","","html-keyboard-response","82","194076","0.0-1.0-111.0","0","0","84950","","null","","","null","12","NaN","","","","","","","","","","","","","","",""
"","S2","","html-keyboard-response","83","194331","0.0-1.0-112.0","0","0","84950","","null","","","null","12","","NaN","","","","","","","","","","","","","",""
"","response","","html-keyboard-response","84","194451","0.0-1.0-113.0-0.0","0","0","84950","","117","","","75","12","","","1","12","training","adjacent","FG","6","7","L.jpg","O.jpg","0","1","0","",""
"","feedback","","html-keyboard-response","85","195460","0.0-1.0-114.0-0.0","0","0","84950","","null","","","null","12","","","","","","","","","","","","","","","",""
"","time_out","","html-keyboard-response","86","197467","0.0-1.0-116.0-0.0","0","0","84950","","null","","","null","12","","","","","","","","","","","","","","","",""
"","ITI","","html-keyboard-response","87","198475","0.0-1.0-117.0","0","0","84950","","null","","","null","12","","","","","","","","","","","","","","","NaN",""
"","S1","","html-keyboard-response","88","198733","0.0-1.0-119.0","0","0","84950","","null","","","null","13","","","","","","","","","","","","","","","",""
"","ISI","","html-keyboard-response","89","198894","0.0-1.0-120.0","0","0","84950","","null","","","null","13","NaN","","","","","","","","","","","","","","",""
"","S2","","html-keyboard-response","90","199148","0.0-1.0-121.0","0","0","84950","","null","","","null","13","","NaN","","","","","","","","","","","","","",""
"","response","","html-keyboard-response","91","199263","0.0-1.0-122.0-0.0","0","0","84950","","113","","","68","13","","","1","13","training","adjacent","CD","3","4","N.jpg","Q.jpg","1","1","1","",""
"","feedback","","html-keyboard-response","92","200268","0.0-1.0-123.0-0.0","0","0","84950","","null","","","null","13","","","","","","","","","","","","","","","",""
"","ITI","","html-keyboard-response","93","201277","0.0-1.0-126.0","0","0","84950","","null","","","null","13","","","","","","","","","","","","","","","NaN",""
"","S1","","html-keyboard-response","94","201532","0.0-1.0-128.0","0","0","84950","","null","","","null","14","","","","","","","","","","","","","","","",""
"","ISI","","html-keyboard-response","95","201705","0.0-1.0-129.0","0","0","84950","","null","","","null","14","NaN","","","","","","","","","","","","","","",""
"","S2","","html-keyboard-response","96","201964","0.0-1.0-130.0","0","0","84950","","null","","","null","14","","NaN","","","","","","","","","","","","","",""
"","response","","html-keyboard-response","97","202084","0.0-1.0-131.0-0.0","0","0","84950","","117","","","75","14","","","1","14","training","adjacent","GF","7","6","O.jpg","L.jpg","0","0","1","",""
"","feedback","","html-keyboard-response","98","203093","0.0-1.0-132.0-0.0","0","0","84950","","null","","","null","14","","","","","","","","","","","","","","","",""
"","ITI","","html-keyboard-response","99","204100","0.0-1.0-135.0","0","0","84950","","null","","","null","14","","","","","","","","","","","","","","","NaN",""
"","S1","","html-keyboard-response","100","204357","0.0-1.0-137.0","0","0","84950","","null","","","null","15","","","","","","","","","","","","","","","",""
"","ISI","","html-keyboard-response","101","204516","0.0-1.0-138.0","0","0","84950","","null","","","null","15","NaN","","","","","","","","","","","","","","",""
"","S2","","html-keyboard-response","102","204771","0.0-1.0-139.0","0","0","84950","","null","","","null","15","","NaN","","","","","","","","","","","","","",""
"","response","","html-keyboard-response","103","205057","0.0-1.0-140.0-0.0","0","0","84950","","283","","","68","15","","","1","15","training","adjacent","BC","2","3","P.jpg","N.jpg","1","1","1","",""
"","feedback","","html-keyboard-response","104","206068","0.0-1.0-141.0-0.0","0","0","84950","","null","","","null","15","","","","","","","","","","","","","","","",""
"","ITI","","html-keyboard-response","105","207080","0.0-1.0-144.0","0","0","84950","","null","","","null","15","","","","","","","","","","","","","","","NaN",""
"","S1","","html-keyboard-response","106","207340","0.0-1.0-146.0","0","0","84950","","null","","","null","16","","","","","","","","","","","","","","","",""
"","ISI","","html-keyboard-response","107","207501","0.0-1.0-147.0","0","0","84950","","null","","","null","16","NaN","","","","","","","","","","","","","","",""
"","S2","","html-keyboard-response","108","207756","0.0-1.0-148.0","0","0","84950","","null","","","null","16","","NaN","","","","","","","","","","","","","",""
"","response","","html-keyboard-response","109","207761","0.0-1.0-149.0-0.0","0","0","84950","","3","","","75","16","","","1","16","training","adjacent","FE","6","5","L.jpg","R.jpg","0","0","1","",""
"","feedback","","html-keyboard-response","110","208772","0.0-1.0-150.0-0.0","0","0","84950","","null","","","null","16","","","","","","","","","","","","","","","",""
"","ITI","","html-keyboard-response","111","209780","0.0-1.0-153.0","0","0","84950","","null","","","null","16","","","","","","","","","","","","","","","NaN",""
"","S1","","html-keyboard-response","112","210036","0.0-1.0-155.0","0","0","84950","","null","","","null","17","","","","","","","","","","","","","","","",""
"","ISI","","html-keyboard-response","113","210195","0.0-1.0-156.0","0","0","84950","","null","","","null","17","NaN","","","","","","","","","","","","","","",""
"","S2","","html-keyboard-response","114","210452","0.0-1.0-157.0","0","0","84950","","null","","","null","17","","NaN","","","","","","","","","","","","","",""
"","response","","html-keyboard-response","115","210518","0.0-1.0-158.0-0.0","0","0","84950","","63","","","75","17","","","1","17","training","adjacent","FE","6","5","L.jpg","R.jpg","0","0","1","",""
"","feedback","","html-keyboard-response","116","211525","0.0-1.0-159.0-0.0","0","0","84950","","null","","","null","17","","","","","","","","","","","","","","","",""
"","ITI","","html-keyboard-response","117","212532","0.0-1.0-162.0","0","0","84950","","null","","","null","17","","","","","","","","","","","","","","","NaN",""
"","S1","","html-keyboard-response","118","212787","0.0-1.0-164.0","0","0","84950","","null","","","null","18","","","","","","","","","","","","","","","",""
"","ISI","","html-keyboard-response","119","212956","0.0-1.0-165.0","0","0","84950","","null","","","null","18","NaN","","","","","","","","","","","","","","",""
"","S2","","html-keyboard-response","120","213178","0.0-1.0-166.0","0","0","84950","","218","","","68","18","","d","1","18","training","adjacent","FG","6","7","L.jpg","O.jpg","1","1","1","",""
"","feedback","","html-keyboard-response","121","214188","0.0-1.0-168.0-0.0","0","0","84950","","null","","","null","18","","","","","","","","","","","","","","","",""
"","ITI","","html-keyboard-response","122","215197","0.0-1.0-171.0","0","0","84950","","null","","","null","18","","","","","","","","","","","","","","","NaN",""
"","S1","","html-keyboard-response","123","215452","0.0-1.0-173.0","0","0","84950","","null","","","null","19","","","","","","","","","","","","","","","",""
"","ISI","","html-keyboard-response","124","215626","0.0-1.0-174.0","0","0","84950","","null","","","null","19","NaN","","","","","","","","","","","","","","",""
"","S2","","html-keyboard-response","125","215884","0.0-1.0-175.0","0","0","84950","","null","","","null","19","","NaN","","","","","","","","","","","","","",""
"","response","","html-keyboard-response","126","216132","0.0-1.0-176.0-0.0","0","0","84950","","246","","","75","19","","","1","19","training","adjacent","DE","4","5","Q.jpg","R.jpg","0","1","0","",""
"","feedback","","html-keyboard-response","127","217140","0.0-1.0-177.0-0.0","0","0","84950","","null","","","null","19","","","","","","","","","","","","","","","",""
"","time_out","","html-keyboard-response","128","219148","0.0-1.0-179.0-0.0","0","0","84950","","null","","","null","19","","","","","","","","","","","","","","","",""
"","ITI","","html-keyboard-response","129","220156","0.0-1.0-180.0","0","0","84950","","null","","","null","19","","","","","","","","","","","","","","","NaN",""
"","S1","","html-keyboard-response","130","220412","0.0-1.0-182.0","0","0","84950","","null","","","null","20","","","","","","","","","","","","","","","",""
"","ISI","","html-keyboard-response","131","220572","0.0-1.0-183.0","0","0","84950","","null","","","null","20","NaN","","","","","","","","","","","","","","",""
"","S2","","html-keyboard-response","132","220827","0.0-1.0-184.0","0","0","84950","","null","","","null","20","","NaN","","","","","","","","","","","","","",""
"","response","","html-keyboard-response","133","221061","0.0-1.0-185.0-0.0","0","0","84950","","231","","","68","20","","","1","20","training","adjacent","DC","4","3","Q.jpg","N.jpg","1","0","0","",""
"","feedback","","html-keyboard-response","134","222068","0.0-1.0-186.0-0.0","0","0","84950","","null","","","null","20","","","","","","","","","","","","","","","",""
"","time_out","","html-keyboard-response","135","224077","0.0-1.0-188.0-0.0","0","0","84950","","null","","","null","20","","","","","","","","","","","","","","","",""
"","ITI","","html-keyboard-response","136","225084","0.0-1.0-189.0","0","0","84950","","null","","","null","20","","","","","","","","","","","","","","","NaN",""
"","S1","","html-keyboard-response","137","225341","0.0-1.0-191.0","0","0","84950","","null","","","null","21","","","","","","","","","","","","","","","",""
"","ISI","","html-keyboard-response","138","225499","0.0-1.0-192.0","0","0","84950","","null","","","null","21","NaN","","","","","","","","","","","","","","",""
"","S2","","html-keyboard-response","139","225757","0.0-1.0-193.0","0","0","84950","","null","","","null","21","","NaN","","","","","","","","","","","","","",""
"","response","","html-keyboard-response","140","225798","0.0-1.0-194.0-0.0","0","0","84950","","40","","","75","21","","","1","21","training","adjacent","GF","7","6","O.jpg","L.jpg","0","0","1","",""
"","feedback","","html-keyboard-response","141","226804","0.0-1.0-195.0-0.0","0","0","84950","","null","","","null","21","","","","","","","","","","","","","","","",""
"","ITI","","html-keyboard-response","142","227812","0.0-1.0-198.0","0","0","84950","","null","","","null","21","","","","","","","","","","","","","","","NaN",""
"","S1","","html-keyboard-response","143","228067","0.0-1.0-200.0","0","0","84950","","null","","","null","22","","","","","","","","","","","","","","","",""
"","ISI","","html-keyboard-response","144","228227","0.0-1.0-201.0","0","0","84950","","null","","","null","22","NaN","","","","","","","","","","","","","","",""
"","S2","","html-keyboard-response","145","228484","0.0-1.0-202.0","0","0","84950","","null","","","null","22","","NaN","","","","","","","","","","","","","",""
"","response","","html-keyboard-response","146","228651","0.0-1.0-203.0-0.0","0","0","84950","","164","","","75","22","","","1","22","training","adjacent","FE","6","5","L.jpg","R.jpg","0","0","1","",""
"","feedback","","html-keyboard-response","147","229660","0.0-1.0-204.0-0.0","0","0","84950","","null","","","null","22","","","","","","","","","","","","","","","",""
"","ITI","","html-keyboard-response","148","230668","0.0-1.0-207.0","0","0","84950","","null","","","null","22","","","","","","","","","","","","","","","NaN",""
"","S1","","html-keyboard-response","149","230924","0.0-1.0-209.0","0","0","84950","","null","","","null","23","","","","","","","","","","","","","","","",""
"","ISI","","html-keyboard-response","150","231084","0.0-1.0-210.0","0","0","84950","","null","","","null","23","NaN","","","","","","","","","","","","","","",""
"","S2","","html-keyboard-response","151","231341","0.0-1.0-211.0","0","0","84950","","null","","","null","23","","NaN","","","","","","","","","","","","","",""
"","response","","html-keyboard-response","152","231442","0.0-1.0-212.0-0.0","0","0","84950","","99","","","75","23","","","1","23","training","adjacent","FG","6","7","L.jpg","O.jpg","0","1","0","",""
"","feedback","","html-keyboard-response","153","232452","0.0-1.0-213.0-0.0","0","0","84950","","null","","","null","23","","","","","","","","","","","","","","","",""
"","time_out","","html-keyboard-response","154","234459","0.0-1.0-215.0-0.0","0","0","84950","","null","","","null","23","","","","","","","","","","","","","","","",""
"","ITI","","html-keyboard-response","155","235468","0.0-1.0-216.0","0","0","84950","","null","","","null","23","","","","","","","","","","","","","","","NaN",""
"","S1","","html-keyboard-response","156","235724","0.0-1.0-218.0","0","0","84950","","null","","","null","24","","","","","","","","","","","","","","","",""
"","ISI","","html-keyboard-response","157","235895","0.0-1.0-219.0","0","0","84950","","null","","","null","24","NaN","","","","","","","","","","","","","","",""
"","S2","","html-keyboard-response","158","236157","0.0-1.0-220.0","0","0","84950","","null","","","null","24","","NaN","","","","","","","","","","","","","",""
"","response","","html-keyboard-response","159","236204","0.0-1.0-221.0-0.0","0","0","84950","","45","","","75","24","","","1","24","training","adjacent","DC","4","3","Q.jpg","N.jpg","0","0","1","",""
"","feedback","","html-keyboard-response","160","237212","0.0-1.0-222.0-0.0","0","0","84950","","null","","","null","24","","","","","","","","","","","","","","","",""
"","ITI","","html-keyboard-response","161","238219","0.0-1.0-225.0","0","0","84950","","null","","","null","24","","","","","","","","","","","","","","","NaN",""
"","S1","","html-keyboard-response","162","238475","0.0-1.0-227.0","0","0","84950","","null","","","null","25","","","","","","","","","","","","","","","",""
"","ISI","","html-keyboard-response","163","238635","0.0-1.0-228.0","0","0","84950","","null","","","null","25","NaN","","","","","","","","","","","","","","",""
"","S2","","html-keyboard-response","164","238893","0.0-1.0-229.0","0","0","84950","","null","","","null","25","","NaN","","","","","","","","","","","","","",""
"","response","","html-keyboard-response","165","238924","0.0-1.0-230.0-0.0","0","0","84950","","29","","","75","25","","","1","25","training","adjacent","BA","2","1","P.jpg","M.jpg","0","0","1","",""
"","feedback","","html-keyboard-response","166","239933","0.0-1.0-231.0-0.0","0","0","84950","","null","","","null","25","","","","","","","","","","","","","","","",""
"","ITI","","html-keyboard-response","167","240941","0.0-1.0-234.0","0","0","84950","","null","","","null","25","","","","","","","","","","","","","","","NaN",""
"","S1","","html-keyboard-response","168","241197","0.0-1.0-236.0","0","0","84950","","null","","","null","26","","","","","","","","","","","","","","","",""
"","ISI","","html-keyboard-response","169","241356","0.0-1.0-237.0","0","0","84950","","null","","","null","26","NaN","","","","","","","","","","","","","","",""
"","S2","","html-keyboard-response","170","241627","0.0-1.0-238.0","0","0","84950","","null","","","null","26","","NaN","","","","","","","","","","","","","",""
"","response","","html-keyboard-response","171","241753","0.0-1.0-239.0-0.0","0","0","84950","","123","","","75","26","","","1","26","training","adjacent","DE","4","5","Q.jpg","R.jpg","0","1","0","",""
"","feedback","","html-keyboard-response","172","242779","0.0-1.0-240.0-0.0","0","0","84950","","null","","","null","26","","","","","","","","","","","","","","","",""
"","time_out","","html-keyboard-response","173","244787","0.0-1.0-242.0-0.0","0","0","84950","","null","","","null","26","","","","","","","","","","","","","","","",""
"","ITI","","html-keyboard-response","174","245798","0.0-1.0-243.0","0","0","84950","","null","","","null","26","","","","","","","","","","","","","","","NaN",""
"","S1","","html-keyboard-response","175","246052","0.0-1.0-245.0","0","0","84950","","null","","","null","27","","","","","","","","","","","","","","","",""
"","ISI","","html-keyboard-response","176","246212","0.0-1.0-246.0","0","0","84950","","null","","","null","27","NaN","","","","","","","","","","","","","","",""
"","S2","","html-keyboard-response","177","246410","0.0-1.0-247.0","0","0","84950","","195","","","75","27","","k","1","27","training","adjacent","AB","1","2","M.jpg","P.jpg","0","1","0","",""
"","feedback","","html-keyboard-response","178","247420","0.0-1.0-249.0-0.0","0","0","84950","","null","","","null","27","","","","","","","","","","","","","","","",""
"","time_out","","html-keyboard-response","179","249429","0.0-1.0-251.0-0.0","0","0","84950","","null","","","null","27","","","","","","","","","","","","","","","",""
"","ITI","","html-keyboard-response","180","250436","0.0-1.0-252.0","0","0","84950","","null","","","null","27","","","","","","","","","","","","","","","NaN",""
"","S1","","html-keyboard-response","181","250693","0.0-1.0-254.0","0","0","84950","","null","","","null","28","","","","","","","","","","","","","","","",""
"","ISI","","html-keyboard-response","182","250853","0.0-1.0-255.0","0","0","84950","","null","","","null","28","NaN","","","","","","","","","","","","","","",""
"","S2","","html-keyboard-response","183","251096","0.0-1.0-256.0","0","0","84950","","240","","","68","28","","d","1","28","training","adjacent","AB","1","2","M.jpg","P.jpg","1","1","1","",""
"","feedback","","html-keyboard-response","184","252100","0.0-1.0-258.0-0.0","0","0","84950","","null","","","null","28","","","","","","","","","","","","","","","",""
"","ITI","","html-keyboard-response","185","253108","0.0-1.0-261.0","0","0","84950","","null","","","null","28","","","","","","","","","","","","","","","NaN",""
"","S1","","html-keyboard-response","186","253364","0.0-1.0-263.0","0","0","84950","","null","","","null","29","","","","","","","","","","","","","","","",""
"","ISI","","html-keyboard-response","187","253525","0.0-1.0-264.0","0","0","84950","","null","","","null","29","NaN","","","","","","","","","","","","","","",""
"","S2","","html-keyboard-response","188","253692","0.0-1.0-265.0","0","0","84950","","163","","","75","29","","k","1","29","training","adjacent","GF","7","6","O.jpg","L.jpg","0","0","1","",""
"","feedback","","html-keyboard-response","189","254700","0.0-1.0-267.0-0.0","0","0","84950","","null","","","null","29","","","","","","","","","","","","","","","",""
"","ITI","","html-keyboard-response","190","255708","0.0-1.0-270.0","0","0","84950","","null","","","null","29","","","","","","","","","","","","","","","NaN",""
"","S1","","html-keyboard-response","191","255965","0.0-1.0-272.0","0","0","84950","","null","","","null","30","","","","","","","","","","","","","","","",""
"","ISI","","html-keyboard-response","192","256125","0.0-1.0-273.0","0","0","84950","","null","","","null","30","NaN","","","","","","","","","","","","","","",""
"","S2","","html-keyboard-response","193","256382","0.0-1.0-274.0","0","0","84950","","null","","","null","30","","NaN","","","","","","","","","","","","","",""
"","response","","html-keyboard-response","194","256590","0.0-1.0-275.0-0.0","0","0","84950","","206","","","68","30","","","1","30","training","adjacent","BA","2","1","P.jpg","M.jpg","1","0","0","",""
"","feedback","","html-keyboard-response","195","257597","0.0-1.0-276.0-0.0","0","0","84950","","null","","","null","30","","","","","","","","","","","","","","","",""
"","time_out","","html-keyboard-response","196","259604","0.0-1.0-278.0-0.0","0","0","84950","","null","","","null","30","","","","","","","","","","","","","","","",""
"","ITI","","html-keyboard-response","197","260613","0.0-1.0-279.0","0","0","84950","","null","","","null","30","","","","","","","","","","","","","","","NaN",""
"","S1","","html-keyboard-response","198","260876","0.0-1.0-281.0","0","0","84950","","null","","","null","31","","","","","","","","","","","","","","","",""
"","ISI","","html-keyboard-response","199","261038","0.0-1.0-282.0","0","0","84950","","null","","","null","31","NaN","","","","","","","","","","","","","","",""
"","S2","","html-keyboard-response","200","261293","0.0-1.0-283.0","0","0","84950","","null","","","null","31","","NaN","","","","","","","","","","","","","",""
"","response","","html-keyboard-response","201","261300","0.0-1.0-284.0-0.0","0","0","84950","","3","","","75","31","","","1","31","training","adjacent","AB","1","2","M.jpg","P.jpg","0","1","0","",""
"","feedback","","html-keyboard-response","202","262309","0.0-1.0-285.0-0.0","0","0","84950","","null","","","null","31","","","","","","","","","","","","","","","",""
"","time_out","","html-keyboard-response","203","264318","0.0-1.0-287.0-0.0","0","0","84950","","null","","","null","31","","","","","","","","","","","","","","","",""
"","ITI","","html-keyboard-response","204","265324","0.0-1.0-288.0","0","0","84950","","null","","","null","31","","","","","","","","","","","","","","","NaN",""
"","S1","","html-keyboard-response","205","265595","0.0-1.0-290.0","0","0","84950","","null","","","null","32","","","","","","","","","","","","","","","",""
"","ISI","","html-keyboard-response","206","265771","0.0-1.0-291.0","0","0","84950","","null","","","null","32","NaN","","","","","","","","","","","","","","",""
"","S2","","html-keyboard-response","207","266029","0.0-1.0-292.0","0","0","84950","","null","","","null","32","","NaN","","","","","","","","","","","","","",""
"","response","","html-keyboard-response","208","266041","0.0-1.0-293.0-0.0","0","0","84950","","8","","","68","32","","","1","32","training","adjacent","DE","4","5","Q.jpg","R.jpg","1","1","1","",""
"","feedback","","html-keyboard-response","209","267053","0.0-1.0-294.0-0.0","0","0","84950","","null","","","null","32","","","","","","","","","","","","","","","",""
"","ITI","","html-keyboard-response","210","268061","0.0-1.0-297.0","0","0","84950","","null","","","null","32","","","","","","","","","","","","","","","NaN",""
"","S1","","html-keyboard-response","211","268316","0.0-1.0-299.0","0","0","84950","","null","","","null","33","","","","","","","","","","","","","","","",""
"","ISI","","html-keyboard-response","212","268476","0.0-1.0-300.0","0","0","84950","","null","","","null","33","NaN","","","","","","","","","","","","","","",""
"","S2","","html-keyboard-response","213","268634","0.0-1.0-301.0","0","0","84950","","155","","","75","33","","k","1","33","training","adjacent","CB","3","2","N.jpg","P.jpg","0","0","1","",""
"","feedback","","html-keyboard-response","214","269645","0.0-1.0-303.0-0.0","0","0","84950","","null","","","null","33","","","","","","","","","","","","","","","",""
"","ITI","","html-keyboard-response","215","270652","0.0-1.0-306.0","0","0","84950","","null","","","null","33","","","","","","","","","","","","","","","NaN",""
"","S1","","html-keyboard-response","216","270909","0.0-1.0-308.0","0","0","84950","","null","","","null","34","","","","","","","","","","","","","","","",""
"","ISI","","html-keyboard-response","217","271069","0.0-1.0-309.0","0","0","84950","","null","","","null","34","NaN","","","","","","","","","","","","","","",""
"","S2","","html-keyboard-response","218","271273","0.0-1.0-310.0","0","0","84950","","203","","","68","34","","d","1","34","training","adjacent","ED","5","4","R.jpg","Q.jpg","1","0","0","",""
"","feedback","","html-keyboard-response","219","272285","0.0-1.0-312.0-0.0","0","0","84950","","null","","","null","34","","","","","","","","","","","","","","","",""
"","time_out","","html-keyboard-response","220","274292","0.0-1.0-314.0-0.0","0","0","84950","","null","","","null","34","","","","","","","","","","","","","","","",""
"","ITI","","html-keyboard-response","221","275300","0.0-1.0-315.0","0","0","84950","","null","","","null","34","","","","","","","","","","","","","","","NaN",""
"","S1","","html-keyboard-response","222","275561","0.0-1.0-317.0","0","0","84950","","null","","","null","35","","","","","","","","","","","","","","","",""
"","ISI","","html-keyboard-response","223","275716","0.0-1.0-318.0","0","0","84950","","null","","","null","35","NaN","","","","","","","","","","","","","","",""
"","S2","","html-keyboard-response","224","275910","0.0-1.0-319.0","0","0","84950","","191","","","75","35","","k","1","35","training","adjacent","BA","2","1","P.jpg","M.jpg","0","0","1","",""
"","feedback","","html-keyboard-response","225","276916","0.0-1.0-321.0-0.0","0","0","84950","","null","","","null","35","","","","","","","","","","","","","","","",""
"","ITI","","html-keyboard-response","226","277925","0.0-1.0-324.0","0","0","84950","","null","","","null","35","","","","","","","","","","","","","","","NaN",""
"","S1","","html-keyboard-response","227","278180","0.0-1.0-326.0","0","0","84950","","null","","","null","36","","","","","","","","","","","","","","","",""
"","ISI","","html-keyboard-response","228","278340","0.0-1.0-327.0","0","0","84950","","null","","","null","36","NaN","","","","","","","","","","","","","","",""
"","S2","","html-keyboard-response","229","278508","0.0-1.0-328.0","0","0","84950","","165","","","68","36","","d","1","36","training","adjacent","BC","2","3","P.jpg","N.jpg","1","1","1","",""
"","feedback","","html-keyboard-response","230","279532","0.0-1.0-330.0-0.0","0","0","84950","","null","","","null","36","","","","","","","","","","","","","","","",""
"","ITI","","html-keyboard-response","231","280541","0.0-1.0-333.0","0","0","84950","","null","","","null","36","","","","","","","","","","","","","","","NaN",""
"","S1","","html-keyboard-response","232","280796","0.0-1.0-335.0","0","0","84950","","null","","","null","37","","","","","","","","","","","","","","","",""
"","ISI","","html-keyboard-response","233","280956","0.0-1.0-336.0","0","0","84950","","null","","","null","37","NaN","","","","","","","","","","","","","","",""
"","S2","","html-keyboard-response","234","281213","0.0-1.0-337.0","0","0","84950","","null","","","null","37","","NaN","","","","","","","","","","","","","",""
"","response","","html-keyboard-response","235","281241","0.0-1.0-338.0-0.0","0","0","84950","","25","","","75","37","","","1","37","training","adjacent","EF","5","6","R.jpg","L.jpg","0","1","0","",""
"","feedback","","html-keyboard-response","236","282253","0.0-1.0-339.0-0.0","0","0","84950","","null","","","null","37","","","","","","","","","","","","","","","",""
"","time_out","","html-keyboard-response","237","284260","0.0-1.0-341.0-0.0","0","0","84950","","null","","","null","37","","","","","","","","","","","","","","","",""
"","ITI","","html-keyboard-response","238","285268","0.0-1.0-342.0","0","0","84950","","null","","","null","37","","","","","","","","","","","","","","","NaN",""
"","S1","","html-keyboard-response","239","285530","0.0-1.0-344.0","0","0","84950","","null","","","null","38","","","","","","","","","","","","","","","",""
"","ISI","","html-keyboard-response","240","285685","0.0-1.0-345.0","0","0","84950","","null","","","null","38","NaN","","","","","","","","","","","","","","",""
"","S2","","html-keyboard-response","241","285801","0.0-1.0-346.0","0","0","84950","","113","","","68","38","","d","1","38","training","adjacent","ED","5","4","R.jpg","Q.jpg","1","0","0","",""
"","feedback","","html-keyboard-response","242","286813","0.0-1.0-348.0-0.0","0","0","84950","","null","","","null","38","","","","","","","","","","","","","","","",""
"","time_out","","html-keyboard-response","243","288827","0.0-1.0-350.0-0.0","0","0","84950","","null","","","null","38","","","","","","","","","","","","","","","",""
"","ITI","","html-keyboard-response","244","289837","0.0-1.0-351.0","0","0","84950","","null","","","null","38","","","","","","","","","","","","","","","NaN",""
"","S1","","html-keyboard-response","245","290092","0.0-1.0-353.0","0","0","84950","","null","","","null","39","","","","","","","","","","","","","","","",""
"","ISI","","html-keyboard-response","246","290252","0.0-1.0-354.0","0","0","84950","","null","","","null","39","NaN","","","","","","","","","","","","","","",""
"","S2","","html-keyboard-response","247","290390","0.0-1.0-355.0","0","0","84950","","135","","","68","39","","d","1","39","training","adjacent","EF","5","6","R.jpg","L.jpg","1","1","1","",""
"","feedback","","html-keyboard-response","248","291397","0.0-1.0-357.0-0.0","0","0","84950","","null","","","null","39","","","","","","","","","","","","","","","",""
"","ITI","","html-keyboard-response","249","292403","0.0-1.0-360.0","0","0","84950","","null","","","null","39","","","","","","","","","","","","","","","NaN",""
"","S1","","html-keyboard-response","250","292661","0.0-1.0-362.0","0","0","84950","","null","","","null","40","","","","","","","","","","","","","","","",""
"","ISI","","html-keyboard-response","251","292820","0.0-1.0-363.0","0","0","84950","","null","","","null","40","NaN","","","","","","","","","","","","","","",""
"","S2","","html-keyboard-response","252","293084","0.0-1.0-364.0","0","0","84950","","null","","","null","40","","NaN","","","","","","","","","","","","","",""
"","response","","html-keyboard-response","253","293119","0.0-1.0-365.0-0.0","0","0","84950","","33","","","68","40","","","1","40","training","adjacent","ED","5","4","R.jpg","Q.jpg","1","0","0","",""
"","feedback","","html-keyboard-response","254","294140","0.0-1.0-366.0-0.0","0","0","84950","","null","","","null","40","","","","","","","","","","","","","","","",""
"","time_out","","html-keyboard-response","255","296149","0.0-1.0-368.0-0.0","0","0","84950","","null","","","null","40","","","","","","","","","","","","","","","",""
"","ITI","","html-keyboard-response","256","297164","0.0-1.0-369.0","0","0","84950","","null","","","null","40","","","","","","","","","","","","","","","NaN",""
"","S1","","html-keyboard-response","257","297420","0.0-1.0-371.0","0","0","84950","","null","","","null","41","","","","","","","","","","","","","","","",""
"","ISI","","html-keyboard-response","258","297581","0.0-1.0-372.0","0","0","84950","","null","","","null","41","NaN","","","","","","","","","","","","","","",""
"","S2","","html-keyboard-response","259","297779","0.0-1.0-373.0","0","0","84950","","196","","","68","41","","d","1","41","training","adjacent","FG","6","7","L.jpg","O.jpg","1","1","1","",""
"","feedback","","html-keyboard-response","260","298788","0.0-1.0-375.0-0.0","0","0","84950","","null","","","null","41","","","","","","","","","","","","","","","",""
"","ITI","","html-keyboard-response","261","299804","0.0-1.0-378.0","0","0","84950","","null","","","null","41","","","","","","","","","","","","","","","NaN",""
"","S1","","html-keyboard-response","262","300060","0.0-1.0-380.0","0","0","84950","","null","","","null","42","","","","","","","","","","","","","","","",""
"","ISI","","html-keyboard-response","263","300220","0.0-1.0-381.0","0","0","84950","","null","","","null","42","NaN","","","","","","","","","","","","","","",""
"","S2","","html-keyboard-response","264","300476","0.0-1.0-382.0","0","0","84950","","null","","","null","42","","NaN","","","","","","","","","","","","","",""
"","response","","html-keyboard-response","265","300577","0.0-1.0-383.0-0.0","0","0","84950","","98","","","75","42","","","1","42","training","adjacent","DC","4","3","Q.jpg","N.jpg","0","0","1","",""
"","feedback","","html-keyboard-response","266","301588","0.0-1.0-384.0-0.0","0","0","84950","","null","","","null","42","","","","","","","","","","","","","","","",""
"","ITI","","html-keyboard-response","267","302596","0.0-1.0-387.0","0","0","84950","","null","","","null","42","","","","","","","","","","","","","","","NaN",""
"","S1","","html-keyboard-response","268","302860","0.0-1.0-389.0","0","0","84950","","null","","","null","43","","","","","","","","","","","","","","","",""
"","ISI","","html-keyboard-response","269","303019","0.0-1.0-390.0","0","0","84950","","null","","","null","43","NaN","","","","","","","","","","","","","","",""
"","S2","","html-keyboard-response","270","303276","0.0-1.0-391.0","0","0","84950","","null","","","null","43","","NaN","","","","","","","","","","","","","",""
"","response","","html-keyboard-response","271","303376","0.0-1.0-392.0-0.0","0","0","84950","","97","","","75","43","","","1","43","training","adjacent","AB","1","2","M.jpg","P.jpg","0","1","0","",""
"","feedback","","html-keyboard-response","272","304381","0.0-1.0-393.0-0.0","0","0","84950","","null","","","null","43","","","","","","","","","","","","","","","",""
"","time_out","","html-keyboard-response","273","306389","0.0-1.0-395.0-0.0","0","0","84950","","null","","","null","43","","","","","","","","","","","","","","","",""
"","ITI","","html-keyboard-response","274","307396","0.0-1.0-396.0","0","0","84950","","null","","","null","43","","","","","","","","","","","","","","","NaN",""
"","S1","","html-keyboard-response","275","307660","0.0-1.0-398.0","0","0","84950","","null","","","null","44","","","","","","","","","","","","","","","",""
"","ISI","","html-keyboard-response","276","307821","0.0-1.0-399.0","0","0","84950","","null","","","null","44","NaN","","","","","","","","","","","","","","",""
"","S2","","html-keyboard-response","277","307874","0.0-1.0-400.0","0","0","84950","","50","","","68","44","","d","1","44","training","adjacent","EF","5","6","R.jpg","L.jpg","1","1","1","",""
"","feedback","","html-keyboard-response","278","308885","0.0-1.0-402.0-0.0","0","0","84950","","null","","","null","44","","","","","","","","","","","","","","","",""
"","ITI","","html-keyboard-response","279","309893","0.0-1.0-405.0","0","0","84950","","null","","","null","44","","","","","","","","","","","","","","","NaN",""
"","S1","","html-keyboard-response","280","310149","0.0-1.0-407.0","0","0","84950","","null","","","null","45","","","","","","","","","","","","","","","",""
"","ISI","","html-keyboard-response","281","310309","0.0-1.0-408.0","0","0","84950","","null","","","null","45","NaN","","","","","","","","","","","","","","",""
"","S2","","html-keyboard-response","282","310506","0.0-1.0-409.0","0","0","84950","","195","","","68","45","","d","1","45","training","adjacent","DE","4","5","Q.jpg","R.jpg","1","1","1","",""
"","feedback","","html-keyboard-response","283","311529","0.0-1.0-411.0-0.0","0","0","84950","","null","","","null","45","","","","","","","","","","","","","","","",""
"","ITI","","html-keyboard-response","284","312541","0.0-1.0-414.0","0","0","84950","","null","","","null","45","","","","","","","","","","","","","","","NaN",""
"","S1","","html-keyboard-response","285","312797","0.0-1.0-416.0","0","0","84950","","null","","","null","46","","","","","","","","","","","","","","","",""
"","ISI","","html-keyboard-response","286","312971","0.0-1.0-417.0","0","0","84950","","null","","","null","46","NaN","","","","","","","","","","","","","","",""
"","S2","","html-keyboard-response","287","313228","0.0-1.0-418.0","0","0","84950","","null","","","null","46","","NaN","","","","","","","","","","","","","",""
"","response","","html-keyboard-response","288","313431","0.0-1.0-419.0-0.0","0","0","84950","","200","","","68","46","","","1","46","training","adjacent","BA","2","1","P.jpg","M.jpg","1","0","0","",""
"","feedback","","html-keyboard-response","289","314436","0.0-1.0-420.0-0.0","0","0","84950","","null","","","null","46","","","","","","","","","","","","","","","",""
"","time_out","","html-keyboard-response","290","316445","0.0-1.0-422.0-0.0","0","0","84950","","null","","","null","46","","","","","","","","","","","","","","","",""
"","ITI","","html-keyboard-response","291","317453","0.0-1.0-423.0","0","0","84950","","null","","","null","46","","","","","","","","","","","","","","","NaN",""
"","S1","","html-keyboard-response","292","317709","0.0-1.0-425.0","0","0","84950","","null","","","null","47","","","","","","","","","","","","","","","",""
"","ISI","","html-keyboard-response","293","317868","0.0-1.0-426.0","0","0","84950","","null","","","null","47","NaN","","","","","","","","","","","","","","",""
"","S2","","html-keyboard-response","294","318110","0.0-1.0-427.0","0","0","84950","","239","","","68","47","","d","1","47","training","adjacent","ED","5","4","R.jpg","Q.jpg","1","0","0","",""
"","feedback","","html-keyboard-response","295","319116","0.0-1.0-429.0-0.0","0","0","84950","","null","","","null","47","","","","","","","","","","","","","","","",""
"","time_out","","html-keyboard-response","296","321125","0.0-1.0-431.0-0.0","0","0","84950","","null","","","null","47","","","","","","","","","","","","","","","",""
"","ITI","","html-keyboard-response","297","322132","0.0-1.0-432.0","0","0","84950","","null","","","null","47","","","","","","","","","","","","","","","NaN",""
"","block_over","","html-keyboard-response","298","331460","0.0-1.0-433.0-0.0","0","0","84950","","9323","","","32","47","","","","","","","","","","","","","","","",""
"","S1","","html-keyboard-response","299","331724","0.0-1.0-434.0","0","0","84950","","null","","","null","48","","","","","","","","","","","","","","","",""
"","ISI","","html-keyboard-response","300","331884","0.0-1.0-435.0","0","0","84950","","null","","","null","48","NaN","","","","","","","","","","","","","","",""
"","S2","","html-keyboard-response","301","332054","0.0-1.0-436.0","0","0","84950","","167","","","75","48","","k","2","48","training","adjacent","CD","3","4","N.jpg","Q.jpg","0","1","0","",""
"","feedback","","html-keyboard-response","302","333069","0.0-1.0-438.0-0.0","0","0","84950","","null","","","null","48","","","","","","","","","","","","","","","",""
"","time_out","","html-keyboard-response","303","335077","0.0-1.0-440.0-0.0","0","0","84950","","null","","","null","48","","","","","","","","","","","","","","","",""
"","ITI","","html-keyboard-response","304","336084","0.0-1.0-441.0","0","0","84950","","null","","","null","48","","","","","","","","","","","","","","","NaN",""
"","S1","","html-keyboard-response","305","336341","0.0-1.0-443.0","0","0","84950","","null","","","null","49","","","","","","","","","","","","","","","",""
"","ISI","","html-keyboard-response","306","336508","0.0-1.0-444.0","0","0","84950","","null","","","null","49","NaN","","","","","","","","","","","","","","",""
"","S2","","html-keyboard-response","307","336542","0.0-1.0-445.0","0","0","84950","","31","","","68","49","","d","2","49","training","adjacent","AB","1","2","M.jpg","P.jpg","1","1","1","",""
"","feedback","","html-keyboard-response","308","337556","0.0-1.0-447.0-0.0","0","0","84950","","null","","","null","49","","","","","","","","","","","","","","","",""
"","ITI","","html-keyboard-response","309","338565","0.0-1.0-450.0","0","0","84950","","null","","","null","49","","","","","","","","","","","","","","","NaN",""
"","S1","","html-keyboard-response","310","338821","0.0-1.0-452.0","0","0","84950","","null","","","null","50","","","","","","","","","","","","","","","",""
"","ISI","","html-keyboard-response","311","338981","0.0-1.0-453.0","0","0","84950","","null","","","null","50","NaN","","","","","","","","","","","","","","",""
"","S2","","html-keyboard-response","312","339113","0.0-1.0-454.0","0","0","84950","","130","","","75","50","","k","2","50","training","adjacent","BC","2","3","P.jpg","N.jpg","0","1","0","",""
"","feedback","","html-keyboard-response","313","340124","0.0-1.0-456.0-0.0","0","0","84950","","null","","","null","50","","","","","","","","","","","","","","","",""
"","time_out","","html-keyboard-response","314","342140","0.0-1.0-458.0-0.0","0","0","84950","","null","","","null","50","","","","","","","","","","","","","","","",""
"","ITI","","html-keyboard-response","315","343147","0.0-1.0-459.0","0","0","84950","","null","","","null","50","","","","","","","","","","","","","","","NaN",""
"","S1","","html-keyboard-response","316","343405","0.0-1.0-461.0","0","0","84950","","null","","","null","51","","","","","","","","","","","","","","","",""
"","ISI","","html-keyboard-response","317","343566","0.0-1.0-462.0","0","0","84950","","null","","","null","51","NaN","","","","","","","","","","","","","","",""
"","S2","","html-keyboard-response","318","343662","0.0-1.0-463.0","0","0","84950","","93","","","68","51","","d","2","51","training","adjacent","DC","4","3","Q.jpg","N.jpg","1","0","0","",""
"","feedback","","html-keyboard-response","319","344669","0.0-1.0-465.0-0.0","0","0","84950","","null","","","null","51","","","","","","","","","","","","","","","",""
"","time_out","","html-keyboard-response","320","346676","0.0-1.0-467.0-0.0","0","0","84950","","null","","","null","51","","","","","","","","","","","","","","","",""
"","ITI","","html-keyboard-response","321","347684","0.0-1.0-468.0","0","0","84950","","null","","","null","51","","","","","","","","","","","","","","","NaN",""
"","S1","","html-keyboard-response","322","347941","0.0-1.0-470.0","0","0","84950","","null","","","null","52","","","","","","","","","","","","","","","",""
"","ISI","","html-keyboard-response","323","348108","0.0-1.0-471.0","0","0","84950","","null","","","null","52","NaN","","","","","","","","","","","","","","",""
"","S2","","html-keyboard-response","324","348275","0.0-1.0-472.0","0","0","84950","","164","","","68","52","","d","2","52","training","adjacent","FG","6","7","L.jpg","O.jpg","1","1","1","",""
"","feedback","","html-keyboard-response","325","349285","0.0-1.0-474.0-0.0","0","0","84950","","null","","","null","52","","","","","","","","","","","","","","","",""
"","ITI","","html-keyboard-response","326","350293","0.0-1.0-477.0","0","0","84950","","null","","","null","52","","","","","","","","","","","","","","","NaN",""
"","S1","","html-keyboard-response","327","350549","0.0-1.0-479.0","0","0","84950","","null","","","null","53","","","","","","","","","","","","","","","",""
"","ISI","","html-keyboard-response","328","350709","0.0-1.0-480.0","0","0","84950","","null","","","null","53","NaN","","","","","","","","","","","","","","",""
"","S2","","html-keyboard-response","329","350972","0.0-1.0-481.0","0","0","84950","","null","","","null","53","","NaN","","","","","","","","","","","","","",""
"","response","","html-keyboard-response","330","351110","0.0-1.0-482.0-0.0","0","0","84950","","135","","","75","53","","","2","53","training","adjacent","CD","3","4","N.jpg","Q.jpg","0","1","0","",""
"","feedback","","html-keyboard-response","331","352116","0.0-1.0-483.0-0.0","0","0","84950","","null","","","null","53","","","","","","","","","","","","","","","",""
"","time_out","","html-keyboard-response","332","354125","0.0-1.0-485.0-0.0","0","0","84950","","null","","","null","53","","","","","","","","","","","","","","","",""
"","ITI","","html-keyboard-response","333","355132","0.0-1.0-486.0","0","0","84950","","null","","","null","53","","","","","","","","","","","","","","","NaN",""
"","S1","","html-keyboard-response","334","355389","0.0-1.0-488.0","0","0","84950","","null","","","null","54","","","","","","","","","","","","","","","",""
"","ISI","","html-keyboard-response","335","355548","0.0-1.0-489.0","0","0","84950","","null","","","null","54","NaN","","","","","","","","","","","","","","",""
"","S2","","html-keyboard-response","336","355807","0.0-1.0-490.0","0","0","84950","","null","","","null","54","","NaN","","","","","","","","","","","","","",""
"","response","","html-keyboard-response","337","355879","0.0-1.0-491.0-0.0","0","0","84950","","68","","","75","54","","","2","54","training","adjacent","CB","3","2","N.jpg","P.jpg","0","0","1","",""
"","feedback","","html-keyboard-response","338","356899","0.0-1.0-492.0-0.0","0","0","84950","","null","","","null","54","","","","","","","","","","","","","","","",""
"","ITI","","html-keyboard-response","339","357908","0.0-1.0-495.0","0","0","84950","","null","","","null","54","","","","","","","","","","","","","","","NaN",""
"","S1","","html-keyboard-response","340","358164","0.0-1.0-497.0","0","0","84950","","null","","","null","55","","","","","","","","","","","","","","","",""
"","ISI","","html-keyboard-response","341","358326","0.0-1.0-498.0","0","0","84950","","null","","","null","55","NaN","","","","","","","","","","","","","","",""
"","S2","","html-keyboard-response","342","358581","0.0-1.0-499.0","0","0","84950","","null","","","null","55","","NaN","","","","","","","","","","","","","",""
"","response","","html-keyboard-response","343","358686","0.0-1.0-500.0-0.0","0","0","84950","","103","","","68","55","","","2","55","training","adjacent","DE","4","5","Q.jpg","R.jpg","1","1","1","",""
"","feedback","","html-keyboard-response","344","359693","0.0-1.0-501.0-0.0","0","0","84950","","null","","","null","55","","","","","","","","","","","","","","","",""
"","ITI","","html-keyboard-response","345","360701","0.0-1.0-504.0","0","0","84950","","null","","","null","55","","","","","","","","","","","","","","","NaN",""
"","S1","","html-keyboard-response","346","360957","0.0-1.0-506.0","0","0","84950","","null","","","null","56","","","","","","","","","","","","","","","",""
"","ISI","","html-keyboard-response","347","361117","0.0-1.0-507.0","0","0","84950","","null","","","null","56","NaN","","","","","","","","","","","","","","",""
"","S2","","html-keyboard-response","348","361372","0.0-1.0-508.0","0","0","84950","","null","","","null","56","","NaN","","","","","","","","","","","","","",""
"","response","","html-keyboard-response","349","361431","0.0-1.0-509.0-0.0","0","0","84950","","56","","","68","56","","","2","56","training","adjacent","FG","6","7","L.jpg","O.jpg","1","1","1","",""
"","feedback","","html-keyboard-response","350","362437","0.0-1.0-510.0-0.0","0","0","84950","","null","","","null","56","","","","","","","","","","","","","","","",""
"","ITI","","html-keyboard-response","351","363445","0.0-1.0-513.0","0","0","84950","","null","","","null","56","","","","","","","","","","","","","","","NaN",""
"","S1","","html-keyboard-response","352","363700","0.0-1.0-515.0","0","0","84950","","null","","","null","57","","","","","","","","","","","","","","","",""
"","ISI","","html-keyboard-response","353","363860","0.0-1.0-516.0","0","0","84950","","null","","","null","57","NaN","","","","","","","","","","","","","","",""
"","S2","","html-keyboard-response","354","364071","0.0-1.0-517.0","0","0","84950","","208","","","68","57","","d","2","57","training","adjacent","FG","6","7","L.jpg","O.jpg","1","1","1","",""
"","feedback","","html-keyboard-response","355","365077","0.0-1.0-519.0-0.0","0","0","84950","","null","","","null","57","","","","","","","","","","","","","","","",""
"","ITI","","html-keyboard-response","356","366085","0.0-1.0-522.0","0","0","84950","","null","","","null","57","","","","","","","","","","","","","","","NaN",""
"","S1","","html-keyboard-response","357","366353","0.0-1.0-524.0","0","0","84950","","null","","","null","58","","","","","","","","","","","","","","","",""
"","ISI","","html-keyboard-response","358","366509","0.0-1.0-525.0","0","0","84950","","null","","","null","58","NaN","","","","","","","","","","","","","","",""
"","S2","","html-keyboard-response","359","366693","0.0-1.0-526.0","0","0","84950","","181","","","75","58","","k","2","58","training","adjacent","CB","3","2","N.jpg","P.jpg","0","0","1","",""
"","feedback","","html-keyboard-response","360","367700","0.0-1.0-528.0-0.0","0","0","84950","","null","","","null","58","","","","","","","","","","","","","","","",""
"","ITI","","html-keyboard-response","361","368708","0.0-1.0-531.0","0","0","84950","","null","","","null","58","","","","","","","","","","","","","","","NaN",""
"","S1","","html-keyboard-response","362","368964","0.0-1.0-533.0","0","0","84950","","null","","","null","59","","","","","","","","","","","","","","","",""
"","ISI","","html-keyboard-response","363","369126","0.0-1.0-534.0","0","0","84950","","null","","","null","59","NaN","","","","","","","","","","","","","","",""
"","S2","","html-keyboard-response","364","369328","0.0-1.0-535.0","0","0","84950","","199","","","68","59","","d","2","59","training","adjacent","GF","7","6","O.jpg","L.jpg","1","0","0","",""
"","feedback","","html-keyboard-response","365","370333","0.0-1.0-537.0-0.0","0","0","84950","","null","","","null","59","","","","","","","","","","","","","","","",""
"","time_out","","html-keyboard-response","366","372340","0.0-1.0-539.0-0.0","0","0","84950","","null","","","null","59","","","","","","","","","","","","","","","",""
"","ITI","","html-keyboard-response","367","373349","0.0-1.0-540.0","0","0","84950","","null","","","null","59","","","","","","","","","","","","","","","NaN",""
"","S1","","html-keyboard-response","368","373605","0.0-1.0-542.0","0","0","84950","","null","","","null","60","","","","","","","","","","","","","","","",""
"","ISI","","html-keyboard-response","369","373765","0.0-1.0-543.0","0","0","84950","","null","","","null","60","NaN","","","","","","","","","","","","","","",""
"","S2","","html-keyboard-response","370","374005","0.0-1.0-544.0","0","0","84950","","236","","","75","60","","k","2","60","training","adjacent","DE","4","5","Q.jpg","R.jpg","0","1","0","",""
"","feedback","","html-keyboard-response","371","375013","0.0-1.0-546.0-0.0","0","0","84950","","null","","","null","60","","","","","","","","","","","","","","","",""
"","time_out","","html-keyboard-response","372","377020","0.0-1.0-548.0-0.0","0","0","84950","","null","","","null","60","","","","","","","","","","","","","","","",""
"","ITI","","html-keyboard-response","373","378029","0.0-1.0-549.0","0","0","84950","","null","","","null","60","","","","","","","","","","","","","","","NaN",""
"","S1","","html-keyboard-response","374","378284","0.0-1.0-551.0","0","0","84950","","null","","","null","61","","","","","","","","","","","","","","","",""
"","ISI","","html-keyboard-response","375","378445","0.0-1.0-552.0","0","0","84950","","null","","","null","61","NaN","","","","","","","","","","","","","","",""
"","S2","","html-keyboard-response","376","378700","0.0-1.0-553.0","0","0","84950","","null","","","null","61","","NaN","","","","","","","","","","","","","",""
"","response","","html-keyboard-response","377","378721","0.0-1.0-554.0-0.0","0","0","84950","","18","","","75","61","","","2","61","training","adjacent","BA","2","1","P.jpg","M.jpg","0","0","1","",""
"","feedback","","html-keyboard-response","378","379732","0.0-1.0-555.0-0.0","0","0","84950","","null","","","null","61","","","","","","","","","","","","","","","",""
"","ITI","","html-keyboard-response","379","380740","0.0-1.0-558.0","0","0","84950","","null","","","null","61","","","","","","","","","","","","","","","NaN",""
"","S1","","html-keyboard-response","380","381009","0.0-1.0-560.0","0","0","84950","","null","","","null","62","","","","","","","","","","","","","","","",""
"","ISI","","html-keyboard-response","381","381164","0.0-1.0-561.0","0","0","84950","","null","","","null","62","NaN","","","","","","","","","","","","","","",""
"","S2","","html-keyboard-response","382","381362","0.0-1.0-562.0","0","0","84950","","195","","","68","62","","d","2","62","training","adjacent","DE","4","5","Q.jpg","R.jpg","1","1","1","",""
"","feedback","","html-keyboard-response","383","382373","0.0-1.0-564.0-0.0","0","0","84950","","null","","","null","62","","","","","","","","","","","","","","","",""
"","ITI","","html-keyboard-response","384","383381","0.0-1.0-567.0","0","0","84950","","null","","","null","62","","","","","","","","","","","","","","","NaN",""
"","S1","","html-keyboard-response","385","383637","0.0-1.0-569.0","0","0","84950","","null","","","null","63","","","","","","","","","","","","","","","",""
"","ISI","","html-keyboard-response","386","383797","0.0-1.0-570.0","0","0","84950","","null","","","null","63","NaN","","","","","","","","","","","","","","",""
"","S2","","html-keyboard-response","387","384053","0.0-1.0-571.0","0","0","84950","","null","","","null","63","","NaN","","","","","","","","","","","","","",""
"","response","","html-keyboard-response","388","384067","0.0-1.0-572.0-0.0","0","0","84950","","11","","","75","63","","","2","63","training","adjacent","EF","5","6","R.jpg","L.jpg","0","1","0","",""
"","feedback","","html-keyboard-response","389","385077","0.0-1.0-573.0-0.0","0","0","84950","","null","","","null","63","","","","","","","","","","","","","","","",""
"","time_out","","html-keyboard-response","390","387085","0.0-1.0-575.0-0.0","0","0","84950","","null","","","null","63","","","","","","","","","","","","","","","",""
"","ITI","","html-keyboard-response","391","388097","0.0-1.0-576.0","0","0","84950","","null","","","null","63","","","","","","","","","","","","","","","NaN",""
"","S1","","html-keyboard-response","392","388356","0.0-1.0-578.0","0","0","84950","","null","","","null","64","","","","","","","","","","","","","","","",""
"","ISI","","html-keyboard-response","393","388516","0.0-1.0-579.0","0","0","84950","","null","","","null","64","NaN","","","","","","","","","","","","","","",""
"","S2","","html-keyboard-response","394","388580","0.0-1.0-580.0","0","0","84950","","61","","","68","64","","d","2","64","training","adjacent","ED","5","4","R.jpg","Q.jpg","1","0","0","",""
"","feedback","","html-keyboard-response","395","389589","0.0-1.0-582.0-0.0","0","0","84950","","null","","","null","64","","","","","","","","","","","","","","","",""
"","time_out","","html-keyboard-response","396","391597","0.0-1.0-584.0-0.0","0","0","84950","","null","","","null","64","","","","","","","","","","","","","","","",""
"","ITI","","html-keyboard-response","397","392605","0.0-1.0-585.0","0","0","84950","","null","","","null","64","","","","","","","","","","","","","","","NaN",""
"","S1","","html-keyboard-response","398","392862","0.0-1.0-587.0","0","0","84950","","null","","","null","65","","","","","","","","","","","","","","","",""
"","ISI","","html-keyboard-response","399","393020","0.0-1.0-588.0","0","0","84950","","null","","","null","65","NaN","","","","","","","","","","","","","","",""
"","S2","","html-keyboard-response","400","393159","0.0-1.0-589.0","0","0","84950","","136","","","75","65","","k","2","65","training","adjacent","FG","6","7","L.jpg","O.jpg","0","1","0","",""
"","feedback","","html-keyboard-response","401","394164","0.0-1.0-591.0-0.0","0","0","84950","","null","","","null","65","","","","","","","","","","","","","","","",""
"","time_out","","html-keyboard-response","402","396172","0.0-1.0-593.0-0.0","0","0","84950","","null","","","null","65","","","","","","","","","","","","","","","",""
"","ITI","","html-keyboard-response","403","397181","0.0-1.0-594.0","0","0","84950","","null","","","null","65","","","","","","","","","","","","","","","NaN",""
"","S1","","html-keyboard-response","404","397437","0.0-1.0-596.0","0","0","84950","","null","","","null","66","","","","","","","","","","","","","","","",""
"","ISI","","html-keyboard-response","405","397605","0.0-1.0-597.0","0","0","84950","","null","","","null","66","NaN","","","","","","","","","","","","","","",""
"","S2","","html-keyboard-response","406","397614","0.0-1.0-598.0","0","0","84950","","6","","","68","66","","d","2","66","training","adjacent","CB","3","2","N.jpg","P.jpg","1","0","0","",""
"","feedback","","html-keyboard-response","407","398621","0.0-1.0-600.0-0.0","0","0","84950","","null","","","null","66","","","","","","","","","","","","","","","",""
"","time_out","","html-keyboard-response","408","400629","0.0-1.0-602.0-0.0","0","0","84950","","null","","","null","66","","","","","","","","","","","","","","","",""
"","ITI","","html-keyboard-response","409","401637","0.0-1.0-603.0","0","0","84950","","null","","","null","66","","","","","","","","","","","","","","","NaN",""
"","S1","","html-keyboard-response","410","401893","0.0-1.0-605.0","0","0","84950","","null","","","null","67","","","","","","","","","","","","","","","",""
"","ISI","","html-keyboard-response","411","402052","0.0-1.0-606.0","0","0","84950","","null","","","null","67","NaN","","","","","","","","","","","","","","",""
"","S2","","html-keyboard-response","412","402309","0.0-1.0-607.0","0","0","84950","","null","","","null","67","","NaN","","","","","","","","","","","","","",""
"","response","","html-keyboard-response","413","402389","0.0-1.0-608.0-0.0","0","0","84950","","78","","","75","67","","","2","67","training","adjacent","BA","2","1","P.jpg","M.jpg","0","0","1","",""
"","feedback","","html-keyboard-response","414","403397","0.0-1.0-609.0-0.0","0","0","84950","","null","","","null","67","","","","","","","","","","","","","","","",""
"","ITI","","html-keyboard-response","415","404404","0.0-1.0-612.0","0","0","84950","","null","","","null","67","","","","","","","","","","","","","","","NaN",""
"","S1","","html-keyboard-response","416","404661","0.0-1.0-614.0","0","0","84950","","null","","","null","68","","","","","","","","","","","","","","","",""
"","ISI","","html-keyboard-response","417","404820","0.0-1.0-615.0","0","0","84950","","null","","","null","68","NaN","","","","","","","","","","","","","","",""
"","S2","","html-keyboard-response","418","405076","0.0-1.0-616.0","0","0","84950","","null","","","null","68","","NaN","","","","","","","","","","","","","",""
"","response","","html-keyboard-response","419","405106","0.0-1.0-617.0-0.0","0","0","84950","","27","","","75","68","","","2","68","training","adjacent","DC","4","3","Q.jpg","N.jpg","0","0","1","",""
"","feedback","","html-keyboard-response","420","406116","0.0-1.0-618.0-0.0","0","0","84950","","null","","","null","68","","","","","","","","","","","","","","","",""
"","ITI","","html-keyboard-response","421","407124","0.0-1.0-621.0","0","0","84950","","null","","","null","68","","","","","","","","","","","","","","","NaN",""
"","S1","","html-keyboard-response","422","407380","0.0-1.0-623.0","0","0","84950","","null","","","null","69","","","","","","","","","","","","","","","",""
"","ISI","","html-keyboard-response","423","407540","0.0-1.0-624.0","0","0","84950","","null","","","null","69","NaN","","","","","","","","","","","","","","",""
"","S2","","html-keyboard-response","424","407804","0.0-1.0-625.0","0","0","84950","","null","","","null","69","","NaN","","","","","","","","","","","","","",""
"","response","","html-keyboard-response","425","407818","0.0-1.0-626.0-0.0","0","0","84950","","11","","","75","69","","","2","69","training","adjacent","BA","2","1","P.jpg","M.jpg","0","0","1","",""
"","feedback","","html-keyboard-response","426","408828","0.0-1.0-627.0-0.0","0","0","84950","","null","","","null","69","","","","","","","","","","","","","","","",""
"","ITI","","html-keyboard-response","427","409837","0.0-1.0-630.0","0","0","84950","","null","","","null","69","","","","","","","","","","","","","","","NaN",""
"","S1","","html-keyboard-response","428","410093","0.0-1.0-632.0","0","0","84950","","null","","","null","70","","","","","","","","","","","","","","","",""
"","ISI","","html-keyboard-response","429","410252","0.0-1.0-633.0","0","0","84950","","null","","","null","70","NaN","","","","","","","","","","","","","","",""
"","S2","","html-keyboard-response","430","410509","0.0-1.0-634.0","0","0","84950","","null","","","null","70","","NaN","","","","","","","","","","","","","",""
"","response","","html-keyboard-response","431","410538","0.0-1.0-635.0-0.0","0","0","84950","","27","","","68","70","","","2","70","training","adjacent","FE","6","5","L.jpg","R.jpg","1","0","0","",""
"","feedback","","html-keyboard-response","432","411548","0.0-1.0-636.0-0.0","0","0","84950","","null","","","null","70","","","","","","","","","","","","","","","",""
"","time_out","","html-keyboard-response","433","413557","0.0-1.0-638.0-0.0","0","0","84950","","null","","","null","70","","","","","","","","","","","","","","","",""
"","ITI","","html-keyboard-response","434","414564","0.0-1.0-639.0","0","0","84950","","null","","","null","70","","","","","","","","","","","","","","","NaN",""
"","S1","","html-keyboard-response","435","414820","0.0-1.0-641.0","0","0","84950","","null","","","null","71","","","","","","","","","","","","","","","",""
"","ISI","","html-keyboard-response","436","414980","0.0-1.0-642.0","0","0","84950","","null","","","null","71","NaN","","","","","","","","","","","","","","",""
"","S2","","html-keyboard-response","437","415199","0.0-1.0-643.0","0","0","84950","","217","","","75","71","","k","2","71","training","adjacent","DC","4","3","Q.jpg","N.jpg","0","0","1","",""
"","feedback","","html-keyboard-response","438","416205","0.0-1.0-645.0-0.0","0","0","84950","","null","","","null","71","","","","","","","","","","","","","","","",""
"","ITI","","html-keyboard-response","439","417212","0.0-1.0-648.0","0","0","84950","","null","","","null","71","","","","","","","","","","","","","","","NaN",""
"","S1","","html-keyboard-response","440","417468","0.0-1.0-650.0","0","0","84950","","null","","","null","72","","","","","","","","","","","","","","","",""
"","ISI","","html-keyboard-response","441","417629","0.0-1.0-651.0","0","0","84950","","null","","","null","72","NaN","","","","","","","","","","","","","","",""
"","S2","","html-keyboard-response","442","417885","0.0-1.0-652.0","0","0","84950","","null","","","null","72","","NaN","","","","","","","","","","","","","",""
"","response","","html-keyboard-response","443","417910","0.0-1.0-653.0-0.0","0","0","84950","","24","","","75","72","","","2","72","training","adjacent","BC","2","3","P.jpg","N.jpg","0","1","0","",""
"","feedback","","html-keyboard-response","444","418917","0.0-1.0-654.0-0.0","0","0","84950","","null","","","null","72","","","","","","","","","","","","","","","",""
"","time_out","","html-keyboard-response","445","420926","0.0-1.0-656.0-0.0","0","0","84950","","null","","","null","72","","","","","","","","","","","","","","","",""
"","ITI","","html-keyboard-response","446","421937","0.0-1.0-657.0","0","0","84950","","null","","","null","72","","","","","","","","","","","","","","","NaN",""
"","S1","","html-keyboard-response","447","422197","0.0-1.0-659.0","0","0","84950","","null","","","null","73","","","","","","","","","","","","","","","",""
"","ISI","","html-keyboard-response","448","422356","0.0-1.0-660.0","0","0","84950","","null","","","null","73","NaN","","","","","","","","","","","","","","",""
"","S2","","html-keyboard-response","449","422464","0.0-1.0-661.0","0","0","84950","","105","","","75","73","","k","2","73","training","adjacent","GF","7","6","O.jpg","L.jpg","0","0","1","",""
"","feedback","","html-keyboard-response","450","423468","0.0-1.0-663.0-0.0","0","0","84950","","null","","","null","73","","","","","","","","","","","","","","","",""
"","ITI","","html-keyboard-response","451","424477","0.0-1.0-666.0","0","0","84950","","null","","","null","73","","","","","","","","","","","","","","","NaN",""
"","S1","","html-keyboard-response","452","424733","0.0-1.0-668.0","0","0","84950","","null","","","null","74","","","","","","","","","","","","","","","",""
"","ISI","","html-keyboard-response","453","424893","0.0-1.0-669.0","0","0","84950","","null","","","null","74","NaN","","","","","","","","","","","","","","",""
"","S2","","html-keyboard-response","454","425149","0.0-1.0-670.0","0","0","84950","","null","","","null","74","","NaN","","","","","","","","","","","","","",""
"","response","","html-keyboard-response","455","425236","0.0-1.0-671.0-0.0","0","0","84950","","84","","","68","74","","","2","74","training","adjacent","ED","5","4","R.jpg","Q.jpg","1","0","0","",""
"","feedback","","html-keyboard-response","456","426245","0.0-1.0-672.0-0.0","0","0","84950","","null","","","null","74","","","","","","","","","","","","","","","",""
"","time_out","","html-keyboard-response","457","428252","0.0-1.0-674.0-0.0","0","0","84950","","null","","","null","74","","","","","","","","","","","","","","","",""
"","ITI","","html-keyboard-response","458","429260","0.0-1.0-675.0","0","0","84950","","null","","","null","74","","","","","","","","","","","","","","","NaN",""
"","S1","","html-keyboard-response","459","429516","0.0-1.0-677.0","0","0","84950","","null","","","null","75","","","","","","","","","","","","","","","",""
"","ISI","","html-keyboard-response","460","429677","0.0-1.0-678.0","0","0","84950","","null","","","null","75","NaN","","","","","","","","","","","","","","",""
"","S2","","html-keyboard-response","461","429828","0.0-1.0-679.0","0","0","84950","","148","","","75","75","","k","2","75","training","adjacent","AB","1","2","M.jpg","P.jpg","0","1","0","",""
"","feedback","","html-keyboard-response","462","430835","0.0-1.0-681.0-0.0","0","0","84950","","null","","","null","75","","","","","","","","","","","","","","","",""
"","time_out","","html-keyboard-response","463","432844","0.0-1.0-683.0-0.0","0","0","84950","","null","","","null","75","","","","","","","","","","","","","","","",""
"","ITI","","html-keyboard-response","464","433852","0.0-1.0-684.0","0","0","84950","","null","","","null","75","","","","","","","","","","","","","","","NaN",""
"","S1","","html-keyboard-response","465","434108","0.0-1.0-686.0","0","0","84950","","null","","","null","76","","","","","","","","","","","","","","","",""
"","ISI","","html-keyboard-response","466","434268","0.0-1.0-687.0","0","0","84950","","null","","","null","76","NaN","","","","","","","","","","","","","","",""
"","S2","","html-keyboard-response","467","434401","0.0-1.0-688.0","0","0","84950","","130","","","75","76","","k","2","76","training","adjacent","FE","6","5","L.jpg","R.jpg","0","0","1","",""
"","feedback","","html-keyboard-response","468","435412","0.0-1.0-690.0-0.0","0","0","84950","","null","","","null","76","","","","","","","","","","","","","","","",""
"","ITI","","html-keyboard-response","469","436420","0.0-1.0-693.0","0","0","84950","","null","","","null","76","","","","","","","","","","","","","","","NaN",""
"","S1","","html-keyboard-response","470","436676","0.0-1.0-695.0","0","0","84950","","null","","","null","77","","","","","","","","","","","","","","","",""
"","ISI","","html-keyboard-response","471","436836","0.0-1.0-696.0","0","0","84950","","null","","","null","77","NaN","","","","","","","","","","","","","","",""
"","S2","","html-keyboard-response","472","437092","0.0-1.0-697.0","0","0","84950","","null","","","null","77","","NaN","","","","","","","","","","","","","",""
"","response","","html-keyboard-response","473","437132","0.0-1.0-698.0-0.0","0","0","84950","","37","","","75","77","","","2","77","training","adjacent","AB","1","2","M.jpg","P.jpg","0","1","0","",""
"","feedback","","html-keyboard-response","474","438139","0.0-1.0-699.0-0.0","0","0","84950","","null","","","null","77","","","","","","","","","","","","","","","",""
"","time_out","","html-keyboard-response","475","440148","0.0-1.0-701.0-0.0","0","0","84950","","null","","","null","77","","","","","","","","","","","","","","","",""
"","ITI","","html-keyboard-response","476","441156","0.0-1.0-702.0","0","0","84950","","null","","","null","77","","","","","","","","","","","","","","","NaN",""
"","S1","","html-keyboard-response","477","441410","0.0-1.0-704.0","0","0","84950","","null","","","null","78","","","","","","","","","","","","","","","",""
"","ISI","","html-keyboard-response","478","441563","0.0-1.0-705.0","0","0","84950","","null","","","null","78","NaN","","","","","","","","","","","","","","",""
"","S2","","html-keyboard-response","479","441771","0.0-1.0-706.0","0","0","84950","","205","","","75","78","","k","2","78","training","adjacent","CB","3","2","N.jpg","P.jpg","0","0","1","",""
"","feedback","","html-keyboard-response","480","442780","0.0-1.0-708.0-0.0","0","0","84950","","null","","","null","78","","","","","","","","","","","","","","","",""
"","ITI","","html-keyboard-response","481","443788","0.0-1.0-711.0","0","0","84950","","null","","","null","78","","","","","","","","","","","","","","","NaN",""
"","S1","","html-keyboard-response","482","444045","0.0-1.0-713.0","0","0","84950","","null","","","null","79","","","","","","","","","","","","","","","",""
"","ISI","","html-keyboard-response","483","444205","0.0-1.0-714.0","0","0","84950","","null","","","null","79","NaN","","","","","","","","","","","","","","",""
"","S2","","html-keyboard-response","484","444437","0.0-1.0-715.0","0","0","84950","","229","","","68","79","","d","2","79","training","adjacent","DE","4","5","Q.jpg","R.jpg","1","1","1","",""
"","feedback","","html-keyboard-response","485","445451","0.0-1.0-717.0-0.0","0","0","84950","","null","","","null","79","","","","","","","","","","","","","","","",""
"","ITI","","html-keyboard-response","486","446461","0.0-1.0-720.0","0","0","84950","","null","","","null","79","","","","","","","","","","","","","","","NaN",""
"","S1","","html-keyboard-response","487","446716","0.0-1.0-722.0","0","0","84950","","null","","","null","80","","","","","","","","","","","","","","","",""
"","ISI","","html-keyboard-response","488","446876","0.0-1.0-723.0","0","0","84950","","null","","","null","80","NaN","","","","","","","","","","","","","","",""
"","S2","","html-keyboard-response","489","447132","0.0-1.0-724.0","0","0","84950","","null","","","null","80","","NaN","","","","","","","","","","","","","",""
"","response","","html-keyboard-response","490","447155","0.0-1.0-725.0-0.0","0","0","84950","","19","","","75","80","","","2","80","training","adjacent","GF","7","6","O.jpg","L.jpg","0","0","1","",""
"","feedback","","html-keyboard-response","491","448164","0.0-1.0-726.0-0.0","0","0","84950","","null","","","null","80","","","","","","","","","","","","","","","",""
"","ITI","","html-keyboard-response","492","449173","0.0-1.0-729.0","0","0","84950","","null","","","null","80","","","","","","","","","","","","","","","NaN",""
"","S1","","html-keyboard-response","493","449428","0.0-1.0-731.0","0","0","84950","","null","","","null","81","","","","","","","","","","","","","","","",""
"","ISI","","html-keyboard-response","494","449588","0.0-1.0-732.0","0","0","84950","","null","","","null","81","NaN","","","","","","","","","","","","","","",""
"","S2","","html-keyboard-response","495","449795","0.0-1.0-733.0","0","0","84950","","204","","","75","81","","k","2","81","training","adjacent","CD","3","4","N.jpg","Q.jpg","0","1","0","",""
"","feedback","","html-keyboard-response","496","450804","0.0-1.0-735.0-0.0","0","0","84950","","null","","","null","81","","","","","","","","","","","","","","","",""
"","time_out","","html-keyboard-response","497","452813","0.0-1.0-737.0-0.0","0","0","84950","","null","","","null","81","","","","","","","","","","","","","","","",""
"","ITI","","html-keyboard-response","498","453821","0.0-1.0-738.0","0","0","84950","","null","","","null","81","","","","","","","","","","","","","","","NaN",""
"","S1","","html-keyboard-response","499","454076","0.0-1.0-740.0","0","0","84950","","null","","","null","82","","","","","","","","","","","","","","","",""
"","ISI","","html-keyboard-response","500","454237","0.0-1.0-741.0","0","0","84950","","null","","","null","82","NaN","","","","","","","","","","","","","","",""
"","S2","","html-keyboard-response","501","454431","0.0-1.0-742.0","0","0","84950","","191","","","75","82","","k","2","82","training","adjacent","ED","5","4","R.jpg","Q.jpg","0","0","1","",""
"","feedback","","html-keyboard-response","502","455436","0.0-1.0-744.0-0.0","0","0","84950","","null","","","null","82","","","","","","","","","","","","","","","",""
"","ITI","","html-keyboard-response","503","456449","0.0-1.0-747.0","0","0","84950","","null","","","null","82","","","","","","","","","","","","","","","NaN",""
"","S1","","html-keyboard-response","504","456708","0.0-1.0-749.0","0","0","84950","","null","","","null","83","","","","","","","","","","","","","","","",""
"","ISI","","html-keyboard-response","505","456869","0.0-1.0-750.0","0","0","84950","","null","","","null","83","NaN","","","","","","","","","","","","","","",""
"","S2","","html-keyboard-response","506","457125","0.0-1.0-751.0","0","0","84950","","null","","","null","83","","NaN","","","","","","","","","","","","","",""
"","response","","html-keyboard-response","507","457137","0.0-1.0-752.0-0.0","0","0","84950","","8","","","68","83","","","2","83","training","adjacent","FE","6","5","L.jpg","R.jpg","1","0","0","",""
"","feedback","","html-keyboard-response","508","458148","0.0-1.0-753.0-0.0","0","0","84950","","null","","","null","83","","","","","","","","","","","","","","","",""
"","time_out","","html-keyboard-response","509","460157","0.0-1.0-755.0-0.0","0","0","84950","","null","","","null","83","","","","","","","","","","","","","","","",""
"","ITI","","html-keyboard-response","510","461164","0.0-1.0-756.0","0","0","84950","","null","","","null","83","","","","","","","","","","","","","","","NaN",""
"","S1","","html-keyboard-response","511","461420","0.0-1.0-758.0","0","0","84950","","null","","","null","84","","","","","","","","","","","","","","","",""
"","ISI","","html-keyboard-response","512","461580","0.0-1.0-759.0","0","0","84950","","null","","","null","84","NaN","","","","","","","","","","","","","","",""
"","S2","","html-keyboard-response","513","461709","0.0-1.0-760.0","0","0","84950","","126","","","75","84","","k","2","84","training","adjacent","DC","4","3","Q.jpg","N.jpg","0","0","1","",""
"","feedback","","html-keyboard-response","514","462716","0.0-1.0-762.0-0.0","0","0","84950","","null","","","null","84","","","","","","","","","","","","","","","",""
"","ITI","","html-keyboard-response","515","463731","0.0-1.0-765.0","0","0","84950","","null","","","null","84","","","","","","","","","","","","","","","NaN",""
"","S1","","html-keyboard-response","516","463988","0.0-1.0-767.0","0","0","84950","","null","","","null","85","","","","","","","","","","","","","","","",""
"","ISI","","html-keyboard-response","517","464148","0.0-1.0-768.0","0","0","84950","","null","","","null","85","NaN","","","","","","","","","","","","","","",""
"","S2","","html-keyboard-response","518","464404","0.0-1.0-769.0","0","0","84950","","null","","","null","85","","NaN","","","","","","","","","","","","","",""
"","response","","html-keyboard-response","519","464520","0.0-1.0-770.0-0.0","0","0","84950","","113","","","75","85","","","2","85","training","adjacent","CD","3","4","N.jpg","Q.jpg","0","1","0","",""
"","feedback","","html-keyboard-response","520","465525","0.0-1.0-771.0-0.0","0","0","84950","","null","","","null","85","","","","","","","","","","","","","","","",""
"","time_out","","html-keyboard-response","521","467533","0.0-1.0-773.0-0.0","0","0","84950","","null","","","null","85","","","","","","","","","","","","","","","",""
"","ITI","","html-keyboard-response","522","468540","0.0-1.0-774.0","0","0","84950","","null","","","null","85","","","","","","","","","","","","","","","NaN",""
"","S1","","html-keyboard-response","523","468796","0.0-1.0-776.0","0","0","84950","","null","","","null","86","","","","","","","","","","","","","","","",""
"","ISI","","html-keyboard-response","524","468956","0.0-1.0-777.0","0","0","84950","","null","","","null","86","NaN","","","","","","","","","","","","","","",""
"","S2","","html-keyboard-response","525","469171","0.0-1.0-778.0","0","0","84950","","211","","","75","86","","k","2","86","training","adjacent","FE","6","5","L.jpg","R.jpg","0","0","1","",""
"","feedback","","html-keyboard-response","526","470180","0.0-1.0-780.0-0.0","0","0","84950","","null","","","null","86","","","","","","","","","","","","","","","",""
"","ITI","","html-keyboard-response","527","471189","0.0-1.0-783.0","0","0","84950","","null","","","null","86","","","","","","","","","","","","","","","NaN",""
"","S1","","html-keyboard-response","528","471443","0.0-1.0-785.0","0","0","84950","","null","","","null","87","","","","","","","","","","","","","","","",""
"","ISI","","html-keyboard-response","529","471599","0.0-1.0-786.0","0","0","84950","","null","","","null","87","NaN","","","","","","","","","","","","","","",""
"","S2","","html-keyboard-response","530","471860","0.0-1.0-787.0","0","0","84950","","null","","","null","87","","NaN","","","","","","","","","","","","","",""
"","response","","html-keyboard-response","531","471902","0.0-1.0-788.0-0.0","0","0","84950","","40","","","68","87","","","2","87","training","adjacent","BA","2","1","P.jpg","M.jpg","1","0","0","",""
"","feedback","","html-keyboard-response","532","472908","0.0-1.0-789.0-0.0","0","0","84950","","null","","","null","87","","","","","","","","","","","","","","","",""
"","time_out","","html-keyboard-response","533","474916","0.0-1.0-791.0-0.0","0","0","84950","","null","","","null","87","","","","","","","","","","","","","","","",""
"","ITI","","html-keyboard-response","534","475924","0.0-1.0-792.0","0","0","84950","","null","","","null","87","","","","","","","","","","","","","","","NaN",""
"","S1","","html-keyboard-response","535","476180","0.0-1.0-794.0","0","0","84950","","null","","","null","88","","","","","","","","","","","","","","","",""
"","ISI","","html-keyboard-response","536","476341","0.0-1.0-795.0","0","0","84950","","null","","","null","88","NaN","","","","","","","","","","","","","","",""
"","S2","","html-keyboard-response","537","476598","0.0-1.0-796.0","0","0","84950","","null","","","null","88","","NaN","","","","","","","","","","","","","",""
"","response","","html-keyboard-response","538","476730","0.0-1.0-797.0-0.0","0","0","84950","","129","","","75","88","","","2","88","training","adjacent","ED","5","4","R.jpg","Q.jpg","0","0","1","",""
"","feedback","","html-keyboard-response","539","477741","0.0-1.0-798.0-0.0","0","0","84950","","null","","","null","88","","","","","","","","","","","","","","","",""
"","ITI","","html-keyboard-response","540","478749","0.0-1.0-801.0","0","0","84950","","null","","","null","88","","","","","","","","","","","","","","","NaN",""
"","S1","","html-keyboard-response","541","479005","0.0-1.0-803.0","0","0","84950","","null","","","null","89","","","","","","","","","","","","","","","",""
"","ISI","","html-keyboard-response","542","479164","0.0-1.0-804.0","0","0","84950","","null","","","null","89","NaN","","","","","","","","","","","","","","",""
"","S2","","html-keyboard-response","543","479420","0.0-1.0-805.0","0","0","84950","","null","","","null","89","","NaN","","","","","","","","","","","","","",""
"","response","","html-keyboard-response","544","479563","0.0-1.0-806.0-0.0","0","0","84950","","141","","","75","89","","","2","89","training","adjacent","GF","7","6","O.jpg","L.jpg","0","0","1","",""
"","feedback","","html-keyboard-response","545","480573","0.0-1.0-807.0-0.0","0","0","84950","","null","","","null","89","","","","","","","","","","","","","","","",""
"","ITI","","html-keyboard-response","546","481580","0.0-1.0-810.0","0","0","84950","","null","","","null","89","","","","","","","","","","","","","","","NaN",""
"","S1","","html-keyboard-response","547","481836","0.0-1.0-812.0","0","0","84950","","null","","","null","90","","","","","","","","","","","","","","","",""
"","ISI","","html-keyboard-response","548","481996","0.0-1.0-813.0","0","0","84950","","null","","","null","90","NaN","","","","","","","","","","","","","","",""
"","S2","","html-keyboard-response","549","482252","0.0-1.0-814.0","0","0","84950","","null","","","null","90","","NaN","","","","","","","","","","","","","",""
"","response","","html-keyboard-response","550","482298","0.0-1.0-815.0-0.0","0","0","84950","","43","","","75","90","","","2","90","training","adjacent","EF","5","6","R.jpg","L.jpg","0","1","0","",""
"","feedback","","html-keyboard-response","551","483309","0.0-1.0-816.0-0.0","0","0","84950","","null","","","null","90","","","","","","","","","","","","","","","",""
"","time_out","","html-keyboard-response","552","485316","0.0-1.0-818.0-0.0","0","0","84950","","null","","","null","90","","","","","","","","","","","","","","","",""
"","ITI","","html-keyboard-response","553","486324","0.0-1.0-819.0","0","0","84950","","null","","","null","90","","","","","","","","","","","","","","","NaN",""
"","S1","","html-keyboard-response","554","486580","0.0-1.0-821.0","0","0","84950","","null","","","null","91","","","","","","","","","","","","","","","",""
"","ISI","","html-keyboard-response","555","486740","0.0-1.0-822.0","0","0","84950","","null","","","null","91","NaN","","","","","","","","","","","","","","",""
"","S2","","html-keyboard-response","556","486904","0.0-1.0-823.0","0","0","84950","","160","","","75","91","","k","2","91","training","adjacent","EF","5","6","R.jpg","L.jpg","0","1","0","",""
"","feedback","","html-keyboard-response","557","487916","0.0-1.0-825.0-0.0","0","0","84950","","null","","","null","91","","","","","","","","","","","","","","","",""
"","time_out","","html-keyboard-response","558","489925","0.0-1.0-827.0-0.0","0","0","84950","","null","","","null","91","","","","","","","","","","","","","","","",""
"","ITI","","html-keyboard-response","559","490933","0.0-1.0-828.0","0","0","84950","","null","","","null","91","","","","","","","","","","","","","","","NaN",""
"","S1","","html-keyboard-response","560","491189","0.0-1.0-830.0","0","0","84950","","null","","","null","92","","","","","","","","","","","","","","","",""
"","ISI","","html-keyboard-response","561","491349","0.0-1.0-831.0","0","0","84950","","null","","","null","92","NaN","","","","","","","","","","","","","","",""
"","S2","","html-keyboard-response","562","491605","0.0-1.0-832.0","0","0","84950","","null","","","null","92","","NaN","","","","","","","","","","","","","",""
"","response","","html-keyboard-response","563","491761","0.0-1.0-833.0-0.0","0","0","84950","","153","","","68","92","","","2","92","training","adjacent","AB","1","2","M.jpg","P.jpg","1","1","1","",""
"","feedback","","html-keyboard-response","564","492774","0.0-1.0-834.0-0.0","0","0","84950","","null","","","null","92","","","","","","","","","","","","","","","",""
"","ITI","","html-keyboard-response","565","493780","0.0-1.0-837.0","0","0","84950","","null","","","null","92","","","","","","","","","","","","","","","NaN",""
"","S1","","html-keyboard-response","566","494037","0.0-1.0-839.0","0","0","84950","","null","","","null","93","","","","","","","","","","","","","","","",""
"","ISI","","html-keyboard-response","567","494196","0.0-1.0-840.0","0","0","84950","","null","","","null","93","NaN","","","","","","","","","","","","","","",""
"","S2","","html-keyboard-response","568","494407","0.0-1.0-841.0","0","0","84950","","208","","","75","93","","k","2","93","training","adjacent","BC","2","3","P.jpg","N.jpg","0","1","0","",""
"","feedback","","html-keyboard-response","569","495413","0.0-1.0-843.0-0.0","0","0","84950","","null","","","null","93","","","","","","","","","","","","","","","",""
"","time_out","","html-keyboard-response","570","497420","0.0-1.0-845.0-0.0","0","0","84950","","null","","","null","93","","","","","","","","","","","","","","","",""
"","ITI","","html-keyboard-response","571","498428","0.0-1.0-846.0","0","0","84950","","null","","","null","93","","","","","","","","","","","","","","","NaN",""
"","S1","","html-keyboard-response","572","498684","0.0-1.0-848.0","0","0","84950","","null","","","null","94","","","","","","","","","","","","","","","",""
"","ISI","","html-keyboard-response","573","498851","0.0-1.0-849.0","0","0","84950","","null","","","null","94","NaN","","","","","","","","","","","","","","",""
"","S2","","html-keyboard-response","574","499043","0.0-1.0-850.0","0","0","84950","","188","","","75","94","","k","2","94","training","adjacent","EF","5","6","R.jpg","L.jpg","0","1","0","",""
"","feedback","","html-keyboard-response","575","500054","0.0-1.0-852.0-0.0","0","0","84950","","null","","","null","94","","","","","","","","","","","","","","","",""
"","time_out","","html-keyboard-response","576","502061","0.0-1.0-854.0-0.0","0","0","84950","","null","","","null","94","","","","","","","","","","","","","","","",""
"","ITI","","html-keyboard-response","577","503068","0.0-1.0-855.0","0","0","84950","","null","","","null","94","","","","","","","","","","","","","","","NaN",""
"","S1","","html-keyboard-response","578","503324","0.0-1.0-857.0","0","0","84950","","null","","","null","95","","","","","","","","","","","","","","","",""
"","ISI","","html-keyboard-response","579","503484","0.0-1.0-858.0","0","0","84950","","null","","","null","95","NaN","","","","","","","","","","","","","","",""
"","S2","","html-keyboard-response","580","503741","0.0-1.0-859.0","0","0","84950","","null","","","null","95","","NaN","","","","","","","","","","","","","",""
"","response","","html-keyboard-response","581","503898","0.0-1.0-860.0-0.0","0","0","84950","","154","","","75","95","","","2","95","training","adjacent","BC","2","3","P.jpg","N.jpg","0","1","0","",""
"","feedback","","html-keyboard-response","582","504909","0.0-1.0-861.0-0.0","0","0","84950","","null","","","null","95","","","","","","","","","","","","","","","",""
"","time_out","","html-keyboard-response","583","506918","0.0-1.0-863.0-0.0","0","0","84950","","null","","","null","95","","","","","","","","","","","","","","","",""
