"success","ttype","start_time","trial_type","trial_index","time_elapsed","internal_node_id","warning","missed_checkup","PID","view_history","rt","responses","repeat_instructions","key_press","index","keypress_isi","keypress_S2","block","trial_num","phase","group_type","pair_type","S1_stim","S2_stim","S1_img","S2_img","S1_chosen","S1_higher","accuracy","keypress_iti","total_bonus_tally"
"true","full_screen","d04142023hr0417","fullscreen","0","15923","0.0-0.0","0","0","12053","","","","","","","","","","","","","","","","","","","","","",""
"","instructions","","instructions","1","52105","0.0-1.0-0.0-0.0","0","0","12053","[{""page_index"":0,""viewing_time"":6366},{""page_index"":1,""viewing_time"":12711},{""page_index"":2,""viewing_time"":14813},{""page_index"":3,""viewing_time"":2290}]","36180","","","","","","","","","","","","","","","","","","","",""
"","comprehension_check","","survey-multi-choice","2","106830","0.0-1.0-0.0-1.0","0","0","12053","","54721","{""Q0"":""True"",""Q1"":""D"",""Q2"":""Once the second image appears and while the screen 'MAKE A CHOICE' is shown"",""Q3"":""Green mark"",""Q4"":""either D or K""}","1","","","","","","","","","","","","","","","","","",""
"","missed_instruction_checkup","","html-keyboard-response","3","108609","0.0-1.0-0.0-2.0-0.0","0","1","12053","","1776","","","32","","","","","","","","","","","","","","","","",""
"","instructions","","instructions","4","112642","0.0-1.0-0.1-0.1","0","0","12053","[{""page_index"":0,""viewing_time"":1581},{""page_index"":1,""viewing_time"":888},{""page_index"":2,""viewing_time"":1008},{""page_index"":3,""viewing_time"":554}]","4031","","","","","","","","","","","","","","","","","","","",""
"","comprehension_check","","survey-multi-choice","5","122737","0.0-1.0-0.1-1.1","0","0","12053","","10092","{""Q0"":""False"",""Q1"":""D"",""Q2"":""Once the second image appears and while the screen 'MAKE A CHOICE' is shown"",""Q3"":""Green mark"",""Q4"":""either D or K""}","1","","","","","","","","","","","","","","","","","",""
"","missed_instruction_checkup","","html-keyboard-response","6","123834","0.0-1.0-0.1-2.1-0.1","0","1","12053","","1095","","","32","","","","","","","","","","","","","","","","",""
"","instructions","","instructions","7","137800","0.0-1.0-0.2-0.2","0","0","12053","[{""page_index"":0,""viewing_time"":1656},{""page_index"":1,""viewing_time"":7560},{""page_index"":2,""viewing_time"":4022},{""page_index"":3,""viewing_time"":727}]","13965","","","","","","","","","","","","","","","","","","","",""
"","comprehension_check","","survey-multi-choice","8","175054","0.0-1.0-0.2-1.2","0","0","12053","","37251","{""Q0"":""True"",""Q1"":""D"",""Q2"":""Once the second image appears and while the screen 'MAKE A CHOICE' is shown"",""Q3"":""Green mark"",""Q4"":""either D or K""}","1","","","","","","","","","","","","","","","","","",""
"","missed_instruction_checkup","","html-keyboard-response","9","176639","0.0-1.0-0.2-2.2-0.2","0","1","12053","","1584","","","32","","","","","","","","","","","","","","","","",""
"","instructions","","instructions","10","193659","0.0-1.0-0.3-0.3","0","0","12053","[{""page_index"":0,""viewing_time"":3042},{""page_index"":1,""viewing_time"":12302},{""page_index"":2,""viewing_time"":735},{""page_index"":3,""viewing_time"":939}]","17018","","","","","","","","","","","","","","","","","","","",""
"","comprehension_check","","survey-multi-choice","11","204583","0.0-1.0-0.3-1.3","0","0","12053","","10921","{""Q0"":""True"",""Q1"":""K"",""Q2"":""Once the second image appears and while the screen 'MAKE A CHOICE' is shown"",""Q3"":""Green mark"",""Q4"":""either D or K""}","0","","","","","","","","","","","","","","","","","",""
"","start_exp","","html-keyboard-response","12","207171","0.0-1.0-1.0","0","0","12053","","2586","","","32","","","","","","","","","","","","","","","","",""
"","S1","","html-keyboard-response","13","207423","0.0-1.0-2.0","0","0","12053","","null","","","null","0","","","","","","","","","","","","","","","",""
"","ISI","","html-keyboard-response","14","208426","0.0-1.0-3.0","0","0","12053","","null","","","null","0","NaN","","","","","","","","","","","","","","",""
"","S2","","html-keyboard-response","15","208678","0.0-1.0-4.0","0","0","12053","","null","","","null","0","","NaN","","","","","","","","","","","","","",""
"","response","","html-keyboard-response","16","209178","0.0-1.0-5.0-0.0","0","0","12053","","498","","","75","0","","","1","0","training","adjacent","BA","2","1","M.jpg","P.jpg","1","0","0","",""
"","feedback","","html-keyboard-response","17","210180","0.0-1.0-6.0-0.0","0","0","12053","","null","","","null","0","","","","","","","","","","","","","","","",""
"","time_out","","html-keyboard-response","18","212182","0.0-1.0-8.0-0.0","0","0","12053","","null","","","null","0","","","","","","","","","","","","","","","",""
"","ITI","","html-keyboard-response","19","213185","0.0-1.0-9.0","0","0","12053","","null","","","null","0","","","","","","","","","","","","","","","NaN",""
"","S1","","html-keyboard-response","20","213437","0.0-1.0-11.0","0","0","12053","","null","","","null","1","","","","","","","","","","","","","","","",""
"","ISI","","html-keyboard-response","21","214439","0.0-1.0-12.0","0","0","12053","","null","","","null","1","NaN","","","","","","","","","","","","","","",""
"","S2","","html-keyboard-response","22","214692","0.0-1.0-13.0","0","0","12053","","null","","","null","1","","NaN","","","","","","","","","","","","","",""
"","response","","html-keyboard-response","23","215579","0.0-1.0-14.0-0.0","0","0","12053","","885","","","68","1","","","1","1","training","adjacent","AB","1","2","P.jpg","M.jpg","0","1","0","",""
"","feedback","","html-keyboard-response","24","216582","0.0-1.0-15.0-0.0","0","0","12053","","null","","","null","1","","","","","","","","","","","","","","","",""
"","time_out","","html-keyboard-response","25","218583","0.0-1.0-17.0-0.0","0","0","12053","","null","","","null","1","","","","","","","","","","","","","","","",""
"","ITI","","html-keyboard-response","26","219585","0.0-1.0-18.0","0","0","12053","","null","","","null","1","","","","","","","","","","","","","","","NaN",""
"","S1","","html-keyboard-response","27","219838","0.0-1.0-20.0","0","0","12053","","null","","","null","2","","","","","","","","","","","","","","","",""
"","ISI","","html-keyboard-response","28","220841","0.0-1.0-21.0","0","0","12053","","null","","","null","2","NaN","","","","","","","","","","","","","","",""
"","S2","","html-keyboard-response","29","221094","0.0-1.0-22.0","0","0","12053","","null","","","null","2","","NaN","","","","","","","","","","","","","",""
"","response","","html-keyboard-response","30","222012","0.0-1.0-23.0-0.0","0","0","12053","","917","","","75","2","","","1","2","training","adjacent","CD","3","4","Q.jpg","O.jpg","1","1","1","",""
"","feedback","","html-keyboard-response","31","223013","0.0-1.0-24.0-0.0","0","0","12053","","null","","","null","2","","","","","","","","","","","","","","","",""
"","ITI","","html-keyboard-response","32","224016","0.0-1.0-27.0","0","0","12053","","null","","","null","2","","","","","","","","","","","","","","","NaN",""
"","S1","","html-keyboard-response","33","224269","0.0-1.0-29.0","0","0","12053","","null","","","null","3","","","","","","","","","","","","","","","",""
"","ISI","","html-keyboard-response","34","225271","0.0-1.0-30.0","0","0","12053","","null","","","null","3","NaN","","","","","","","","","","","","","","",""
"","S2","","html-keyboard-response","35","225524","0.0-1.0-31.0","0","0","12053","","null","","","null","3","","NaN","","","","","","","","","","","","","",""
"","response","","html-keyboard-response","36","226012","0.0-1.0-32.0-0.0","0","0","12053","","487","","","75","3","","","1","3","training","adjacent","EF","5","6","L.jpg","R.jpg","1","1","1","",""
"","feedback","","html-keyboard-response","37","227016","0.0-1.0-33.0-0.0","0","0","12053","","null","","","null","3","","","","","","","","","","","","","","","",""
"","ITI","","html-keyboard-response","38","228018","0.0-1.0-36.0","0","0","12053","","null","","","null","3","","","","","","","","","","","","","","","NaN",""
"","S1","","html-keyboard-response","39","228270","0.0-1.0-38.0","0","0","12053","","null","","","null","4","","","","","","","","","","","","","","","",""
"","ISI","","html-keyboard-response","40","229272","0.0-1.0-39.0","0","0","12053","","null","","","null","4","NaN","","","","","","","","","","","","","","",""
"","S2","","html-keyboard-response","41","229525","0.0-1.0-40.0","0","0","12053","","null","","","null","4","","NaN","","","","","","","","","","","","","",""
"","response","","html-keyboard-response","42","230365","0.0-1.0-41.0-0.0","0","0","12053","","839","","","75","4","","","1","4","training","adjacent","GF","7","6","N.jpg","R.jpg","1","0","0","",""
"","feedback","","html-keyboard-response","43","231367","0.0-1.0-42.0-0.0","0","0","12053","","null","","","null","4","","","","","","","","","","","","","","","",""
"","time_out","","html-keyboard-response","44","233368","0.0-1.0-44.0-0.0","0","0","12053","","null","","","null","4","","","","","","","","","","","","","","","",""
"","ITI","","html-keyboard-response","45","234371","0.0-1.0-45.0","0","0","12053","","null","","","null","4","","","","","","","","","","","","","","","NaN",""
"","S1","","html-keyboard-response","46","234623","0.0-1.0-47.0","0","0","12053","","null","","","null","5","","","","","","","","","","","","","","","",""
"","ISI","","html-keyboard-response","47","235625","0.0-1.0-48.0","0","0","12053","","null","","","null","5","NaN","","","","","","","","","","","","","","",""
"","S2","","html-keyboard-response","48","235878","0.0-1.0-49.0","0","0","12053","","null","","","null","5","","NaN","","","","","","","","","","","","","",""
"","response","","html-keyboard-response","49","237142","0.0-1.0-50.0-0.0","0","0","12053","","1263","","","75","5","","","1","5","training","adjacent","DC","4","3","O.jpg","Q.jpg","1","0","0","",""
"","feedback","","html-keyboard-response","50","238144","0.0-1.0-51.0-0.0","0","0","12053","","null","","","null","5","","","","","","","","","","","","","","","",""
"","time_out","","html-keyboard-response","51","240146","0.0-1.0-53.0-0.0","0","0","12053","","null","","","null","5","","","","","","","","","","","","","","","",""
"","ITI","","html-keyboard-response","52","241148","0.0-1.0-54.0","0","0","12053","","null","","","null","5","","","","","","","","","","","","","","","NaN",""
"","S1","","html-keyboard-response","53","241401","0.0-1.0-56.0","0","0","12053","","null","","","null","6","","","","","","","","","","","","","","","",""
"","ISI","","html-keyboard-response","54","242402","0.0-1.0-57.0","0","0","12053","","null","","","null","6","NaN","","","","","","","","","","","","","","",""
"","S2","","html-keyboard-response","55","242654","0.0-1.0-58.0","0","0","12053","","null","","","null","6","","NaN","","","","","","","","","","","","","",""
"","response","","html-keyboard-response","56","243982","0.0-1.0-59.0-0.0","0","0","12053","","1327","","","68","6","","","1","6","training","adjacent","BA","2","1","M.jpg","P.jpg","0","0","1","",""
"","feedback","","html-keyboard-response","57","244984","0.0-1.0-60.0-0.0","0","0","12053","","null","","","null","6","","","","","","","","","","","","","","","",""
"","ITI","","html-keyboard-response","58","245986","0.0-1.0-63.0","0","0","12053","","null","","","null","6","","","","","","","","","","","","","","","NaN",""
"","S1","","html-keyboard-response","59","246239","0.0-1.0-65.0","0","0","12053","","null","","","null","7","","","","","","","","","","","","","","","",""
"","ISI","","html-keyboard-response","60","247242","0.0-1.0-66.0","0","0","12053","","null","","","null","7","NaN","","","","","","","","","","","","","","",""
"","S2","","html-keyboard-response","61","247494","0.0-1.0-67.0","0","0","12053","","null","","","null","7","","NaN","","","","","","","","","","","","","",""
"","response","","html-keyboard-response","62","248519","0.0-1.0-68.0-0.0","0","0","12053","","1024","","","75","7","","","1","7","training","adjacent","FE","6","5","R.jpg","L.jpg","1","0","0","",""
"","feedback","","html-keyboard-response","63","249521","0.0-1.0-69.0-0.0","0","0","12053","","null","","","null","7","","","","","","","","","","","","","","","",""
"","time_out","","html-keyboard-response","64","251524","0.0-1.0-71.0-0.0","0","0","12053","","null","","","null","7","","","","","","","","","","","","","","","",""
"","ITI","","html-keyboard-response","65","252525","0.0-1.0-72.0","0","0","12053","","null","","","null","7","","","","","","","","","","","","","","","NaN",""
"","S1","","html-keyboard-response","66","252778","0.0-1.0-74.0","0","0","12053","","null","","","null","8","","","","","","","","","","","","","","","",""
"","ISI","","html-keyboard-response","67","253781","0.0-1.0-75.0","0","0","12053","","null","","","null","8","NaN","","","","","","","","","","","","","","",""
"","S2","","html-keyboard-response","68","254034","0.0-1.0-76.0","0","0","12053","","null","","","null","8","","NaN","","","","","","","","","","","","","",""
"","response","","html-keyboard-response","69","254543","0.0-1.0-77.0-0.0","0","0","12053","","508","","","75","8","","","1","8","training","adjacent","DE","4","5","O.jpg","L.jpg","1","1","1","",""
"","feedback","","html-keyboard-response","70","255544","0.0-1.0-78.0-0.0","0","0","12053","","null","","","null","8","","","","","","","","","","","","","","","",""
"","ITI","","html-keyboard-response","71","256546","0.0-1.0-81.0","0","0","12053","","null","","","null","8","","","","","","","","","","","","","","","NaN",""
"","S1","","html-keyboard-response","72","256799","0.0-1.0-83.0","0","0","12053","","null","","","null","9","","","","","","","","","","","","","","","",""
"","ISI","","html-keyboard-response","73","257802","0.0-1.0-84.0","0","0","12053","","null","","","null","9","NaN","","","","","","","","","","","","","","",""
"","S2","","html-keyboard-response","74","258054","0.0-1.0-85.0","0","0","12053","","null","","","null","9","","NaN","","","","","","","","","","","","","",""
"","response","","html-keyboard-response","75","259168","0.0-1.0-86.0-0.0","0","0","12053","","1113","","","68","9","","","1","9","training","adjacent","BC","2","3","M.jpg","Q.jpg","0","1","0","",""
"","feedback","","html-keyboard-response","76","260170","0.0-1.0-87.0-0.0","0","0","12053","","null","","","null","9","","","","","","","","","","","","","","","",""
"","time_out","","html-keyboard-response","77","262172","0.0-1.0-89.0-0.0","0","0","12053","","null","","","null","9","","","","","","","","","","","","","","","",""
"","ITI","","html-keyboard-response","78","263174","0.0-1.0-90.0","0","0","12053","","null","","","null","9","","","","","","","","","","","","","","","NaN",""
"","S1","","html-keyboard-response","79","263426","0.0-1.0-92.0","0","0","12053","","null","","","null","10","","","","","","","","","","","","","","","",""
"","ISI","","html-keyboard-response","80","264428","0.0-1.0-93.0","0","0","12053","","null","","","null","10","NaN","","","","","","","","","","","","","","",""
"","S2","","html-keyboard-response","81","264681","0.0-1.0-94.0","0","0","12053","","null","","","null","10","","NaN","","","","","","","","","","","","","",""
"","response","","html-keyboard-response","82","266072","0.0-1.0-95.0-0.0","0","0","12053","","1390","","","68","10","","","1","10","training","adjacent","EF","5","6","L.jpg","R.jpg","0","1","0","",""
"","feedback","","html-keyboard-response","83","267088","0.0-1.0-96.0-0.0","0","0","12053","","null","","","null","10","","","","","","","","","","","","","","","",""
"","time_out","","html-keyboard-response","84","269090","0.0-1.0-98.0-0.0","0","0","12053","","null","","","null","10","","","","","","","","","","","","","","","",""
"","ITI","","html-keyboard-response","85","270092","0.0-1.0-99.0","0","0","12053","","null","","","null","10","","","","","","","","","","","","","","","NaN",""
"","S1","","html-keyboard-response","86","270345","0.0-1.0-101.0","0","0","12053","","null","","","null","11","","","","","","","","","","","","","","","",""
"","ISI","","html-keyboard-response","87","271348","0.0-1.0-102.0","0","0","12053","","null","","","null","11","NaN","","","","","","","","","","","","","","",""
"","S2","","html-keyboard-response","88","271600","0.0-1.0-103.0","0","0","12053","","null","","","null","11","","NaN","","","","","","","","","","","","","",""
"","response","","html-keyboard-response","89","272641","0.0-1.0-104.0-0.0","0","0","12053","","1040","","","75","11","","","1","11","training","adjacent","CB","3","2","Q.jpg","M.jpg","1","0","0","",""
"","feedback","","html-keyboard-response","90","273643","0.0-1.0-105.0-0.0","0","0","12053","","null","","","null","11","","","","","","","","","","","","","","","",""
"","time_out","","html-keyboard-response","91","275645","0.0-1.0-107.0-0.0","0","0","12053","","null","","","null","11","","","","","","","","","","","","","","","",""
"","ITI","","html-keyboard-response","92","276648","0.0-1.0-108.0","0","0","12053","","null","","","null","11","","","","","","","","","","","","","","","NaN",""
"","S1","","html-keyboard-response","93","276900","0.0-1.0-110.0","0","0","12053","","null","","","null","12","","","","","","","","","","","","","","","",""
"","ISI","","html-keyboard-response","94","277902","0.0-1.0-111.0","0","0","12053","","null","","","null","12","NaN","","","","","","","","","","","","","","",""
"","S2","","html-keyboard-response","95","278154","0.0-1.0-112.0","0","0","12053","","null","","","null","12","","NaN","","","","","","","","","","","","","",""
"","response","","html-keyboard-response","96","279258","0.0-1.0-113.0-0.0","0","0","12053","","1102","","","68","12","","","1","12","training","adjacent","FG","6","7","R.jpg","N.jpg","0","1","0","",""
"","feedback","","html-keyboard-response","97","280259","0.0-1.0-114.0-0.0","0","0","12053","","null","","","null","12","","","","","","","","","","","","","","","",""
"","time_out","","html-keyboard-response","98","282261","0.0-1.0-116.0-0.0","0","0","12053","","null","","","null","12","","","","","","","","","","","","","","","",""
"","ITI","","html-keyboard-response","99","283263","0.0-1.0-117.0","0","0","12053","","null","","","null","12","","","","","","","","","","","","","","","NaN",""
"","S1","","html-keyboard-response","100","283516","0.0-1.0-119.0","0","0","12053","","null","","","null","13","","","","","","","","","","","","","","","",""
"","ISI","","html-keyboard-response","101","284518","0.0-1.0-120.0","0","0","12053","","null","","","null","13","NaN","","","","","","","","","","","","","","",""
"","S2","","html-keyboard-response","102","284770","0.0-1.0-121.0","0","0","12053","","null","","","null","13","","NaN","","","","","","","","","","","","","",""
"","response","","html-keyboard-response","103","286139","0.0-1.0-122.0-0.0","0","0","12053","","1367","","","75","13","","","1","13","training","adjacent","DC","4","3","O.jpg","Q.jpg","1","0","0","",""
"","feedback","","html-keyboard-response","104","287141","0.0-1.0-123.0-0.0","0","0","12053","","null","","","null","13","","","","","","","","","","","","","","","",""
"","time_out","","html-keyboard-response","105","289143","0.0-1.0-125.0-0.0","0","0","12053","","null","","","null","13","","","","","","","","","","","","","","","",""
"","ITI","","html-keyboard-response","106","290145","0.0-1.0-126.0","0","0","12053","","null","","","null","13","","","","","","","","","","","","","","","NaN",""
"","S1","","html-keyboard-response","107","290398","0.0-1.0-128.0","0","0","12053","","null","","","null","14","","","","","","","","","","","","","","","",""
"","ISI","","html-keyboard-response","108","291400","0.0-1.0-129.0","0","0","12053","","null","","","null","14","NaN","","","","","","","","","","","","","","",""
"","S2","","html-keyboard-response","109","291652","0.0-1.0-130.0","0","0","12053","","null","","","null","14","","NaN","","","","","","","","","","","","","",""
"","response","","html-keyboard-response","110","292612","0.0-1.0-131.0-0.0","0","0","12053","","958","","","68","14","","","1","14","training","adjacent","FE","6","5","R.jpg","L.jpg","0","0","1","",""
"","feedback","","html-keyboard-response","111","293614","0.0-1.0-132.0-0.0","0","0","12053","","null","","","null","14","","","","","","","","","","","","","","","",""
"","ITI","","html-keyboard-response","112","294616","0.0-1.0-135.0","0","0","12053","","null","","","null","14","","","","","","","","","","","","","","","NaN",""
"","S1","","html-keyboard-response","113","294869","0.0-1.0-137.0","0","0","12053","","null","","","null","15","","","","","","","","","","","","","","","",""
"","ISI","","html-keyboard-response","114","295870","0.0-1.0-138.0","0","0","12053","","null","","","null","15","NaN","","","","","","","","","","","","","","",""
"","S2","","html-keyboard-response","115","296125","0.0-1.0-139.0","0","0","12053","","null","","","null","15","","NaN","","","","","","","","","","","","","",""
"","response","","html-keyboard-response","116","297460","0.0-1.0-140.0-0.0","0","0","12053","","1333","","","68","15","","","1","15","training","adjacent","AB","1","2","P.jpg","M.jpg","0","1","0","",""
"","feedback","","html-keyboard-response","117","298462","0.0-1.0-141.0-0.0","0","0","12053","","null","","","null","15","","","","","","","","","","","","","","","",""
"","time_out","","html-keyboard-response","118","300464","0.0-1.0-143.0-0.0","0","0","12053","","null","","","null","15","","","","","","","","","","","","","","","",""
"","ITI","","html-keyboard-response","119","301466","0.0-1.0-144.0","0","0","12053","","null","","","null","15","","","","","","","","","","","","","","","NaN",""
"","S1","","html-keyboard-response","120","301718","0.0-1.0-146.0","0","0","12053","","null","","","null","16","","","","","","","","","","","","","","","",""
"","ISI","","html-keyboard-response","121","302720","0.0-1.0-147.0","0","0","12053","","null","","","null","16","NaN","","","","","","","","","","","","","","",""
"","S2","","html-keyboard-response","122","302973","0.0-1.0-148.0","0","0","12053","","null","","","null","16","","NaN","","","","","","","","","","","","","",""
"","response","","html-keyboard-response","123","304029","0.0-1.0-149.0-0.0","0","0","12053","","1055","","","75","16","","","1","16","training","adjacent","DC","4","3","O.jpg","Q.jpg","1","0","0","",""
"","feedback","","html-keyboard-response","124","305031","0.0-1.0-150.0-0.0","0","0","12053","","null","","","null","16","","","","","","","","","","","","","","","",""
"","time_out","","html-keyboard-response","125","307033","0.0-1.0-152.0-0.0","0","0","12053","","null","","","null","16","","","","","","","","","","","","","","","",""
"","ITI","","html-keyboard-response","126","308034","0.0-1.0-153.0","0","0","12053","","null","","","null","16","","","","","","","","","","","","","","","NaN",""
"","S1","","html-keyboard-response","127","308287","0.0-1.0-155.0","0","0","12053","","null","","","null","17","","","","","","","","","","","","","","","",""
"","ISI","","html-keyboard-response","128","309289","0.0-1.0-156.0","0","0","12053","","null","","","null","17","NaN","","","","","","","","","","","","","","",""
"","S2","","html-keyboard-response","129","309540","0.0-1.0-157.0","0","0","12053","","null","","","null","17","","NaN","","","","","","","","","","","","","",""
"","response","","html-keyboard-response","130","310445","0.0-1.0-158.0-0.0","0","0","12053","","903","","","68","17","","","1","17","training","adjacent","DC","4","3","O.jpg","Q.jpg","0","0","1","",""
"","feedback","","html-keyboard-response","131","311447","0.0-1.0-159.0-0.0","0","0","12053","","null","","","null","17","","","","","","","","","","","","","","","",""
"","ITI","","html-keyboard-response","132","312450","0.0-1.0-162.0","0","0","12053","","null","","","null","17","","","","","","","","","","","","","","","NaN",""
"","S1","","html-keyboard-response","133","312711","0.0-1.0-164.0","0","0","12053","","null","","","null","18","","","","","","","","","","","","","","","",""
"","ISI","","html-keyboard-response","134","313714","0.0-1.0-165.0","0","0","12053","","null","","","null","18","NaN","","","","","","","","","","","","","","",""
"","S2","","html-keyboard-response","135","313966","0.0-1.0-166.0","0","0","12053","","null","","","null","18","","NaN","","","","","","","","","","","","","",""
"","response","","html-keyboard-response","136","315222","0.0-1.0-167.0-0.0","0","0","12053","","1254","","","68","18","","","1","18","training","adjacent","ED","5","4","L.jpg","O.jpg","0","0","1","",""
"","feedback","","html-keyboard-response","137","316224","0.0-1.0-168.0-0.0","0","0","12053","","null","","","null","18","","","","","","","","","","","","","","","",""
"","ITI","","html-keyboard-response","138","317226","0.0-1.0-171.0","0","0","12053","","null","","","null","18","","","","","","","","","","","","","","","NaN",""
"","S1","","html-keyboard-response","139","317478","0.0-1.0-173.0","0","0","12053","","null","","","null","19","","","","","","","","","","","","","","","",""
"","ISI","","html-keyboard-response","140","318480","0.0-1.0-174.0","0","0","12053","","null","","","null","19","NaN","","","","","","","","","","","","","","",""
"","S2","","html-keyboard-response","141","318732","0.0-1.0-175.0","0","0","12053","","null","","","null","19","","NaN","","","","","","","","","","","","","",""
"","response","","html-keyboard-response","142","319782","0.0-1.0-176.0-0.0","0","0","12053","","1048","","","68","19","","","1","19","training","adjacent","BC","2","3","M.jpg","Q.jpg","0","1","0","",""
"","feedback","","html-keyboard-response","143","320784","0.0-1.0-177.0-0.0","0","0","12053","","null","","","null","19","","","","","","","","","","","","","","","",""
"","time_out","","html-keyboard-response","144","322786","0.0-1.0-179.0-0.0","0","0","12053","","null","","","null","19","","","","","","","","","","","","","","","",""
"","ITI","","html-keyboard-response","145","323788","0.0-1.0-180.0","0","0","12053","","null","","","null","19","","","","","","","","","","","","","","","NaN",""
"","S1","","html-keyboard-response","146","324040","0.0-1.0-182.0","0","0","12053","","null","","","null","20","","","","","","","","","","","","","","","",""
"","ISI","","html-keyboard-response","147","325043","0.0-1.0-183.0","0","0","12053","","null","","","null","20","NaN","","","","","","","","","","","","","","",""
"","S2","","html-keyboard-response","148","325295","0.0-1.0-184.0","0","0","12053","","null","","","null","20","","NaN","","","","","","","","","","","","","",""
"","response","","html-keyboard-response","149","327023","0.0-1.0-185.0-0.0","0","0","12053","","1727","","","68","20","","","1","20","training","adjacent","EF","5","6","L.jpg","R.jpg","0","1","0","",""
"","feedback","","html-keyboard-response","150","328024","0.0-1.0-186.0-0.0","0","0","12053","","null","","","null","20","","","","","","","","","","","","","","","",""
"","time_out","","html-keyboard-response","151","330026","0.0-1.0-188.0-0.0","0","0","12053","","null","","","null","20","","","","","","","","","","","","","","","",""
"","ITI","","html-keyboard-response","152","331028","0.0-1.0-189.0","0","0","12053","","null","","","null","20","","","","","","","","","","","","","","","NaN",""
"","S1","","html-keyboard-response","153","331280","0.0-1.0-191.0","0","0","12053","","null","","","null","21","","","","","","","","","","","","","","","",""
"","ISI","","html-keyboard-response","154","332283","0.0-1.0-192.0","0","0","12053","","null","","","null","21","NaN","","","","","","","","","","","","","","",""
"","S2","","html-keyboard-response","155","332535","0.0-1.0-193.0","0","0","12053","","null","","","null","21","","NaN","","","","","","","","","","","","","",""
"","response","","html-keyboard-response","156","333319","0.0-1.0-194.0-0.0","0","0","12053","","783","","","75","21","","","1","21","training","adjacent","BA","2","1","M.jpg","P.jpg","1","0","0","",""
"","feedback","","html-keyboard-response","157","334322","0.0-1.0-195.0-0.0","0","0","12053","","null","","","null","21","","","","","","","","","","","","","","","",""
"","time_out","","html-keyboard-response","158","336325","0.0-1.0-197.0-0.0","0","0","12053","","null","","","null","21","","","","","","","","","","","","","","","",""
"","ITI","","html-keyboard-response","159","337327","0.0-1.0-198.0","0","0","12053","","null","","","null","21","","","","","","","","","","","","","","","NaN",""
"","S1","","html-keyboard-response","160","337579","0.0-1.0-200.0","0","0","12053","","null","","","null","22","","","","","","","","","","","","","","","",""
"","ISI","","html-keyboard-response","161","338581","0.0-1.0-201.0","0","0","12053","","null","","","null","22","NaN","","","","","","","","","","","","","","",""
"","S2","","html-keyboard-response","162","338833","0.0-1.0-202.0","0","0","12053","","null","","","null","22","","NaN","","","","","","","","","","","","","",""
"","response","","html-keyboard-response","163","340128","0.0-1.0-203.0-0.0","0","0","12053","","1293","","","75","22","","","1","22","training","adjacent","FG","6","7","R.jpg","N.jpg","1","1","1","",""
"","feedback","","html-keyboard-response","164","341130","0.0-1.0-204.0-0.0","0","0","12053","","null","","","null","22","","","","","","","","","","","","","","","",""
"","ITI","","html-keyboard-response","165","342133","0.0-1.0-207.0","0","0","12053","","null","","","null","22","","","","","","","","","","","","","","","NaN",""
"","S1","","html-keyboard-response","166","342399","0.0-1.0-209.0","0","0","12053","","null","","","null","23","","","","","","","","","","","","","","","",""
"","ISI","","html-keyboard-response","167","343401","0.0-1.0-210.0","0","0","12053","","null","","","null","23","NaN","","","","","","","","","","","","","","",""
"","S2","","html-keyboard-response","168","343654","0.0-1.0-211.0","0","0","12053","","null","","","null","23","","NaN","","","","","","","","","","","","","",""
"","response","","html-keyboard-response","169","344432","0.0-1.0-212.0-0.0","0","0","12053","","778","","","75","23","","","1","23","training","adjacent","CD","3","4","Q.jpg","O.jpg","1","1","1","",""
"","feedback","","html-keyboard-response","170","345434","0.0-1.0-213.0-0.0","0","0","12053","","null","","","null","23","","","","","","","","","","","","","","","",""
"","ITI","","html-keyboard-response","171","346436","0.0-1.0-216.0","0","0","12053","","null","","","null","23","","","","","","","","","","","","","","","NaN",""
"","S1","","html-keyboard-response","172","346688","0.0-1.0-218.0","0","0","12053","","null","","","null","24","","","","","","","","","","","","","","","",""
"","ISI","","html-keyboard-response","173","347690","0.0-1.0-219.0","0","0","12053","","null","","","null","24","NaN","","","","","","","","","","","","","","",""
"","S2","","html-keyboard-response","174","347942","0.0-1.0-220.0","0","0","12053","","null","","","null","24","","NaN","","","","","","","","","","","","","",""
"","response","","html-keyboard-response","175","348825","0.0-1.0-221.0-0.0","0","0","12053","","881","","","75","24","","","1","24","training","adjacent","CB","3","2","Q.jpg","M.jpg","1","0","0","",""
"","feedback","","html-keyboard-response","176","349827","0.0-1.0-222.0-0.0","0","0","12053","","null","","","null","24","","","","","","","","","","","","","","","",""
"","time_out","","html-keyboard-response","177","351830","0.0-1.0-224.0-0.0","0","0","12053","","null","","","null","24","","","","","","","","","","","","","","","",""
"","ITI","","html-keyboard-response","178","352832","0.0-1.0-225.0","0","0","12053","","null","","","null","24","","","","","","","","","","","","","","","NaN",""
"","S1","","html-keyboard-response","179","353084","0.0-1.0-227.0","0","0","12053","","null","","","null","25","","","","","","","","","","","","","","","",""
"","ISI","","html-keyboard-response","180","354086","0.0-1.0-228.0","0","0","12053","","null","","","null","25","NaN","","","","","","","","","","","","","","",""
"","S2","","html-keyboard-response","181","354339","0.0-1.0-229.0","0","0","12053","","null","","","null","25","","NaN","","","","","","","","","","","","","",""
"","response","","html-keyboard-response","182","355850","0.0-1.0-230.0-0.0","0","0","12053","","1510","","","75","25","","","1","25","training","adjacent","FE","6","5","R.jpg","L.jpg","1","0","0","",""
"","feedback","","html-keyboard-response","183","356852","0.0-1.0-231.0-0.0","0","0","12053","","null","","","null","25","","","","","","","","","","","","","","","",""
"","time_out","","html-keyboard-response","184","358854","0.0-1.0-233.0-0.0","0","0","12053","","null","","","null","25","","","","","","","","","","","","","","","",""
"","ITI","","html-keyboard-response","185","359856","0.0-1.0-234.0","0","0","12053","","null","","","null","25","","","","","","","","","","","","","","","NaN",""
"","S1","","html-keyboard-response","186","360108","0.0-1.0-236.0","0","0","12053","","null","","","null","26","","","","","","","","","","","","","","","",""
"","ISI","","html-keyboard-response","187","361109","0.0-1.0-237.0","0","0","12053","","null","","","null","26","NaN","","","","","","","","","","","","","","",""
"","S2","","html-keyboard-response","188","361361","0.0-1.0-238.0","0","0","12053","","null","","","null","26","","NaN","","","","","","","","","","","","","",""
"","response","","html-keyboard-response","189","361898","0.0-1.0-239.0-0.0","0","0","12053","","536","","","75","26","","","1","26","training","adjacent","BC","2","3","M.jpg","Q.jpg","1","1","1","",""
"","feedback","","html-keyboard-response","190","362900","0.0-1.0-240.0-0.0","0","0","12053","","null","","","null","26","","","","","","","","","","","","","","","",""
"","ITI","","html-keyboard-response","191","363902","0.0-1.0-243.0","0","0","12053","","null","","","null","26","","","","","","","","","","","","","","","NaN",""
"","S1","","html-keyboard-response","192","364154","0.0-1.0-245.0","0","0","12053","","null","","","null","27","","","","","","","","","","","","","","","",""
"","ISI","","html-keyboard-response","193","365155","0.0-1.0-246.0","0","0","12053","","null","","","null","27","NaN","","","","","","","","","","","","","","",""
"","S2","","html-keyboard-response","194","365408","0.0-1.0-247.0","0","0","12053","","null","","","null","27","","NaN","","","","","","","","","","","","","",""
"","response","","html-keyboard-response","195","365931","0.0-1.0-248.0-0.0","0","0","12053","","522","","","75","27","","","1","27","training","adjacent","FG","6","7","R.jpg","N.jpg","1","1","1","",""
"","feedback","","html-keyboard-response","196","366932","0.0-1.0-249.0-0.0","0","0","12053","","null","","","null","27","","","","","","","","","","","","","","","",""
"","ITI","","html-keyboard-response","197","367935","0.0-1.0-252.0","0","0","12053","","null","","","null","27","","","","","","","","","","","","","","","NaN",""
"","S1","","html-keyboard-response","198","368187","0.0-1.0-254.0","0","0","12053","","null","","","null","28","","","","","","","","","","","","","","","",""
"","ISI","","html-keyboard-response","199","369189","0.0-1.0-255.0","0","0","12053","","null","","","null","28","NaN","","","","","","","","","","","","","","",""
"","S2","","html-keyboard-response","200","369442","0.0-1.0-256.0","0","0","12053","","null","","","null","28","","NaN","","","","","","","","","","","","","",""
"","response","","html-keyboard-response","201","370411","0.0-1.0-257.0-0.0","0","0","12053","","968","","","75","28","","","1","28","training","adjacent","GF","7","6","N.jpg","R.jpg","1","0","0","",""
"","feedback","","html-keyboard-response","202","371414","0.0-1.0-258.0-0.0","0","0","12053","","null","","","null","28","","","","","","","","","","","","","","","",""
"","time_out","","html-keyboard-response","203","373415","0.0-1.0-260.0-0.0","0","0","12053","","null","","","null","28","","","","","","","","","","","","","","","",""
"","ITI","","html-keyboard-response","204","374418","0.0-1.0-261.0","0","0","12053","","null","","","null","28","","","","","","","","","","","","","","","NaN",""
"","S1","","html-keyboard-response","205","374670","0.0-1.0-263.0","0","0","12053","","null","","","null","29","","","","","","","","","","","","","","","",""
"","ISI","","html-keyboard-response","206","375673","0.0-1.0-264.0","0","0","12053","","null","","","null","29","NaN","","","","","","","","","","","","","","",""
"","S2","","html-keyboard-response","207","375925","0.0-1.0-265.0","0","0","12053","","null","","","null","29","","NaN","","","","","","","","","","","","","",""
"","response","","html-keyboard-response","208","376596","0.0-1.0-266.0-0.0","0","0","12053","","670","","","75","29","","","1","29","training","adjacent","CB","3","2","Q.jpg","M.jpg","1","0","0","",""
"","feedback","","html-keyboard-response","209","377601","0.0-1.0-267.0-0.0","0","0","12053","","null","","","null","29","","","","","","","","","","","","","","","",""
"","time_out","","html-keyboard-response","210","379602","0.0-1.0-269.0-0.0","0","0","12053","","null","","","null","29","","","","","","","","","","","","","","","",""
"","ITI","","html-keyboard-response","211","380604","0.0-1.0-270.0","0","0","12053","","null","","","null","29","","","","","","","","","","","","","","","NaN",""
"","S1","","html-keyboard-response","212","380857","0.0-1.0-272.0","0","0","12053","","null","","","null","30","","","","","","","","","","","","","","","",""
"","ISI","","html-keyboard-response","213","381859","0.0-1.0-273.0","0","0","12053","","null","","","null","30","NaN","","","","","","","","","","","","","","",""
"","S2","","html-keyboard-response","214","382111","0.0-1.0-274.0","0","0","12053","","null","","","null","30","","NaN","","","","","","","","","","","","","",""
"","response","","html-keyboard-response","215","382981","0.0-1.0-275.0-0.0","0","0","12053","","869","","","68","30","","","1","30","training","adjacent","CB","3","2","Q.jpg","M.jpg","0","0","1","",""
"","feedback","","html-keyboard-response","216","383982","0.0-1.0-276.0-0.0","0","0","12053","","null","","","null","30","","","","","","","","","","","","","","","",""
"","ITI","","html-keyboard-response","217","384984","0.0-1.0-279.0","0","0","12053","","null","","","null","30","","","","","","","","","","","","","","","NaN",""
"","S1","","html-keyboard-response","218","385237","0.0-1.0-281.0","0","0","12053","","null","","","null","31","","","","","","","","","","","","","","","",""
"","ISI","","html-keyboard-response","219","386239","0.0-1.0-282.0","0","0","12053","","null","","","null","31","NaN","","","","","","","","","","","","","","",""
"","S2","","html-keyboard-response","220","386491","0.0-1.0-283.0","0","0","12053","","null","","","null","31","","NaN","","","","","","","","","","","","","",""
"","response","","html-keyboard-response","221","387277","0.0-1.0-284.0-0.0","0","0","12053","","784","","","68","31","","","1","31","training","adjacent","BC","2","3","M.jpg","Q.jpg","0","1","0","",""
"","feedback","","html-keyboard-response","222","388280","0.0-1.0-285.0-0.0","0","0","12053","","null","","","null","31","","","","","","","","","","","","","","","",""
"","time_out","","html-keyboard-response","223","390283","0.0-1.0-287.0-0.0","0","0","12053","","null","","","null","31","","","","","","","","","","","","","","","",""
"","ITI","","html-keyboard-response","224","391286","0.0-1.0-288.0","0","0","12053","","null","","","null","31","","","","","","","","","","","","","","","NaN",""
"","S1","","html-keyboard-response","225","391538","0.0-1.0-290.0","0","0","12053","","null","","","null","32","","","","","","","","","","","","","","","",""
"","ISI","","html-keyboard-response","226","392541","0.0-1.0-291.0","0","0","12053","","null","","","null","32","NaN","","","","","","","","","","","","","","",""
"","S2","","html-keyboard-response","227","392793","0.0-1.0-292.0","0","0","12053","","null","","","null","32","","NaN","","","","","","","","","","","","","",""
"","response","","html-keyboard-response","228","393230","0.0-1.0-293.0-0.0","0","0","12053","","437","","","75","32","","","1","32","training","adjacent","ED","5","4","L.jpg","O.jpg","1","0","0","",""
"","feedback","","html-keyboard-response","229","394234","0.0-1.0-294.0-0.0","0","0","12053","","null","","","null","32","","","","","","","","","","","","","","","",""
"","time_out","","html-keyboard-response","230","396236","0.0-1.0-296.0-0.0","0","0","12053","","null","","","null","32","","","","","","","","","","","","","","","",""
"","ITI","","html-keyboard-response","231","397238","0.0-1.0-297.0","0","0","12053","","null","","","null","32","","","","","","","","","","","","","","","NaN",""
"","S1","","html-keyboard-response","232","397491","0.0-1.0-299.0","0","0","12053","","null","","","null","33","","","","","","","","","","","","","","","",""
"","ISI","","html-keyboard-response","233","398493","0.0-1.0-300.0","0","0","12053","","null","","","null","33","NaN","","","","","","","","","","","","","","",""
"","S2","","html-keyboard-response","234","398746","0.0-1.0-301.0","0","0","12053","","null","","","null","33","","NaN","","","","","","","","","","","","","",""
"","response","","html-keyboard-response","235","399839","0.0-1.0-302.0-0.0","0","0","12053","","1092","","","75","33","","","1","33","training","adjacent","GF","7","6","N.jpg","R.jpg","1","0","0","",""
"","feedback","","html-keyboard-response","236","400842","0.0-1.0-303.0-0.0","0","0","12053","","null","","","null","33","","","","","","","","","","","","","","","",""
"","time_out","","html-keyboard-response","237","402844","0.0-1.0-305.0-0.0","0","0","12053","","null","","","null","33","","","","","","","","","","","","","","","",""
"","ITI","","html-keyboard-response","238","403847","0.0-1.0-306.0","0","0","12053","","null","","","null","33","","","","","","","","","","","","","","","NaN",""
"","S1","","html-keyboard-response","239","404099","0.0-1.0-308.0","0","0","12053","","null","","","null","34","","","","","","","","","","","","","","","",""
"","ISI","","html-keyboard-response","240","405101","0.0-1.0-309.0","0","0","12053","","null","","","null","34","NaN","","","","","","","","","","","","","","",""
"","S2","","html-keyboard-response","241","405353","0.0-1.0-310.0","0","0","12053","","null","","","null","34","","NaN","","","","","","","","","","","","","",""
"","response","","html-keyboard-response","242","405960","0.0-1.0-311.0-0.0","0","0","12053","","605","","","68","34","","","1","34","training","adjacent","BA","2","1","M.jpg","P.jpg","0","0","1","",""
"","feedback","","html-keyboard-response","243","406962","0.0-1.0-312.0-0.0","0","0","12053","","null","","","null","34","","","","","","","","","","","","","","","",""
"","ITI","","html-keyboard-response","244","407964","0.0-1.0-315.0","0","0","12053","","null","","","null","34","","","","","","","","","","","","","","","NaN",""
"","S1","","html-keyboard-response","245","408217","0.0-1.0-317.0","0","0","12053","","null","","","null","35","","","","","","","","","","","","","","","",""
"","ISI","","html-keyboard-response","246","409219","0.0-1.0-318.0","0","0","12053","","null","","","null","35","NaN","","","","","","","","","","","","","","",""
"","S2","","html-keyboard-response","247","409471","0.0-1.0-319.0","0","0","12053","","null","","","null","35","","NaN","","","","","","","","","","","","","",""
"","response","","html-keyboard-response","248","409776","0.0-1.0-320.0-0.0","0","0","12053","","303","","","68","35","","","1","35","training","adjacent","EF","5","6","L.jpg","R.jpg","0","1","0","",""
"","feedback","","html-keyboard-response","249","410779","0.0-1.0-321.0-0.0","0","0","12053","","null","","","null","35","","","","","","","","","","","","","","","",""
"","time_out","","html-keyboard-response","250","412781","0.0-1.0-323.0-0.0","0","0","12053","","null","","","null","35","","","","","","","","","","","","","","","",""
"","ITI","","html-keyboard-response","251","413783","0.0-1.0-324.0","0","0","12053","","null","","","null","35","","","","","","","","","","","","","","","NaN",""
"","S1","","html-keyboard-response","252","414035","0.0-1.0-326.0","0","0","12053","","null","","","null","36","","","","","","","","","","","","","","","",""
"","ISI","","html-keyboard-response","253","415037","0.0-1.0-327.0","0","0","12053","","null","","","null","36","NaN","","","","","","","","","","","","","","",""
"","S2","","html-keyboard-response","254","415289","0.0-1.0-328.0","0","0","12053","","null","","","null","36","","NaN","","","","","","","","","","","","","",""
"","response","","html-keyboard-response","255","416417","0.0-1.0-329.0-0.0","0","0","12053","","1127","","","75","36","","","1","36","training","adjacent","FG","6","7","R.jpg","N.jpg","1","1","1","",""
"","feedback","","html-keyboard-response","256","417419","0.0-1.0-330.0-0.0","0","0","12053","","null","","","null","36","","","","","","","","","","","","","","","",""
"","ITI","","html-keyboard-response","257","418421","0.0-1.0-333.0","0","0","12053","","null","","","null","36","","","","","","","","","","","","","","","NaN",""
"","S1","","html-keyboard-response","258","418674","0.0-1.0-335.0","0","0","12053","","null","","","null","37","","","","","","","","","","","","","","","",""
"","ISI","","html-keyboard-response","259","419676","0.0-1.0-336.0","0","0","12053","","null","","","null","37","NaN","","","","","","","","","","","","","","",""
"","S2","","html-keyboard-response","260","419928","0.0-1.0-337.0","0","0","12053","","null","","","null","37","","NaN","","","","","","","","","","","","","",""
"","response","","html-keyboard-response","261","420897","0.0-1.0-338.0-0.0","0","0","12053","","968","","","75","37","","","1","37","training","adjacent","ED","5","4","L.jpg","O.jpg","1","0","0","",""
"","feedback","","html-keyboard-response","262","421900","0.0-1.0-339.0-0.0","0","0","12053","","null","","","null","37","","","","","","","","","","","","","","","",""
"","time_out","","html-keyboard-response","263","423902","0.0-1.0-341.0-0.0","0","0","12053","","null","","","null","37","","","","","","","","","","","","","","","",""
"","ITI","","html-keyboard-response","264","424904","0.0-1.0-342.0","0","0","12053","","null","","","null","37","","","","","","","","","","","","","","","NaN",""
"","S1","","html-keyboard-response","265","425157","0.0-1.0-344.0","0","0","12053","","null","","","null","38","","","","","","","","","","","","","","","",""
"","ISI","","html-keyboard-response","266","426159","0.0-1.0-345.0","0","0","12053","","null","","","null","38","NaN","","","","","","","","","","","","","","",""
"","S2","","html-keyboard-response","267","426412","0.0-1.0-346.0","0","0","12053","","null","","","null","38","","NaN","","","","","","","","","","","","","",""
"","response","","html-keyboard-response","268","427162","0.0-1.0-347.0-0.0","0","0","12053","","749","","","68","38","","","1","38","training","adjacent","ED","5","4","L.jpg","O.jpg","0","0","1","",""
"","feedback","","html-keyboard-response","269","428165","0.0-1.0-348.0-0.0","0","0","12053","","null","","","null","38","","","","","","","","","","","","","","","",""
"","ITI","","html-keyboard-response","270","429166","0.0-1.0-351.0","0","0","12053","","null","","","null","38","","","","","","","","","","","","","","","NaN",""
"","S1","","html-keyboard-response","271","429419","0.0-1.0-353.0","0","0","12053","","null","","","null","39","","","","","","","","","","","","","","","",""
"","ISI","","html-keyboard-response","272","430421","0.0-1.0-354.0","0","0","12053","","null","","","null","39","NaN","","","","","","","","","","","","","","",""
"","S2","","html-keyboard-response","273","430673","0.0-1.0-355.0","0","0","12053","","null","","","null","39","","NaN","","","","","","","","","","","","","",""
"","response","","html-keyboard-response","274","431546","0.0-1.0-356.0-0.0","0","0","12053","","873","","","68","39","","","1","39","training","adjacent","DE","4","5","O.jpg","L.jpg","0","1","0","",""
"","feedback","","html-keyboard-response","275","432548","0.0-1.0-357.0-0.0","0","0","12053","","null","","","null","39","","","","","","","","","","","","","","","",""
"","time_out","","html-keyboard-response","276","434551","0.0-1.0-359.0-0.0","0","0","12053","","null","","","null","39","","","","","","","","","","","","","","","",""
"","ITI","","html-keyboard-response","277","435552","0.0-1.0-360.0","0","0","12053","","null","","","null","39","","","","","","","","","","","","","","","NaN",""
"","S1","","html-keyboard-response","278","435804","0.0-1.0-362.0","0","0","12053","","null","","","null","40","","","","","","","","","","","","","","","",""
"","ISI","","html-keyboard-response","279","436807","0.0-1.0-363.0","0","0","12053","","null","","","null","40","NaN","","","","","","","","","","","","","","",""
"","S2","","html-keyboard-response","280","437060","0.0-1.0-364.0","0","0","12053","","null","","","null","40","","NaN","","","","","","","","","","","","","",""
"","response","","html-keyboard-response","281","437923","0.0-1.0-365.0-0.0","0","0","12053","","862","","","75","40","","","1","40","training","adjacent","AB","1","2","P.jpg","M.jpg","1","1","1","",""
"","feedback","","html-keyboard-response","282","438926","0.0-1.0-366.0-0.0","0","0","12053","","null","","","null","40","","","","","","","","","","","","","","","",""
"","ITI","","html-keyboard-response","283","439928","0.0-1.0-369.0","0","0","12053","","null","","","null","40","","","","","","","","","","","","","","","NaN",""
"","S1","","html-keyboard-response","284","440180","0.0-1.0-371.0","0","0","12053","","null","","","null","41","","","","","","","","","","","","","","","",""
"","ISI","","html-keyboard-response","285","441182","0.0-1.0-372.0","0","0","12053","","null","","","null","41","NaN","","","","","","","","","","","","","","",""
"","S2","","html-keyboard-response","286","441435","0.0-1.0-373.0","0","0","12053","","null","","","null","41","","NaN","","","","","","","","","","","","","",""
"","response","","html-keyboard-response","287","442228","0.0-1.0-374.0-0.0","0","0","12053","","792","","","75","41","","","1","41","training","adjacent","FE","6","5","R.jpg","L.jpg","1","0","0","",""
"","feedback","","html-keyboard-response","288","443230","0.0-1.0-375.0-0.0","0","0","12053","","null","","","null","41","","","","","","","","","","","","","","","",""
"","time_out","","html-keyboard-response","289","445233","0.0-1.0-377.0-0.0","0","0","12053","","null","","","null","41","","","","","","","","","","","","","","","",""
"","ITI","","html-keyboard-response","290","446235","0.0-1.0-378.0","0","0","12053","","null","","","null","41","","","","","","","","","","","","","","","NaN",""
"","S1","","html-keyboard-response","291","446488","0.0-1.0-380.0","0","0","12053","","null","","","null","42","","","","","","","","","","","","","","","",""
"","ISI","","html-keyboard-response","292","447491","0.0-1.0-381.0","0","0","12053","","null","","","null","42","NaN","","","","","","","","","","","","","","",""
"","S2","","html-keyboard-response","293","447748","0.0-1.0-382.0","0","0","12053","","null","","","null","42","","NaN","","","","","","","","","","","","","",""
"","response","","html-keyboard-response","294","447932","0.0-1.0-383.0-0.0","0","0","12053","","182","","","75","42","","","1","42","training","adjacent","AB","1","2","P.jpg","M.jpg","1","1","1","",""
"","feedback","","html-keyboard-response","295","448935","0.0-1.0-384.0-0.0","0","0","12053","","null","","","null","42","","","","","","","","","","","","","","","",""
"","ITI","","html-keyboard-response","296","449936","0.0-1.0-387.0","0","0","12053","","null","","","null","42","","","","","","","","","","","","","","","NaN",""
"","S1","","html-keyboard-response","297","450189","0.0-1.0-389.0","0","0","12053","","null","","","null","43","","","","","","","","","","","","","","","",""
"","ISI","","html-keyboard-response","298","451191","0.0-1.0-390.0","0","0","12053","","null","","","null","43","NaN","","","","","","","","","","","","","","",""
"","S2","","html-keyboard-response","299","451443","0.0-1.0-391.0","0","0","12053","","null","","","null","43","","NaN","","","","","","","","","","","","","",""
"","response","","html-keyboard-response","300","452620","0.0-1.0-392.0-0.0","0","0","12053","","1176","","","75","43","","","1","43","training","adjacent","CD","3","4","Q.jpg","O.jpg","1","1","1","",""
"","feedback","","html-keyboard-response","301","453623","0.0-1.0-393.0-0.0","0","0","12053","","null","","","null","43","","","","","","","","","","","","","","","",""
"","ITI","","html-keyboard-response","302","454625","0.0-1.0-396.0","0","0","12053","","null","","","null","43","","","","","","","","","","","","","","","NaN",""
"","S1","","html-keyboard-response","303","454877","0.0-1.0-398.0","0","0","12053","","null","","","null","44","","","","","","","","","","","","","","","",""
"","ISI","","html-keyboard-response","304","455879","0.0-1.0-399.0","0","0","12053","","null","","","null","44","NaN","","","","","","","","","","","","","","",""
"","S2","","html-keyboard-response","305","456131","0.0-1.0-400.0","0","0","12053","","null","","","null","44","","NaN","","","","","","","","","","","","","",""
"","response","","html-keyboard-response","306","456916","0.0-1.0-401.0-0.0","0","0","12053","","785","","","68","44","","","1","44","training","adjacent","DE","4","5","O.jpg","L.jpg","0","1","0","",""
"","feedback","","html-keyboard-response","307","457920","0.0-1.0-402.0-0.0","0","0","12053","","null","","","null","44","","","","","","","","","","","","","","","",""
"","time_out","","html-keyboard-response","308","459922","0.0-1.0-404.0-0.0","0","0","12053","","null","","","null","44","","","","","","","","","","","","","","","",""
"","ITI","","html-keyboard-response","309","460924","0.0-1.0-405.0","0","0","12053","","null","","","null","44","","","","","","","","","","","","","","","NaN",""
"","S1","","html-keyboard-response","310","461176","0.0-1.0-407.0","0","0","12053","","null","","","null","45","","","","","","","","","","","","","","","",""
"","ISI","","html-keyboard-response","311","462178","0.0-1.0-408.0","0","0","12053","","null","","","null","45","NaN","","","","","","","","","","","","","","",""
"","S2","","html-keyboard-response","312","462430","0.0-1.0-409.0","0","0","12053","","null","","","null","45","","NaN","","","","","","","","","","","","","",""
"","response","","html-keyboard-response","313","463981","0.0-1.0-410.0-0.0","0","0","12053","","1549","","","68","45","","","1","45","training","adjacent","GF","7","6","N.jpg","R.jpg","0","0","1","",""
"","feedback","","html-keyboard-response","314","464983","0.0-1.0-411.0-0.0","0","0","12053","","null","","","null","45","","","","","","","","","","","","","","","",""
"","ITI","","html-keyboard-response","315","465985","0.0-1.0-414.0","0","0","12053","","null","","","null","45","","","","","","","","","","","","","","","NaN",""
"","S1","","html-keyboard-response","316","466238","0.0-1.0-416.0","0","0","12053","","null","","","null","46","","","","","","","","","","","","","","","",""
"","ISI","","html-keyboard-response","317","467239","0.0-1.0-417.0","0","0","12053","","null","","","null","46","NaN","","","","","","","","","","","","","","",""
"","S2","","html-keyboard-response","318","467500","0.0-1.0-418.0","0","0","12053","","null","","","null","46","","NaN","","","","","","","","","","","","","",""
"","response","","html-keyboard-response","319","468085","0.0-1.0-419.0-0.0","0","0","12053","","585","","","75","46","","","1","46","training","adjacent","DE","4","5","O.jpg","L.jpg","1","1","1","",""
"","feedback","","html-keyboard-response","320","469088","0.0-1.0-420.0-0.0","0","0","12053","","null","","","null","46","","","","","","","","","","","","","","","",""
"","ITI","","html-keyboard-response","321","470091","0.0-1.0-423.0","0","0","12053","","null","","","null","46","","","","","","","","","","","","","","","NaN",""
"","S1","","html-keyboard-response","322","470343","0.0-1.0-425.0","0","0","12053","","null","","","null","47","","","","","","","","","","","","","","","",""
"","ISI","","html-keyboard-response","323","471345","0.0-1.0-426.0","0","0","12053","","null","","","null","47","NaN","","","","","","","","","","","","","","",""
"","S2","","html-keyboard-response","324","471597","0.0-1.0-427.0","0","0","12053","","null","","","null","47","","NaN","","","","","","","","","","","","","",""
"","response","","html-keyboard-response","325","471926","0.0-1.0-428.0-0.0","0","0","12053","","327","","","75","47","","","1","47","training","adjacent","CD","3","4","Q.jpg","O.jpg","1","1","1","",""
"","feedback","","html-keyboard-response","326","472928","0.0-1.0-429.0-0.0","0","0","12053","","null","","","null","47","","","","","","","","","","","","","","","",""
"","ITI","","html-keyboard-response","327","473931","0.0-1.0-432.0","0","0","12053","","null","","","null","47","","","","","","","","","","","","","","","NaN",""
"","block_over","","html-keyboard-response","328","542870","0.0-1.0-433.0-0.0","0","0","12053","","68937","","","32","47","","","","","","","","","","","","","","","",""
"","S1","","html-keyboard-response","329","543123","0.0-1.0-434.0","0","0","12053","","null","","","null","48","","","","","","","","","","","","","","","",""
"","ISI","","html-keyboard-response","330","544125","0.0-1.0-435.0","0","0","12053","","null","","","null","48","NaN","","","","","","","","","","","","","","",""
"","S2","","html-keyboard-response","331","544378","0.0-1.0-436.0","0","0","12053","","null","","","null","48","","NaN","","","","","","","","","","","","","",""
"","response","","html-keyboard-response","332","544974","0.0-1.0-437.0-0.0","0","0","12053","","595","","","75","48","","","2","48","training","adjacent","GF","7","6","N.jpg","R.jpg","1","0","0","",""
"","feedback","","html-keyboard-response","333","545977","0.0-1.0-438.0-0.0","0","0","12053","","null","","","null","48","","","","","","","","","","","","","","","",""
"","time_out","","html-keyboard-response","334","547979","0.0-1.0-440.0-0.0","0","0","12053","","null","","","null","48","","","","","","","","","","","","","","","",""
"","ITI","","html-keyboard-response","335","548981","0.0-1.0-441.0","0","0","12053","","null","","","null","48","","","","","","","","","","","","","","","NaN",""
"","S1","","html-keyboard-response","336","549232","0.0-1.0-443.0","0","0","12053","","null","","","null","49","","","","","","","","","","","","","","","",""
"","ISI","","html-keyboard-response","337","550234","0.0-1.0-444.0","0","0","12053","","null","","","null","49","NaN","","","","","","","","","","","","","","",""
"","S2","","html-keyboard-response","338","550486","0.0-1.0-445.0","0","0","12053","","null","","","null","49","","NaN","","","","","","","","","","","","","",""
"","response","","html-keyboard-response","339","550934","0.0-1.0-446.0-0.0","0","0","12053","","447","","","75","49","","","2","49","training","adjacent","CD","3","4","Q.jpg","O.jpg","1","1","1","",""
"","feedback","","html-keyboard-response","340","551936","0.0-1.0-447.0-0.0","0","0","12053","","null","","","null","49","","","","","","","","","","","","","","","",""
"","ITI","","html-keyboard-response","341","552938","0.0-1.0-450.0","0","0","12053","","null","","","null","49","","","","","","","","","","","","","","","NaN",""
"","S1","","html-keyboard-response","342","553191","0.0-1.0-452.0","0","0","12053","","null","","","null","50","","","","","","","","","","","","","","","",""
"","ISI","","html-keyboard-response","343","554194","0.0-1.0-453.0","0","0","12053","","null","","","null","50","NaN","","","","","","","","","","","","","","",""
"","S2","","html-keyboard-response","344","554446","0.0-1.0-454.0","0","0","12053","","null","","","null","50","","NaN","","","","","","","","","","","","","",""
"","response","","html-keyboard-response","345","554767","0.0-1.0-455.0-0.0","0","0","12053","","320","","","75","50","","","2","50","training","adjacent","DE","4","5","O.jpg","L.jpg","1","1","1","",""
"","feedback","","html-keyboard-response","346","555770","0.0-1.0-456.0-0.0","0","0","12053","","null","","","null","50","","","","","","","","","","","","","","","",""
"","ITI","","html-keyboard-response","347","556772","0.0-1.0-459.0","0","0","12053","","null","","","null","50","","","","","","","","","","","","","","","NaN",""
"","S1","","html-keyboard-response","348","557023","0.0-1.0-461.0","0","0","12053","","null","","","null","51","","","","","","","","","","","","","","","",""
"","ISI","","html-keyboard-response","349","558026","0.0-1.0-462.0","0","0","12053","","null","","","null","51","NaN","","","","","","","","","","","","","","",""
"","S2","","html-keyboard-response","350","558279","0.0-1.0-463.0","0","0","12053","","null","","","null","51","","NaN","","","","","","","","","","","","","",""
"","response","","html-keyboard-response","351","558847","0.0-1.0-464.0-0.0","0","0","12053","","567","","","68","51","","","2","51","training","adjacent","BC","2","3","M.jpg","Q.jpg","0","1","0","",""
"","feedback","","html-keyboard-response","352","559850","0.0-1.0-465.0-0.0","0","0","12053","","null","","","null","51","","","","","","","","","","","","","","","",""
"","time_out","","html-keyboard-response","353","561853","0.0-1.0-467.0-0.0","0","0","12053","","null","","","null","51","","","","","","","","","","","","","","","",""
"","ITI","","html-keyboard-response","354","562855","0.0-1.0-468.0","0","0","12053","","null","","","null","51","","","","","","","","","","","","","","","NaN",""
"","S1","","html-keyboard-response","355","563107","0.0-1.0-470.0","0","0","12053","","null","","","null","52","","","","","","","","","","","","","","","",""
"","ISI","","html-keyboard-response","356","564109","0.0-1.0-471.0","0","0","12053","","null","","","null","52","NaN","","","","","","","","","","","","","","",""
"","S2","","html-keyboard-response","357","564363","0.0-1.0-472.0","0","0","12053","","null","","","null","52","","NaN","","","","","","","","","","","","","",""
"","response","","html-keyboard-response","358","565480","0.0-1.0-473.0-0.0","0","0","12053","","1116","","","75","52","","","2","52","training","adjacent","ED","5","4","L.jpg","O.jpg","1","0","0","",""
"","feedback","","html-keyboard-response","359","566483","0.0-1.0-474.0-0.0","0","0","12053","","null","","","null","52","","","","","","","","","","","","","","","",""
"","time_out","","html-keyboard-response","360","568485","0.0-1.0-476.0-0.0","0","0","12053","","null","","","null","52","","","","","","","","","","","","","","","",""
"","ITI","","html-keyboard-response","361","569487","0.0-1.0-477.0","0","0","12053","","null","","","null","52","","","","","","","","","","","","","","","NaN",""
"","S1","","html-keyboard-response","362","569739","0.0-1.0-479.0","0","0","12053","","null","","","null","53","","","","","","","","","","","","","","","",""
"","ISI","","html-keyboard-response","363","570741","0.0-1.0-480.0","0","0","12053","","null","","","null","53","NaN","","","","","","","","","","","","","","",""
"","S2","","html-keyboard-response","364","570994","0.0-1.0-481.0","0","0","12053","","null","","","null","53","","NaN","","","","","","","","","","","","","",""
"","response","","html-keyboard-response","365","571641","0.0-1.0-482.0-0.0","0","0","12053","","646","","","75","53","","","2","53","training","adjacent","EF","5","6","L.jpg","R.jpg","1","1","1","",""
"","feedback","","html-keyboard-response","366","572648","0.0-1.0-483.0-0.0","0","0","12053","","null","","","null","53","","","","","","","","","","","","","","","",""
"","ITI","","html-keyboard-response","367","573650","0.0-1.0-486.0","0","0","12053","","null","","","null","53","","","","","","","","","","","","","","","NaN",""
"","S1","","html-keyboard-response","368","573915","0.0-1.0-488.0","0","0","12053","","null","","","null","54","","","","","","","","","","","","","","","",""
"","ISI","","html-keyboard-response","369","574917","0.0-1.0-489.0","0","0","12053","","null","","","null","54","NaN","","","","","","","","","","","","","","",""
"","S2","","html-keyboard-response","370","575170","0.0-1.0-490.0","0","0","12053","","null","","","null","54","","NaN","","","","","","","","","","","","","",""
"","response","","html-keyboard-response","371","575513","0.0-1.0-491.0-0.0","0","0","12053","","341","","","75","54","","","2","54","training","adjacent","AB","1","2","P.jpg","M.jpg","1","1","1","",""
"","feedback","","html-keyboard-response","372","576515","0.0-1.0-492.0-0.0","0","0","12053","","null","","","null","54","","","","","","","","","","","","","","","",""
"","ITI","","html-keyboard-response","373","577517","0.0-1.0-495.0","0","0","12053","","null","","","null","54","","","","","","","","","","","","","","","NaN",""
"","S1","","html-keyboard-response","374","577770","0.0-1.0-497.0","0","0","12053","","null","","","null","55","","","","","","","","","","","","","","","",""
"","ISI","","html-keyboard-response","375","578772","0.0-1.0-498.0","0","0","12053","","null","","","null","55","NaN","","","","","","","","","","","","","","",""
"","S2","","html-keyboard-response","376","579034","0.0-1.0-499.0","0","0","12053","","null","","","null","55","","NaN","","","","","","","","","","","","","",""
"","response","","html-keyboard-response","377","579505","0.0-1.0-500.0-0.0","0","0","12053","","470","","","75","55","","","2","55","training","adjacent","AB","1","2","P.jpg","M.jpg","1","1","1","",""
"","feedback","","html-keyboard-response","378","580508","0.0-1.0-501.0-0.0","0","0","12053","","null","","","null","55","","","","","","","","","","","","","","","",""
"","ITI","","html-keyboard-response","379","581510","0.0-1.0-504.0","0","0","12053","","null","","","null","55","","","","","","","","","","","","","","","NaN",""
"","S1","","html-keyboard-response","380","581765","0.0-1.0-506.0","0","0","12053","","null","","","null","56","","","","","","","","","","","","","","","",""
"","ISI","","html-keyboard-response","381","582767","0.0-1.0-507.0","0","0","12053","","null","","","null","56","NaN","","","","","","","","","","","","","","",""
"","S2","","html-keyboard-response","382","583019","0.0-1.0-508.0","0","0","12053","","null","","","null","56","","NaN","","","","","","","","","","","","","",""
"","response","","html-keyboard-response","383","583538","0.0-1.0-509.0-0.0","0","0","12053","","517","","","68","56","","","2","56","training","adjacent","BC","2","3","M.jpg","Q.jpg","0","1","0","",""
"","feedback","","html-keyboard-response","384","584540","0.0-1.0-510.0-0.0","0","0","12053","","null","","","null","56","","","","","","","","","","","","","","","",""
"","time_out","","html-keyboard-response","385","586542","0.0-1.0-512.0-0.0","0","0","12053","","null","","","null","56","","","","","","","","","","","","","","","",""
"","ITI","","html-keyboard-response","386","587545","0.0-1.0-513.0","0","0","12053","","null","","","null","56","","","","","","","","","","","","","","","NaN",""
"","S1","","html-keyboard-response","387","587797","0.0-1.0-515.0","0","0","12053","","null","","","null","57","","","","","","","","","","","","","","","",""
"","ISI","","html-keyboard-response","388","588799","0.0-1.0-516.0","0","0","12053","","null","","","null","57","NaN","","","","","","","","","","","","","","",""
"","S2","","html-keyboard-response","389","589051","0.0-1.0-517.0","0","0","12053","","null","","","null","57","","NaN","","","","","","","","","","","","","",""
"","response","","html-keyboard-response","390","589667","0.0-1.0-518.0-0.0","0","0","12053","","615","","","75","57","","","2","57","training","adjacent","CD","3","4","Q.jpg","O.jpg","1","1","1","",""
"","feedback","","html-keyboard-response","391","590669","0.0-1.0-519.0-0.0","0","0","12053","","null","","","null","57","","","","","","","","","","","","","","","",""
"","ITI","","html-keyboard-response","392","591671","0.0-1.0-522.0","0","0","12053","","null","","","null","57","","","","","","","","","","","","","","","NaN",""
"","S1","","html-keyboard-response","393","591927","0.0-1.0-524.0","0","0","12053","","null","","","null","58","","","","","","","","","","","","","","","",""
"","ISI","","html-keyboard-response","394","592929","0.0-1.0-525.0","0","0","12053","","null","","","null","58","NaN","","","","","","","","","","","","","","",""
"","S2","","html-keyboard-response","395","593181","0.0-1.0-526.0","0","0","12053","","null","","","null","58","","NaN","","","","","","","","","","","","","",""
"","response","","html-keyboard-response","396","594059","0.0-1.0-527.0-0.0","0","0","12053","","876","","","68","58","","","2","58","training","adjacent","AB","1","2","P.jpg","M.jpg","0","1","0","",""
"","feedback","","html-keyboard-response","397","595062","0.0-1.0-528.0-0.0","0","0","12053","","null","","","null","58","","","","","","","","","","","","","","","",""
"","time_out","","html-keyboard-response","398","597065","0.0-1.0-530.0-0.0","0","0","12053","","null","","","null","58","","","","","","","","","","","","","","","",""
"","ITI","","html-keyboard-response","399","598066","0.0-1.0-531.0","0","0","12053","","null","","","null","58","","","","","","","","","","","","","","","NaN",""
"","S1","","html-keyboard-response","400","598319","0.0-1.0-533.0","0","0","12053","","null","","","null","59","","","","","","","","","","","","","","","",""
"","ISI","","html-keyboard-response","401","599320","0.0-1.0-534.0","0","0","12053","","null","","","null","59","NaN","","","","","","","","","","","","","","",""
"","S2","","html-keyboard-response","402","599573","0.0-1.0-535.0","0","0","12053","","null","","","null","59","","NaN","","","","","","","","","","","","","",""
"","response","","html-keyboard-response","403","600108","0.0-1.0-536.0-0.0","0","0","12053","","534","","","75","59","","","2","59","training","adjacent","CB","3","2","Q.jpg","M.jpg","1","0","0","",""
"","feedback","","html-keyboard-response","404","601111","0.0-1.0-537.0-0.0","0","0","12053","","null","","","null","59","","","","","","","","","","","","","","","",""
"","time_out","","html-keyboard-response","405","603113","0.0-1.0-539.0-0.0","0","0","12053","","null","","","null","59","","","","","","","","","","","","","","","",""
"","ITI","","html-keyboard-response","406","604124","0.0-1.0-540.0","0","0","12053","","null","","","null","59","","","","","","","","","","","","","","","NaN",""
"","S1","","html-keyboard-response","407","604376","0.0-1.0-542.0","0","0","12053","","null","","","null","60","","","","","","","","","","","","","","","",""
"","ISI","","html-keyboard-response","408","605378","0.0-1.0-543.0","0","0","12053","","null","","","null","60","NaN","","","","","","","","","","","","","","",""
"","S2","","html-keyboard-response","409","605631","0.0-1.0-544.0","0","0","12053","","null","","","null","60","","NaN","","","","","","","","","","","","","",""
"","response","","html-keyboard-response","410","606020","0.0-1.0-545.0-0.0","0","0","12053","","388","","","75","60","","","2","60","training","adjacent","CB","3","2","Q.jpg","M.jpg","1","0","0","",""
"","feedback","","html-keyboard-response","411","607023","0.0-1.0-546.0-0.0","0","0","12053","","null","","","null","60","","","","","","","","","","","","","","","",""
"","time_out","","html-keyboard-response","412","609025","0.0-1.0-548.0-0.0","0","0","12053","","null","","","null","60","","","","","","","","","","","","","","","",""
"","ITI","","html-keyboard-response","413","610027","0.0-1.0-549.0","0","0","12053","","null","","","null","60","","","","","","","","","","","","","","","NaN",""
"","S1","","html-keyboard-response","414","610280","0.0-1.0-551.0","0","0","12053","","null","","","null","61","","","","","","","","","","","","","","","",""
"","ISI","","html-keyboard-response","415","611282","0.0-1.0-552.0","0","0","12053","","null","","","null","61","NaN","","","","","","","","","","","","","","",""
"","S2","","html-keyboard-response","416","611534","0.0-1.0-553.0","0","0","12053","","null","","","null","61","","NaN","","","","","","","","","","","","","",""
"","response","","html-keyboard-response","417","612109","0.0-1.0-554.0-0.0","0","0","12053","","574","","","75","61","","","2","61","training","adjacent","DC","4","3","O.jpg","Q.jpg","1","0","0","",""
"","feedback","","html-keyboard-response","418","613115","0.0-1.0-555.0-0.0","0","0","12053","","null","","","null","61","","","","","","","","","","","","","","","",""
"","time_out","","html-keyboard-response","419","615117","0.0-1.0-557.0-0.0","0","0","12053","","null","","","null","61","","","","","","","","","","","","","","","",""
"","ITI","","html-keyboard-response","420","616119","0.0-1.0-558.0","0","0","12053","","null","","","null","61","","","","","","","","","","","","","","","NaN",""
"","S1","","html-keyboard-response","421","616371","0.0-1.0-560.0","0","0","12053","","null","","","null","62","","","","","","","","","","","","","","","",""
"","ISI","","html-keyboard-response","422","617373","0.0-1.0-561.0","0","0","12053","","null","","","null","62","NaN","","","","","","","","","","","","","","",""
"","S2","","html-keyboard-response","423","617625","0.0-1.0-562.0","0","0","12053","","null","","","null","62","","NaN","","","","","","","","","","","","","",""
"","response","","html-keyboard-response","424","618485","0.0-1.0-563.0-0.0","0","0","12053","","860","","","68","62","","","2","62","training","adjacent","EF","5","6","L.jpg","R.jpg","0","1","0","",""
"","feedback","","html-keyboard-response","425","619488","0.0-1.0-564.0-0.0","0","0","12053","","null","","","null","62","","","","","","","","","","","","","","","",""
"","time_out","","html-keyboard-response","426","621490","0.0-1.0-566.0-0.0","0","0","12053","","null","","","null","62","","","","","","","","","","","","","","","",""
"","ITI","","html-keyboard-response","427","622492","0.0-1.0-567.0","0","0","12053","","null","","","null","62","","","","","","","","","","","","","","","NaN",""
"","S1","","html-keyboard-response","428","622744","0.0-1.0-569.0","0","0","12053","","null","","","null","63","","","","","","","","","","","","","","","",""
"","ISI","","html-keyboard-response","429","623746","0.0-1.0-570.0","0","0","12053","","null","","","null","63","NaN","","","","","","","","","","","","","","",""
"","S2","","html-keyboard-response","430","623998","0.0-1.0-571.0","0","0","12053","","null","","","null","63","","NaN","","","","","","","","","","","","","",""
"","response","","html-keyboard-response","431","625647","0.0-1.0-572.0-0.0","0","0","12053","","1647","","","75","63","","","2","63","training","adjacent","FG","6","7","R.jpg","N.jpg","1","1","1","",""
"","feedback","","html-keyboard-response","432","626649","0.0-1.0-573.0-0.0","0","0","12053","","null","","","null","63","","","","","","","","","","","","","","","",""
"","ITI","","html-keyboard-response","433","627652","0.0-1.0-576.0","0","0","12053","","null","","","null","63","","","","","","","","","","","","","","","NaN",""
"","S1","","html-keyboard-response","434","627904","0.0-1.0-578.0","0","0","12053","","null","","","null","64","","","","","","","","","","","","","","","",""
"","ISI","","html-keyboard-response","435","628907","0.0-1.0-579.0","0","0","12053","","null","","","null","64","NaN","","","","","","","","","","","","","","",""
"","S2","","html-keyboard-response","436","629160","0.0-1.0-580.0","0","0","12053","","null","","","null","64","","NaN","","","","","","","","","","","","","",""
"","response","","html-keyboard-response","437","629719","0.0-1.0-581.0-0.0","0","0","12053","","557","","","75","64","","","2","64","training","adjacent","CD","3","4","Q.jpg","O.jpg","1","1","1","",""
"","feedback","","html-keyboard-response","438","630721","0.0-1.0-582.0-0.0","0","0","12053","","null","","","null","64","","","","","","","","","","","","","","","",""
"","ITI","","html-keyboard-response","439","631723","0.0-1.0-585.0","0","0","12053","","null","","","null","64","","","","","","","","","","","","","","","NaN",""
"","S1","","html-keyboard-response","440","631976","0.0-1.0-587.0","0","0","12053","","null","","","null","65","","","","","","","","","","","","","","","",""
"","ISI","","html-keyboard-response","441","632978","0.0-1.0-588.0","0","0","12053","","null","","","null","65","NaN","","","","","","","","","","","","","","",""
"","S2","","html-keyboard-response","442","633231","0.0-1.0-589.0","0","0","12053","","null","","","null","65","","NaN","","","","","","","","","","","","","",""
"","response","","html-keyboard-response","443","634319","0.0-1.0-590.0-0.0","0","0","12053","","1087","","","75","65","","","2","65","training","adjacent","FE","6","5","R.jpg","L.jpg","1","0","0","",""
"","feedback","","html-keyboard-response","444","635322","0.0-1.0-591.0-0.0","0","0","12053","","null","","","null","65","","","","","","","","","","","","","","","",""
"","time_out","","html-keyboard-response","445","637324","0.0-1.0-593.0-0.0","0","0","12053","","null","","","null","65","","","","","","","","","","","","","","","",""
"","ITI","","html-keyboard-response","446","638327","0.0-1.0-594.0","0","0","12053","","null","","","null","65","","","","","","","","","","","","","","","NaN",""
"","S1","","html-keyboard-response","447","638579","0.0-1.0-596.0","0","0","12053","","null","","","null","66","","","","","","","","","","","","","","","",""
"","ISI","","html-keyboard-response","448","639581","0.0-1.0-597.0","0","0","12053","","null","","","null","66","NaN","","","","","","","","","","","","","","",""
"","S2","","html-keyboard-response","449","639848","0.0-1.0-598.0","0","0","12053","","null","","","null","66","","NaN","","","","","","","","","","","","","",""
"","response","","html-keyboard-response","450","640360","0.0-1.0-599.0-0.0","0","0","12053","","511","","","68","66","","","2","66","training","adjacent","FE","6","5","R.jpg","L.jpg","0","0","1","",""
"","feedback","","html-keyboard-response","451","641362","0.0-1.0-600.0-0.0","0","0","12053","","null","","","null","66","","","","","","","","","","","","","","","",""
"","ITI","","html-keyboard-response","452","642366","0.0-1.0-603.0","0","0","12053","","null","","","null","66","","","","","","","","","","","","","","","NaN",""
"","S1","","html-keyboard-response","453","642618","0.0-1.0-605.0","0","0","12053","","null","","","null","67","","","","","","","","","","","","","","","",""
"","ISI","","html-keyboard-response","454","643621","0.0-1.0-606.0","0","0","12053","","null","","","null","67","NaN","","","","","","","","","","","","","","",""
"","S2","","html-keyboard-response","455","643873","0.0-1.0-607.0","0","0","12053","","null","","","null","67","","NaN","","","","","","","","","","","","","",""
"","response","","html-keyboard-response","456","644448","0.0-1.0-608.0-0.0","0","0","12053","","573","","","75","67","","","2","67","training","adjacent","FG","6","7","R.jpg","N.jpg","1","1","1","",""
"","feedback","","html-keyboard-response","457","645450","0.0-1.0-609.0-0.0","0","0","12053","","null","","","null","67","","","","","","","","","","","","","","","",""
"","ITI","","html-keyboard-response","458","646452","0.0-1.0-612.0","0","0","12053","","null","","","null","67","","","","","","","","","","","","","","","NaN",""
"","S1","","html-keyboard-response","459","646704","0.0-1.0-614.0","0","0","12053","","null","","","null","68","","","","","","","","","","","","","","","",""
"","ISI","","html-keyboard-response","460","647707","0.0-1.0-615.0","0","0","12053","","null","","","null","68","NaN","","","","","","","","","","","","","","",""
"","S2","","html-keyboard-response","461","647959","0.0-1.0-616.0","0","0","12053","","null","","","null","68","","NaN","","","","","","","","","","","","","",""
"","response","","html-keyboard-response","462","648129","0.0-1.0-617.0-0.0","0","0","12053","","168","","","75","68","","","2","68","training","adjacent","BA","2","1","M.jpg","P.jpg","1","0","0","",""
"","feedback","","html-keyboard-response","463","649131","0.0-1.0-618.0-0.0","0","0","12053","","null","","","null","68","","","","","","","","","","","","","","","",""
"","time_out","","html-keyboard-response","464","651133","0.0-1.0-620.0-0.0","0","0","12053","","null","","","null","68","","","","","","","","","","","","","","","",""
"","ITI","","html-keyboard-response","465","652135","0.0-1.0-621.0","0","0","12053","","null","","","null","68","","","","","","","","","","","","","","","NaN",""
"","S1","","html-keyboard-response","466","652388","0.0-1.0-623.0","0","0","12053","","null","","","null","69","","","","","","","","","","","","","","","",""
"","ISI","","html-keyboard-response","467","653389","0.0-1.0-624.0","0","0","12053","","null","","","null","69","NaN","","","","","","","","","","","","","","",""
"","S2","","html-keyboard-response","468","653642","0.0-1.0-625.0","0","0","12053","","null","","","null","69","","NaN","","","","","","","","","","","","","",""
"","response","","html-keyboard-response","469","654449","0.0-1.0-626.0-0.0","0","0","12053","","807","","","75","69","","","2","69","training","adjacent","DC","4","3","O.jpg","Q.jpg","1","0","0","",""
"","feedback","","html-keyboard-response","470","655452","0.0-1.0-627.0-0.0","0","0","12053","","null","","","null","69","","","","","","","","","","","","","","","",""
"","time_out","","html-keyboard-response","471","657453","0.0-1.0-629.0-0.0","0","0","12053","","null","","","null","69","","","","","","","","","","","","","","","",""
"","ITI","","html-keyboard-response","472","658455","0.0-1.0-630.0","0","0","12053","","null","","","null","69","","","","","","","","","","","","","","","NaN",""
"","S1","","html-keyboard-response","473","658707","0.0-1.0-632.0","0","0","12053","","null","","","null","70","","","","","","","","","","","","","","","",""
"","ISI","","html-keyboard-response","474","659709","0.0-1.0-633.0","0","0","12053","","null","","","null","70","NaN","","","","","","","","","","","","","","",""
"","S2","","html-keyboard-response","475","659961","0.0-1.0-634.0","0","0","12053","","null","","","null","70","","NaN","","","","","","","","","","","","","",""
"","response","","html-keyboard-response","476","660402","0.0-1.0-635.0-0.0","0","0","12053","","439","","","75","70","","","2","70","training","adjacent","FE","6","5","R.jpg","L.jpg","1","0","0","",""
"","feedback","","html-keyboard-response","477","661404","0.0-1.0-636.0-0.0","0","0","12053","","null","","","null","70","","","","","","","","","","","","","","","",""
"","time_out","","html-keyboard-response","478","663407","0.0-1.0-638.0-0.0","0","0","12053","","null","","","null","70","","","","","","","","","","","","","","","",""
"","ITI","","html-keyboard-response","479","664408","0.0-1.0-639.0","0","0","12053","","null","","","null","70","","","","","","","","","","","","","","","NaN",""
"","S1","","html-keyboard-response","480","664661","0.0-1.0-641.0","0","0","12053","","null","","","null","71","","","","","","","","","","","","","","","",""
"","ISI","","html-keyboard-response","481","665662","0.0-1.0-642.0","0","0","12053","","null","","","null","71","NaN","","","","","","","","","","","","","","",""
"","S2","","html-keyboard-response","482","665914","0.0-1.0-643.0","0","0","12053","","null","","","null","71","","NaN","","","","","","","","","","","","","",""
"","response","","html-keyboard-response","483","666763","0.0-1.0-644.0-0.0","0","0","12053","","847","","","75","71","","","2","71","training","adjacent","BA","2","1","M.jpg","P.jpg","1","0","0","",""
"","feedback","","html-keyboard-response","484","667766","0.0-1.0-645.0-0.0","0","0","12053","","null","","","null","71","","","","","","","","","","","","","","","",""
"","time_out","","html-keyboard-response","485","669768","0.0-1.0-647.0-0.0","0","0","12053","","null","","","null","71","","","","","","","","","","","","","","","",""
"","ITI","","html-keyboard-response","486","670770","0.0-1.0-648.0","0","0","12053","","null","","","null","71","","","","","","","","","","","","","","","NaN",""
"","S1","","html-keyboard-response","487","671022","0.0-1.0-650.0","0","0","12053","","null","","","null","72","","","","","","","","","","","","","","","",""
"","ISI","","html-keyboard-response","488","672035","0.0-1.0-651.0","0","0","12053","","null","","","null","72","NaN","","","","","","","","","","","","","","",""
"","S2","","html-keyboard-response","489","672287","0.0-1.0-652.0","0","0","12053","","null","","","null","72","","NaN","","","","","","","","","","","","","",""
"","response","","html-keyboard-response","490","672595","0.0-1.0-653.0-0.0","0","0","12053","","307","","","68","72","","","2","72","training","adjacent","CB","3","2","Q.jpg","M.jpg","0","0","1","",""
"","feedback","","html-keyboard-response","491","673598","0.0-1.0-654.0-0.0","0","0","12053","","null","","","null","72","","","","","","","","","","","","","","","",""
"","ITI","","html-keyboard-response","492","674600","0.0-1.0-657.0","0","0","12053","","null","","","null","72","","","","","","","","","","","","","","","NaN",""
"","S1","","html-keyboard-response","493","674852","0.0-1.0-659.0","0","0","12053","","null","","","null","73","","","","","","","","","","","","","","","",""
"","ISI","","html-keyboard-response","494","675854","0.0-1.0-660.0","0","0","12053","","null","","","null","73","NaN","","","","","","","","","","","","","","",""
"","S2","","html-keyboard-response","495","676107","0.0-1.0-661.0","0","0","12053","","null","","","null","73","","NaN","","","","","","","","","","","","","",""
"","response","","html-keyboard-response","496","676612","0.0-1.0-662.0-0.0","0","0","12053","","503","","","68","73","","","2","73","training","adjacent","CD","3","4","Q.jpg","O.jpg","0","1","0","",""
"","feedback","","html-keyboard-response","497","677613","0.0-1.0-663.0-0.0","0","0","12053","","null","","","null","73","","","","","","","","","","","","","","","",""
"","time_out","","html-keyboard-response","498","679616","0.0-1.0-665.0-0.0","0","0","12053","","null","","","null","73","","","","","","","","","","","","","","","",""
"","ITI","","html-keyboard-response","499","680618","0.0-1.0-666.0","0","0","12053","","null","","","null","73","","","","","","","","","","","","","","","NaN",""
"","S1","","html-keyboard-response","500","680870","0.0-1.0-668.0","0","0","12053","","null","","","null","74","","","","","","","","","","","","","","","",""
"","ISI","","html-keyboard-response","501","681871","0.0-1.0-669.0","0","0","12053","","null","","","null","74","NaN","","","","","","","","","","","","","","",""
"","S2","","html-keyboard-response","502","682124","0.0-1.0-670.0","0","0","12053","","null","","","null","74","","NaN","","","","","","","","","","","","","",""
"","response","","html-keyboard-response","503","682957","0.0-1.0-671.0-0.0","0","0","12053","","832","","","68","74","","","2","74","training","adjacent","ED","5","4","L.jpg","O.jpg","0","0","1","",""
"","feedback","","html-keyboard-response","504","683959","0.0-1.0-672.0-0.0","0","0","12053","","null","","","null","74","","","","","","","","","","","","","","","",""
"","ITI","","html-keyboard-response","505","684961","0.0-1.0-675.0","0","0","12053","","null","","","null","74","","","","","","","","","","","","","","","NaN",""
"","S1","","html-keyboard-response","506","685214","0.0-1.0-677.0","0","0","12053","","null","","","null","75","","","","","","","","","","","","","","","",""
"","ISI","","html-keyboard-response","507","686217","0.0-1.0-678.0","0","0","12053","","null","","","null","75","NaN","","","","","","","","","","","","","","",""
"","S2","","html-keyboard-response","508","686470","0.0-1.0-679.0","0","0","12053","","null","","","null","75","","NaN","","","","","","","","","","","","","",""
"","response","","html-keyboard-response","509","687093","0.0-1.0-680.0-0.0","0","0","12053","","622","","","68","75","","","2","75","training","adjacent","DE","4","5","O.jpg","L.jpg","0","1","0","",""
"","feedback","","html-keyboard-response","510","688095","0.0-1.0-681.0-0.0","0","0","12053","","null","","","null","75","","","","","","","","","","","","","","","",""
"","time_out","","html-keyboard-response","511","690097","0.0-1.0-683.0-0.0","0","0","12053","","null","","","null","75","","","","","","","","","","","","","","","",""
"","ITI","","html-keyboard-response","512","691099","0.0-1.0-684.0","0","0","12053","","null","","","null","75","","","","","","","","","","","","","","","NaN",""
"","S1","","html-keyboard-response","513","691351","0.0-1.0-686.0","0","0","12053","","null","","","null","76","","","","","","","","","","","","","","","",""
"","ISI","","html-keyboard-response","514","692353","0.0-1.0-687.0","0","0","12053","","null","","","null","76","NaN","","","","","","","","","","","","","","",""
"","S2","","html-keyboard-response","515","692605","0.0-1.0-688.0","0","0","12053","","null","","","null","76","","NaN","","","","","","","","","","","","","",""
"","response","","html-keyboard-response","516","692693","0.0-1.0-689.0-0.0","0","0","12053","","86","","","75","76","","","2","76","training","adjacent","CB","3","2","Q.jpg","M.jpg","1","0","0","",""
"","feedback","","html-keyboard-response","517","693696","0.0-1.0-690.0-0.0","0","0","12053","","null","","","null","76","","","","","","","","","","","","","","","",""
"","time_out","","html-keyboard-response","518","695699","0.0-1.0-692.0-0.0","0","0","12053","","null","","","null","76","","","","","","","","","","","","","","","",""
"","ITI","","html-keyboard-response","519","696700","0.0-1.0-693.0","0","0","12053","","null","","","null","76","","","","","","","","","","","","","","","NaN",""
"","S1","","html-keyboard-response","520","696952","0.0-1.0-695.0","0","0","12053","","null","","","null","77","","","","","","","","","","","","","","","",""
"","ISI","","html-keyboard-response","521","697954","0.0-1.0-696.0","0","0","12053","","null","","","null","77","NaN","","","","","","","","","","","","","","",""
"","S2","","html-keyboard-response","522","698207","0.0-1.0-697.0","0","0","12053","","null","","","null","77","","NaN","","","","","","","","","","","","","",""
"","response","","html-keyboard-response","523","699150","0.0-1.0-698.0-0.0","0","0","12053","","942","","","68","77","","","2","77","training","adjacent","DC","4","3","O.jpg","Q.jpg","0","0","1","",""
"","feedback","","html-keyboard-response","524","700152","0.0-1.0-699.0-0.0","0","0","12053","","null","","","null","77","","","","","","","","","","","","","","","",""
"","ITI","","html-keyboard-response","525","701155","0.0-1.0-702.0","0","0","12053","","null","","","null","77","","","","","","","","","","","","","","","NaN",""
"","S1","","html-keyboard-response","526","701408","0.0-1.0-704.0","0","0","12053","","null","","","null","78","","","","","","","","","","","","","","","",""
"","ISI","","html-keyboard-response","527","702410","0.0-1.0-705.0","0","0","12053","","null","","","null","78","NaN","","","","","","","","","","","","","","",""
"","S2","","html-keyboard-response","528","702662","0.0-1.0-706.0","0","0","12053","","null","","","null","78","","NaN","","","","","","","","","","","","","",""
"","response","","html-keyboard-response","529","702871","0.0-1.0-707.0-0.0","0","0","12053","","207","","","75","78","","","2","78","training","adjacent","GF","7","6","N.jpg","R.jpg","1","0","0","",""
"","feedback","","html-keyboard-response","530","703873","0.0-1.0-708.0-0.0","0","0","12053","","null","","","null","78","","","","","","","","","","","","","","","",""
"","time_out","","html-keyboard-response","531","705875","0.0-1.0-710.0-0.0","0","0","12053","","null","","","null","78","","","","","","","","","","","","","","","",""
"","ITI","","html-keyboard-response","532","706877","0.0-1.0-711.0","0","0","12053","","null","","","null","78","","","","","","","","","","","","","","","NaN",""
"","S1","","html-keyboard-response","533","707130","0.0-1.0-713.0","0","0","12053","","null","","","null","79","","","","","","","","","","","","","","","",""
"","ISI","","html-keyboard-response","534","708131","0.0-1.0-714.0","0","0","12053","","null","","","null","79","NaN","","","","","","","","","","","","","","",""
"","S2","","html-keyboard-response","535","708383","0.0-1.0-715.0","0","0","12053","","null","","","null","79","","NaN","","","","","","","","","","","","","",""
"","response","","html-keyboard-response","536","708879","0.0-1.0-716.0-0.0","0","0","12053","","495","","","75","79","","","2","79","training","adjacent","BC","2","3","M.jpg","Q.jpg","1","1","1","",""
"","feedback","","html-keyboard-response","537","709881","0.0-1.0-717.0-0.0","0","0","12053","","null","","","null","79","","","","","","","","","","","","","","","",""
"","ITI","","html-keyboard-response","538","710884","0.0-1.0-720.0","0","0","12053","","null","","","null","79","","","","","","","","","","","","","","","NaN",""
"","S1","","html-keyboard-response","539","711137","0.0-1.0-722.0","0","0","12053","","null","","","null","80","","","","","","","","","","","","","","","",""
"","ISI","","html-keyboard-response","540","712140","0.0-1.0-723.0","0","0","12053","","null","","","null","80","NaN","","","","","","","","","","","","","","",""
"","S2","","html-keyboard-response","541","712392","0.0-1.0-724.0","0","0","12053","","null","","","null","80","","NaN","","","","","","","","","","","","","",""
"","response","","html-keyboard-response","542","713080","0.0-1.0-725.0-0.0","0","0","12053","","687","","","68","80","","","2","80","training","adjacent","EF","5","6","L.jpg","R.jpg","0","1","0","",""
"","feedback","","html-keyboard-response","543","714082","0.0-1.0-726.0-0.0","0","0","12053","","null","","","null","80","","","","","","","","","","","","","","","",""
"","time_out","","html-keyboard-response","544","716084","0.0-1.0-728.0-0.0","0","0","12053","","null","","","null","80","","","","","","","","","","","","","","","",""
"","ITI","","html-keyboard-response","545","717085","0.0-1.0-729.0","0","0","12053","","null","","","null","80","","","","","","","","","","","","","","","NaN",""
"","S1","","html-keyboard-response","546","717339","0.0-1.0-731.0","0","0","12053","","null","","","null","81","","","","","","","","","","","","","","","",""
"","ISI","","html-keyboard-response","547","718341","0.0-1.0-732.0","0","0","12053","","null","","","null","81","NaN","","","","","","","","","","","","","","",""
"","S2","","html-keyboard-response","548","718593","0.0-1.0-733.0","0","0","12053","","null","","","null","81","","NaN","","","","","","","","","","","","","",""
"","response","","html-keyboard-response","549","719313","0.0-1.0-734.0-0.0","0","0","12053","","718","","","68","81","","","2","81","training","adjacent","FG","6","7","R.jpg","N.jpg","0","1","0","",""
"","feedback","","html-keyboard-response","550","720316","0.0-1.0-735.0-0.0","0","0","12053","","null","","","null","81","","","","","","","","","","","","","","","",""
"","time_out","","html-keyboard-response","551","722318","0.0-1.0-737.0-0.0","0","0","12053","","null","","","null","81","","","","","","","","","","","","","","","",""
"","ITI","","html-keyboard-response","552","723320","0.0-1.0-738.0","0","0","12053","","null","","","null","81","","","","","","","","","","","","","","","NaN",""
"","S1","","html-keyboard-response","553","723572","0.0-1.0-740.0","0","0","12053","","null","","","null","82","","","","","","","","","","","","","","","",""
"","ISI","","html-keyboard-response","554","724574","0.0-1.0-741.0","0","0","12053","","null","","","null","82","NaN","","","","","","","","","","","","","","",""
"","S2","","html-keyboard-response","555","724826","0.0-1.0-742.0","0","0","12053","","null","","","null","82","","NaN","","","","","","","","","","","","","",""
"","response","","html-keyboard-response","556","724945","0.0-1.0-743.0-0.0","0","0","12053","","118","","","75","82","","","2","82","training","adjacent","GF","7","6","N.jpg","R.jpg","1","0","0","",""
"","feedback","","html-keyboard-response","557","725948","0.0-1.0-744.0-0.0","0","0","12053","","null","","","null","82","","","","","","","","","","","","","","","",""
"","time_out","","html-keyboard-response","558","727951","0.0-1.0-746.0-0.0","0","0","12053","","null","","","null","82","","","","","","","","","","","","","","","",""
"","ITI","","html-keyboard-response","559","728953","0.0-1.0-747.0","0","0","12053","","null","","","null","82","","","","","","","","","","","","","","","NaN",""
"","S1","","html-keyboard-response","560","729205","0.0-1.0-749.0","0","0","12053","","null","","","null","83","","","","","","","","","","","","","","","",""
"","ISI","","html-keyboard-response","561","730207","0.0-1.0-750.0","0","0","12053","","null","","","null","83","NaN","","","","","","","","","","","","","","",""
"","S2","","html-keyboard-response","562","730459","0.0-1.0-751.0","0","0","12053","","null","","","null","83","","NaN","","","","","","","","","","","","","",""
"","response","","html-keyboard-response","563","730505","0.0-1.0-752.0-0.0","0","0","12053","","44","","","75","83","","","2","83","training","adjacent","EF","5","6","L.jpg","R.jpg","1","1","1","",""
"","feedback","","html-keyboard-response","564","731508","0.0-1.0-753.0-0.0","0","0","12053","","null","","","null","83","","","","","","","","","","","","","","","",""
"","ITI","","html-keyboard-response","565","732510","0.0-1.0-756.0","0","0","12053","","null","","","null","83","","","","","","","","","","","","","","","NaN",""
"","S1","","html-keyboard-response","566","732763","0.0-1.0-758.0","0","0","12053","","null","","","null","84","","","","","","","","","","","","","","","",""
"","ISI","","html-keyboard-response","567","733765","0.0-1.0-759.0","0","0","12053","","null","","","null","84","NaN","","","","","","","","","","","","","","",""
"","S2","","html-keyboard-response","568","734017","0.0-1.0-760.0","0","0","12053","","null","","","null","84","","NaN","","","","","","","","","","","","","",""
"","response","","html-keyboard-response","569","734562","0.0-1.0-761.0-0.0","0","0","12053","","543","","","75","84","","","2","84","training","adjacent","ED","5","4","L.jpg","O.jpg","1","0","0","",""
"","feedback","","html-keyboard-response","570","735564","0.0-1.0-762.0-0.0","0","0","12053","","null","","","null","84","","","","","","","","","","","","","","","",""
"","time_out","","html-keyboard-response","571","737567","0.0-1.0-764.0-0.0","0","0","12053","","null","","","null","84","","","","","","","","","","","","","","","",""
"","ITI","","html-keyboard-response","572","738571","0.0-1.0-765.0","0","0","12053","","null","","","null","84","","","","","","","","","","","","","","","NaN",""
"","S1","","html-keyboard-response","573","738824","0.0-1.0-767.0","0","0","12053","","null","","","null","85","","","","","","","","","","","","","","","",""
"","ISI","","html-keyboard-response","574","739826","0.0-1.0-768.0","0","0","12053","","null","","","null","85","NaN","","","","","","","","","","","","","","",""
"","S2","","html-keyboard-response","575","740080","0.0-1.0-769.0","0","0","12053","","null","","","null","85","","NaN","","","","","","","","","","","","","",""
"","response","","html-keyboard-response","576","740946","0.0-1.0-770.0-0.0","0","0","12053","","866","","","68","85","","","2","85","training","adjacent","BA","2","1","M.jpg","P.jpg","0","0","1","",""
