"success","ttype","start_time","trial_type","trial_index","time_elapsed","internal_node_id","warning","missed_checkup","PID","view_history","rt","responses","repeat_instructions","key_press","index","keypress_isi","keypress_S2","block","trial_num","phase","group_type","pair_type","S1_stim","S2_stim","S1_img","S2_img","S1_chosen","S1_higher","accuracy","keypress_iti","total_bonus_tally"
"true","full_screen","d04142023hr1252","fullscreen","0","5258","0.0-0.0","0","0","99651","","","","","","","","","","","","","","","","","","","","","",""
"","instructions","","instructions","1","31049","0.0-1.0-0.0-0.0","0","0","99651","[{""page_index"":0,""viewing_time"":3619},{""page_index"":1,""viewing_time"":15798},{""page_index"":2,""viewing_time"":4192},{""page_index"":3,""viewing_time"":2180}]","25789","","","","","","","","","","","","","","","","","","","",""
"","comprehension_check","","survey-multi-choice","2","51835","0.0-1.0-0.0-1.0","0","0","99651","","20783","{""Q0"":""True"",""Q1"":""K"",""Q2"":""Only when the screen 'MAKE A CHOICE' is shown"",""Q3"":""Green mark"",""Q4"":""either D or K""}","1","","","","","","","","","","","","","","","","","",""
"","missed_instruction_checkup","","html-keyboard-response","3","54391","0.0-1.0-0.0-2.0-0.0","0","1","99651","","2554","","","32","","","","","","","","","","","","","","","","",""
"","instructions","","instructions","4","63227","0.0-1.0-0.1-0.1","0","0","99651","[{""page_index"":0,""viewing_time"":3016},{""page_index"":1,""viewing_time"":3726},{""page_index"":2,""viewing_time"":1186},{""page_index"":3,""viewing_time"":906}]","8834","","","","","","","","","","","","","","","","","","","",""
"","comprehension_check","","survey-multi-choice","5","73426","0.0-1.0-0.1-1.1","0","0","99651","","10197","{""Q0"":""True"",""Q1"":"""",""Q2"":""Once the second image appears and while the screen 'MAKE A CHOICE' is shown"",""Q3"":""Green mark"",""Q4"":""either D or K""}","1","","","","","","","","","","","","","","","","","",""
"","missed_instruction_checkup","","html-keyboard-response","6","75261","0.0-1.0-0.1-2.1-0.1","0","1","99651","","1834","","","32","","","","","","","","","","","","","","","","",""
"","instructions","","instructions","7","95335","0.0-1.0-0.2-0.2","0","0","99651","[{""page_index"":0,""viewing_time"":3916},{""page_index"":1,""viewing_time"":11784},{""page_index"":2,""viewing_time"":3444},{""page_index"":3,""viewing_time"":928}]","20072","","","","","","","","","","","","","","","","","","","",""
"","comprehension_check","","survey-multi-choice","8","119529","0.0-1.0-0.2-1.2","0","0","99651","","24192","{""Q0"":""True"",""Q1"":""K"",""Q2"":""Once the second image appears and while the screen 'MAKE A CHOICE' is shown"",""Q3"":""Green mark"",""Q4"":""either D or K""}","0","","","","","","","","","","","","","","","","","",""
"","start_exp","","html-keyboard-response","9","122238","0.0-1.0-1.0","0","0","99651","","2708","","","32","","","","","","","","","","","","","","","","",""
"","S1","","html-keyboard-response","10","122491","0.0-1.0-2.0","0","0","99651","","null","","","null","0","","","","","","","","","","","","","","","",""
"","ISI","","html-keyboard-response","11","123494","0.0-1.0-3.0","0","0","99651","","null","","","null","0","NaN","","","","","","","","","","","","","","",""
"","S2","","html-keyboard-response","12","123748","0.0-1.0-4.0","0","0","99651","","null","","","null","0","","NaN","","","","","","","","","","","","","",""
"","response","","html-keyboard-response","13","124422","0.0-1.0-5.0-0.0","0","0","99651","","671","","","75","0","","","1","0","training","adjacent","CD","3","4","O.jpg","P.jpg","1","1","1","",""
"","feedback","","html-keyboard-response","14","125425","0.0-1.0-6.0-0.0","0","0","99651","","null","","","null","0","","","","","","","","","","","","","","","",""
"","ITI","","html-keyboard-response","15","126426","0.0-1.0-9.0","0","0","99651","","null","","","null","0","","","","","","","","","","","","","","","NaN",""
"","S1","","html-keyboard-response","16","126678","0.0-1.0-11.0","0","0","99651","","null","","","null","1","","","","","","","","","","","","","","","",""
"","ISI","","html-keyboard-response","17","127679","0.0-1.0-12.0","0","0","99651","","null","","","null","1","NaN","","","","","","","","","","","","","","",""
"","S2","","html-keyboard-response","18","127931","0.0-1.0-13.0","0","0","99651","","null","","","null","1","","NaN","","","","","","","","","","","","","",""
"","response","","html-keyboard-response","19","128982","0.0-1.0-14.0-0.0","0","0","99651","","1049","","","75","1","","","1","1","training","adjacent","GF","7","6","L.jpg","M.jpg","1","0","0","",""
"","feedback","","html-keyboard-response","20","129984","0.0-1.0-15.0-0.0","0","0","99651","","null","","","null","1","","","","","","","","","","","","","","","",""
"","time_out","","html-keyboard-response","21","131985","0.0-1.0-17.0-0.0","0","0","99651","","null","","","null","1","","","","","","","","","","","","","","","",""
"","ITI","","html-keyboard-response","22","132988","0.0-1.0-18.0","0","0","99651","","null","","","null","1","","","","","","","","","","","","","","","NaN",""
"","S1","","html-keyboard-response","23","133241","0.0-1.0-20.0","0","0","99651","","null","","","null","2","","","","","","","","","","","","","","","",""
"","ISI","","html-keyboard-response","24","134243","0.0-1.0-21.0","0","0","99651","","null","","","null","2","NaN","","","","","","","","","","","","","","",""
"","S2","","html-keyboard-response","25","134495","0.0-1.0-22.0","0","0","99651","","null","","","null","2","","NaN","","","","","","","","","","","","","",""
"","response","","html-keyboard-response","26","134994","0.0-1.0-23.0-0.0","0","0","99651","","496","","","68","2","","","1","2","training","adjacent","DC","4","3","P.jpg","O.jpg","0","0","1","",""
"","feedback","","html-keyboard-response","27","135996","0.0-1.0-24.0-0.0","0","0","99651","","null","","","null","2","","","","","","","","","","","","","","","",""
"","ITI","","html-keyboard-response","28","136999","0.0-1.0-27.0","0","0","99651","","null","","","null","2","","","","","","","","","","","","","","","NaN",""
"","S1","","html-keyboard-response","29","137252","0.0-1.0-29.0","0","0","99651","","null","","","null","3","","","","","","","","","","","","","","","",""
"","ISI","","html-keyboard-response","30","138255","0.0-1.0-30.0","0","0","99651","","null","","","null","3","NaN","","","","","","","","","","","","","","",""
"","S2","","html-keyboard-response","31","138507","0.0-1.0-31.0","0","0","99651","","null","","","null","3","","NaN","","","","","","","","","","","","","",""
"","response","","html-keyboard-response","32","138783","0.0-1.0-32.0-0.0","0","0","99651","","274","","","75","3","","","1","3","training","adjacent","FE","6","5","M.jpg","R.jpg","1","0","0","",""
"","feedback","","html-keyboard-response","33","139786","0.0-1.0-33.0-0.0","0","0","99651","","null","","","null","3","","","","","","","","","","","","","","","",""
"","time_out","","html-keyboard-response","34","141788","0.0-1.0-35.0-0.0","0","0","99651","","null","","","null","3","","","","","","","","","","","","","","","",""
"","ITI","","html-keyboard-response","35","142791","0.0-1.0-36.0","0","0","99651","","null","","","null","3","","","","","","","","","","","","","","","NaN",""
"","S1","","html-keyboard-response","36","143043","0.0-1.0-38.0","0","0","99651","","null","","","null","4","","","","","","","","","","","","","","","",""
"","ISI","","html-keyboard-response","37","144045","0.0-1.0-39.0","0","0","99651","","null","","","null","4","NaN","","","","","","","","","","","","","","",""
"","S2","","html-keyboard-response","38","144298","0.0-1.0-40.0","0","0","99651","","null","","","null","4","","NaN","","","","","","","","","","","","","",""
"","response","","html-keyboard-response","39","144343","0.0-1.0-41.0-0.0","0","0","99651","","44","","","68","4","","","1","4","training","adjacent","BA","2","1","N.jpg","Q.jpg","0","0","1","",""
"","feedback","","html-keyboard-response","40","145347","0.0-1.0-42.0-0.0","0","0","99651","","null","","","null","4","","","","","","","","","","","","","","","",""
"","ITI","","html-keyboard-response","41","146350","0.0-1.0-45.0","0","0","99651","","null","","","null","4","","","","","","","","","","","","","","","NaN",""
"","S1","","html-keyboard-response","42","146603","0.0-1.0-47.0","0","0","99651","","null","","","null","5","","","","","","","","","","","","","","","",""
"","ISI","","html-keyboard-response","43","147607","0.0-1.0-48.0","0","0","99651","","null","","","null","5","NaN","","","","","","","","","","","","","","",""
"","S2","","html-keyboard-response","44","147862","0.0-1.0-49.0","0","0","99651","","null","","","null","5","","NaN","","","","","","","","","","","","","",""
"","response","","html-keyboard-response","45","147943","0.0-1.0-50.0-0.0","0","0","99651","","80","","","75","5","","","1","5","training","adjacent","EF","5","6","R.jpg","M.jpg","1","1","1","",""
"","feedback","","html-keyboard-response","46","148946","0.0-1.0-51.0-0.0","0","0","99651","","null","","","null","5","","","","","","","","","","","","","","","",""
"","ITI","","html-keyboard-response","47","149949","0.0-1.0-54.0","0","0","99651","","null","","","null","5","","","","","","","","","","","","","","","NaN",""
"","S1","","html-keyboard-response","48","150202","0.0-1.0-56.0","0","0","99651","","null","","","null","6","","","","","","","","","","","","","","","",""
"","ISI","","html-keyboard-response","49","151205","0.0-1.0-57.0","0","0","99651","","null","","","null","6","NaN","","","","","","","","","","","","","","",""
"","S2","","html-keyboard-response","50","151459","0.0-1.0-58.0","0","0","99651","","null","","","null","6","","NaN","","","","","","","","","","","","","",""
"","response","","html-keyboard-response","51","151568","0.0-1.0-59.0-0.0","0","0","99651","","106","","","75","6","","","1","6","training","adjacent","BC","2","3","N.jpg","O.jpg","1","1","1","",""
"","feedback","","html-keyboard-response","52","152571","0.0-1.0-60.0-0.0","0","0","99651","","null","","","null","6","","","","","","","","","","","","","","","",""
"","ITI","","html-keyboard-response","53","153574","0.0-1.0-63.0","0","0","99651","","null","","","null","6","","","","","","","","","","","","","","","NaN",""
"","S1","","html-keyboard-response","54","153828","0.0-1.0-65.0","0","0","99651","","null","","","null","7","","","","","","","","","","","","","","","",""
"","ISI","","html-keyboard-response","55","154832","0.0-1.0-66.0","0","0","99651","","null","","","null","7","NaN","","","","","","","","","","","","","","",""
"","S2","","html-keyboard-response","56","155085","0.0-1.0-67.0","0","0","99651","","null","","","null","7","","NaN","","","","","","","","","","","","","",""
"","response","","html-keyboard-response","57","156511","0.0-1.0-68.0-0.0","0","0","99651","","1424","","","75","7","","","1","7","training","adjacent","AB","1","2","Q.jpg","N.jpg","1","1","1","",""
"","feedback","","html-keyboard-response","58","157518","0.0-1.0-69.0-0.0","0","0","99651","","null","","","null","7","","","","","","","","","","","","","","","",""
"","ITI","","html-keyboard-response","59","158523","0.0-1.0-72.0","0","0","99651","","null","","","null","7","","","","","","","","","","","","","","","NaN",""
"","S1","","html-keyboard-response","60","158776","0.0-1.0-74.0","0","0","99651","","null","","","null","8","","","","","","","","","","","","","","","",""
"","ISI","","html-keyboard-response","61","159780","0.0-1.0-75.0","0","0","99651","","null","","","null","8","NaN","","","","","","","","","","","","","","",""
"","S2","","html-keyboard-response","62","160033","0.0-1.0-76.0","0","0","99651","","null","","","null","8","","NaN","","","","","","","","","","","","","",""
"","response","","html-keyboard-response","63","160554","0.0-1.0-77.0-0.0","0","0","99651","","518","","","68","8","","","1","8","training","adjacent","ED","5","4","R.jpg","P.jpg","0","0","1","",""
"","feedback","","html-keyboard-response","64","161557","0.0-1.0-78.0-0.0","0","0","99651","","null","","","null","8","","","","","","","","","","","","","","","",""
"","ITI","","html-keyboard-response","65","162560","0.0-1.0-81.0","0","0","99651","","null","","","null","8","","","","","","","","","","","","","","","NaN",""
"","S1","","html-keyboard-response","66","162812","0.0-1.0-83.0","0","0","99651","","null","","","null","9","","","","","","","","","","","","","","","",""
"","ISI","","html-keyboard-response","67","163815","0.0-1.0-84.0","0","0","99651","","null","","","null","9","NaN","","","","","","","","","","","","","","",""
"","S2","","html-keyboard-response","68","163985","0.0-1.0-85.0","0","0","99651","","168","","","68","9","","d","1","9","training","adjacent","FG","6","7","M.jpg","L.jpg","0","1","0","",""
"","feedback","","html-keyboard-response","69","164989","0.0-1.0-87.0-0.0","0","0","99651","","null","","","null","9","","","","","","","","","","","","","","","",""
"","time_out","","html-keyboard-response","70","166992","0.0-1.0-89.0-0.0","0","0","99651","","null","","","null","9","","","","","","","","","","","","","","","",""
"","ITI","","html-keyboard-response","71","167995","0.0-1.0-90.0","0","0","99651","","null","","","null","9","","","","","","","","","","","","","","","NaN",""
"","S1","","html-keyboard-response","72","168246","0.0-1.0-92.0","0","0","99651","","null","","","null","10","","","","","","","","","","","","","","","",""
"","ISI","","html-keyboard-response","73","169249","0.0-1.0-93.0","0","0","99651","","336","","","75","10","k","","","","","","","","","","","","","","",""
"","S2","","html-keyboard-response","74","169502","0.0-1.0-94.0","0","0","99651","","null","","","null","10","","NaN","","","","","","","","","","","","","",""
"","response","","html-keyboard-response","75","169586","0.0-1.0-95.0-0.0","0","0","99651","","81","","","75","10","","","1","10","training","adjacent","AB","1","2","Q.jpg","N.jpg","1","1","1","",""
"","feedback","","html-keyboard-response","76","170601","0.0-1.0-96.0-0.0","0","0","99651","","null","","","null","10","","","","","","","","","","","","","","","",""
"","ITI","","html-keyboard-response","77","171604","0.0-1.0-99.0","0","0","99651","","null","","","null","10","","","","","","","","","","","","","","","NaN",""
"","S1","","html-keyboard-response","78","171857","0.0-1.0-101.0","0","0","99651","","null","","","null","11","","","","","","","","","","","","","","","",""
"","ISI","","html-keyboard-response","79","172859","0.0-1.0-102.0","0","0","99651","","null","","","null","11","NaN","","","","","","","","","","","","","","",""
"","S2","","html-keyboard-response","80","173113","0.0-1.0-103.0","0","0","99651","","null","","","null","11","","NaN","","","","","","","","","","","","","",""
"","response","","html-keyboard-response","81","173281","0.0-1.0-104.0-0.0","0","0","99651","","167","","","75","11","","","1","11","training","adjacent","FG","6","7","M.jpg","L.jpg","1","1","1","",""
"","feedback","","html-keyboard-response","82","174284","0.0-1.0-105.0-0.0","0","0","99651","","null","","","null","11","","","","","","","","","","","","","","","",""
"","ITI","","html-keyboard-response","83","175287","0.0-1.0-108.0","0","0","99651","","null","","","null","11","","","","","","","","","","","","","","","NaN",""
"","S1","","html-keyboard-response","84","175540","0.0-1.0-110.0","0","0","99651","","null","","","null","12","","","","","","","","","","","","","","","",""
"","ISI","","html-keyboard-response","85","176543","0.0-1.0-111.0","0","0","99651","","null","","","null","12","NaN","","","","","","","","","","","","","","",""
"","S2","","html-keyboard-response","86","176796","0.0-1.0-112.0","0","0","99651","","null","","","null","12","","NaN","","","","","","","","","","","","","",""
"","response","","html-keyboard-response","87","177801","0.0-1.0-113.0-0.0","0","0","99651","","1002","","","75","12","","","1","12","training","adjacent","GF","7","6","L.jpg","M.jpg","1","0","0","",""
"","feedback","","html-keyboard-response","88","178804","0.0-1.0-114.0-0.0","0","0","99651","","null","","","null","12","","","","","","","","","","","","","","","",""
"","time_out","","html-keyboard-response","89","180808","0.0-1.0-116.0-0.0","0","0","99651","","null","","","null","12","","","","","","","","","","","","","","","",""
"","ITI","","html-keyboard-response","90","181812","0.0-1.0-117.0","0","0","99651","","null","","","null","12","","","","","","","","","","","","","","","NaN",""
"","S1","","html-keyboard-response","91","182065","0.0-1.0-119.0","0","0","99651","","null","","","null","13","","","","","","","","","","","","","","","",""
"","ISI","","html-keyboard-response","92","183067","0.0-1.0-120.0","0","0","99651","","null","","","null","13","NaN","","","","","","","","","","","","","","",""
"","S2","","html-keyboard-response","93","183320","0.0-1.0-121.0","0","0","99651","","null","","","null","13","","NaN","","","","","","","","","","","","","",""
"","response","","html-keyboard-response","94","185072","0.0-1.0-122.0-0.0","0","0","99651","","null","","","null","13","","","1","13","training","adjacent","DE","4","5","P.jpg","R.jpg","NaN","1","0","",""
"","too_slow_prompt","","html-keyboard-response","95","186075","0.0-1.0-124.0-0.0","1","0","99651","","null","","","null","","","","","","","","","","","","","","","","",""
"","time_out","","html-keyboard-response","96","188079","0.0-1.0-125.0-0.0","0","0","99651","","null","","","null","13","","","","","","","","","","","","","","","",""
"","ITI","","html-keyboard-response","97","189082","0.0-1.0-126.0","0","0","99651","","null","","","null","13","","","","","","","","","","","","","","","NaN",""
"","S1","","html-keyboard-response","98","189334","0.0-1.0-128.0","0","0","99651","","null","","","null","14","","","","","","","","","","","","","","","",""
"","ISI","","html-keyboard-response","99","190337","0.0-1.0-129.0","0","0","99651","","null","","","null","14","NaN","","","","","","","","","","","","","","",""
"","S2","","html-keyboard-response","100","190590","0.0-1.0-130.0","0","0","99651","","null","","","null","14","","NaN","","","","","","","","","","","","","",""
"","response","","html-keyboard-response","101","190697","0.0-1.0-131.0-0.0","0","0","99651","","106","","","75","14","","","1","14","training","adjacent","FG","6","7","M.jpg","L.jpg","1","1","1","",""
"","feedback","","html-keyboard-response","102","191700","0.0-1.0-132.0-0.0","0","0","99651","","null","","","null","14","","","","","","","","","","","","","","","",""
"","ITI","","html-keyboard-response","103","192704","0.0-1.0-135.0","0","0","99651","","null","","","null","14","","","","","","","","","","","","","","","NaN",""
"","S1","","html-keyboard-response","104","192957","0.0-1.0-137.0","0","0","99651","","null","","","null","15","","","","","","","","","","","","","","","",""
"","ISI","","html-keyboard-response","105","193960","0.0-1.0-138.0","0","0","99651","","null","","","null","15","NaN","","","","","","","","","","","","","","",""
"","S2","","html-keyboard-response","106","194214","0.0-1.0-139.0","0","0","99651","","null","","","null","15","","NaN","","","","","","","","","","","","","",""
"","response","","html-keyboard-response","107","195002","0.0-1.0-140.0-0.0","0","0","99651","","787","","","68","15","","","1","15","training","adjacent","FE","6","5","M.jpg","R.jpg","0","0","1","",""
"","feedback","","html-keyboard-response","108","196005","0.0-1.0-141.0-0.0","0","0","99651","","null","","","null","15","","","","","","","","","","","","","","","",""
"","ITI","","html-keyboard-response","109","197007","0.0-1.0-144.0","0","0","99651","","null","","","null","15","","","","","","","","","","","","","","","NaN",""
"","S1","","html-keyboard-response","110","197261","0.0-1.0-146.0","0","0","99651","","null","","","null","16","","","","","","","","","","","","","","","",""
"","ISI","","html-keyboard-response","111","198263","0.0-1.0-147.0","0","0","99651","","null","","","null","16","NaN","","","","","","","","","","","","","","",""
"","S2","","html-keyboard-response","112","198517","0.0-1.0-148.0","0","0","99651","","null","","","null","16","","NaN","","","","","","","","","","","","","",""
"","response","","html-keyboard-response","113","198809","0.0-1.0-149.0-0.0","0","0","99651","","289","","","68","16","","","1","16","training","adjacent","BA","2","1","N.jpg","Q.jpg","0","0","1","",""
"","feedback","","html-keyboard-response","114","199811","0.0-1.0-150.0-0.0","0","0","99651","","null","","","null","16","","","","","","","","","","","","","","","",""
"","ITI","","html-keyboard-response","115","200813","0.0-1.0-153.0","0","0","99651","","null","","","null","16","","","","","","","","","","","","","","","NaN",""
"","S1","","html-keyboard-response","116","201066","0.0-1.0-155.0","0","0","99651","","null","","","null","17","","","","","","","","","","","","","","","",""
"","ISI","","html-keyboard-response","117","202068","0.0-1.0-156.0","0","0","99651","","null","","","null","17","NaN","","","","","","","","","","","","","","",""
"","S2","","html-keyboard-response","118","202249","0.0-1.0-157.0","0","0","99651","","179","","","75","17","","k","1","17","training","adjacent","AB","1","2","Q.jpg","N.jpg","1","1","1","",""
"","feedback","","html-keyboard-response","119","203252","0.0-1.0-159.0-0.0","0","0","99651","","null","","","null","17","","","","","","","","","","","","","","","",""
"","ITI","","html-keyboard-response","120","204254","0.0-1.0-162.0","0","0","99651","","null","","","null","17","","","","","","","","","","","","","","","NaN",""
"","S1","","html-keyboard-response","121","204508","0.0-1.0-164.0","0","0","99651","","null","","","null","18","","","","","","","","","","","","","","","",""
"","ISI","","html-keyboard-response","122","205510","0.0-1.0-165.0","0","0","99651","","null","","","null","18","NaN","","","","","","","","","","","","","","",""
"","S2","","html-keyboard-response","123","205764","0.0-1.0-166.0","0","0","99651","","null","","","null","18","","NaN","","","","","","","","","","","","","",""
"","response","","html-keyboard-response","124","206033","0.0-1.0-167.0-0.0","0","0","99651","","267","","","75","18","","","1","18","training","adjacent","CB","3","2","O.jpg","N.jpg","1","0","0","",""
"","feedback","","html-keyboard-response","125","207036","0.0-1.0-168.0-0.0","0","0","99651","","null","","","null","18","","","","","","","","","","","","","","","",""
"","time_out","","html-keyboard-response","126","209039","0.0-1.0-170.0-0.0","0","0","99651","","null","","","null","18","","","","","","","","","","","","","","","",""
"","ITI","","html-keyboard-response","127","210042","0.0-1.0-171.0","0","0","99651","","null","","","null","18","","","","","","","","","","","","","","","NaN",""
"","S1","","html-keyboard-response","128","210295","0.0-1.0-173.0","0","0","99651","","null","","","null","19","","","","","","","","","","","","","","","",""
"","ISI","","html-keyboard-response","129","211298","0.0-1.0-174.0","0","0","99651","","519","","","68","19","d","","","","","","","","","","","","","","",""
"","S2","","html-keyboard-response","130","211353","0.0-1.0-175.0","0","0","99651","","52","","","68","19","","d","1","19","training","adjacent","DC","4","3","P.jpg","O.jpg","0","0","1","",""
"","feedback","","html-keyboard-response","131","212357","0.0-1.0-177.0-0.0","0","0","99651","","null","","","null","19","","","","","","","","","","","","","","","",""
"","ITI","","html-keyboard-response","132","213360","0.0-1.0-180.0","0","0","99651","","null","","","null","19","","","","","","","","","","","","","","","NaN",""
"","S1","","html-keyboard-response","133","213614","0.0-1.0-182.0","0","0","99651","","null","","","null","20","","","","","","","","","","","","","","","",""
"","ISI","","html-keyboard-response","134","214617","0.0-1.0-183.0","0","0","99651","","802","","","75","20","k","","","","","","","","","","","","","","",""
"","S2","","html-keyboard-response","135","214870","0.0-1.0-184.0","0","0","99651","","null","","","null","20","","NaN","","","","","","","","","","","","","",""
"","response","","html-keyboard-response","136","216623","0.0-1.0-185.0-0.0","0","0","99651","","null","","","null","20","","","1","20","training","adjacent","ED","5","4","R.jpg","P.jpg","NaN","0","0","",""
"","too_slow_prompt","","html-keyboard-response","137","217626","0.0-1.0-187.0-0.0","1","0","99651","","null","","","null","","","","","","","","","","","","","","","","",""
"","time_out","","html-keyboard-response","138","219631","0.0-1.0-188.0-0.0","0","0","99651","","null","","","null","20","","","","","","","","","","","","","","","",""
"","ITI","","html-keyboard-response","139","220634","0.0-1.0-189.0","0","0","99651","","null","","","null","20","","","","","","","","","","","","","","","NaN",""
"","S1","","html-keyboard-response","140","220887","0.0-1.0-191.0","0","0","99651","","null","","","null","21","","","","","","","","","","","","","","","",""
"","ISI","","html-keyboard-response","141","221890","0.0-1.0-192.0","0","0","99651","","null","","","null","21","NaN","","","","","","","","","","","","","","",""
"","S2","","html-keyboard-response","142","222143","0.0-1.0-193.0","0","0","99651","","null","","","null","21","","NaN","","","","","","","","","","","","","",""
"","response","","html-keyboard-response","143","222434","0.0-1.0-194.0-0.0","0","0","99651","","289","","","75","21","","","1","21","training","adjacent","GF","7","6","L.jpg","M.jpg","1","0","0","",""
"","feedback","","html-keyboard-response","144","223436","0.0-1.0-195.0-0.0","0","0","99651","","null","","","null","21","","","","","","","","","","","","","","","",""
"","time_out","","html-keyboard-response","145","225439","0.0-1.0-197.0-0.0","0","0","99651","","null","","","null","21","","","","","","","","","","","","","","","",""
"","ITI","","html-keyboard-response","146","226442","0.0-1.0-198.0","0","0","99651","","null","","","null","21","","","","","","","","","","","","","","","NaN",""
"","S1","","html-keyboard-response","147","226695","0.0-1.0-200.0","0","0","99651","","null","","","null","22","","","","","","","","","","","","","","","",""
"","ISI","","html-keyboard-response","148","227698","0.0-1.0-201.0","0","0","99651","","null","","","null","22","NaN","","","","","","","","","","","","","","",""
"","S2","","html-keyboard-response","149","227951","0.0-1.0-202.0","0","0","99651","","null","","","null","22","","NaN","","","","","","","","","","","","","",""
"","response","","html-keyboard-response","150","228362","0.0-1.0-203.0-0.0","0","0","99651","","409","","","68","22","","","1","22","training","adjacent","BA","2","1","N.jpg","Q.jpg","0","0","1","",""
"","feedback","","html-keyboard-response","151","229364","0.0-1.0-204.0-0.0","0","0","99651","","null","","","null","22","","","","","","","","","","","","","","","",""
"","ITI","","html-keyboard-response","152","230368","0.0-1.0-207.0","0","0","99651","","null","","","null","22","","","","","","","","","","","","","","","NaN",""
"","S1","","html-keyboard-response","153","230621","0.0-1.0-209.0","0","0","99651","","null","","","null","23","","","","","","","","","","","","","","","",""
"","ISI","","html-keyboard-response","154","231625","0.0-1.0-210.0","0","0","99651","","null","","","null","23","NaN","","","","","","","","","","","","","","",""
"","S2","","html-keyboard-response","155","231878","0.0-1.0-211.0","0","0","99651","","null","","","null","23","","NaN","","","","","","","","","","","","","",""
"","response","","html-keyboard-response","156","232523","0.0-1.0-212.0-0.0","0","0","99651","","643","","","75","23","","","1","23","training","adjacent","DE","4","5","P.jpg","R.jpg","1","1","1","",""
"","feedback","","html-keyboard-response","157","233527","0.0-1.0-213.0-0.0","0","0","99651","","null","","","null","23","","","","","","","","","","","","","","","",""
"","ITI","","html-keyboard-response","158","234530","0.0-1.0-216.0","0","0","99651","","null","","","null","23","","","","","","","","","","","","","","","NaN",""
"","S1","","html-keyboard-response","159","234784","0.0-1.0-218.0","0","0","99651","","null","","","null","24","","","","","","","","","","","","","","","",""
"","ISI","","html-keyboard-response","160","235789","0.0-1.0-219.0","0","0","99651","","null","","","null","24","NaN","","","","","","","","","","","","","","",""
"","S2","","html-keyboard-response","161","236043","0.0-1.0-220.0","0","0","99651","","null","","","null","24","","NaN","","","","","","","","","","","","","",""
"","response","","html-keyboard-response","162","236347","0.0-1.0-221.0-0.0","0","0","99651","","303","","","75","24","","","1","24","training","adjacent","CD","3","4","O.jpg","P.jpg","1","1","1","",""
"","feedback","","html-keyboard-response","163","237351","0.0-1.0-222.0-0.0","0","0","99651","","null","","","null","24","","","","","","","","","","","","","","","",""
"","ITI","","html-keyboard-response","164","238354","0.0-1.0-225.0","0","0","99651","","null","","","null","24","","","","","","","","","","","","","","","NaN",""
"","S1","","html-keyboard-response","165","238607","0.0-1.0-227.0","0","0","99651","","null","","","null","25","","","","","","","","","","","","","","","",""
"","ISI","","html-keyboard-response","166","239610","0.0-1.0-228.0","0","0","99651","","443","","","75","25","k","","","","","","","","","","","","","","",""
"","S2","","html-keyboard-response","167","239863","0.0-1.0-229.0","0","0","99651","","null","","","null","25","","NaN","","","","","","","","","","","","","",""
"","response","","html-keyboard-response","168","240355","0.0-1.0-230.0-0.0","0","0","99651","","491","","","75","25","","","1","25","training","adjacent","CB","3","2","O.jpg","N.jpg","1","0","0","",""
"","feedback","","html-keyboard-response","169","241358","0.0-1.0-231.0-0.0","0","0","99651","","null","","","null","25","","","","","","","","","","","","","","","",""
"","time_out","","html-keyboard-response","170","243361","0.0-1.0-233.0-0.0","0","0","99651","","null","","","null","25","","","","","","","","","","","","","","","",""
"","ITI","","html-keyboard-response","171","244364","0.0-1.0-234.0","0","0","99651","","null","","","null","25","","","","","","","","","","","","","","","NaN",""
"","S1","","html-keyboard-response","172","244617","0.0-1.0-236.0","0","0","99651","","null","","","null","26","","","","","","","","","","","","","","","",""
"","ISI","","html-keyboard-response","173","245620","0.0-1.0-237.0","0","0","99651","","null","","","null","26","NaN","","","","","","","","","","","","","","",""
"","S2","","html-keyboard-response","174","245873","0.0-1.0-238.0","0","0","99651","","null","","","null","26","","NaN","","","","","","","","","","","","","",""
"","response","","html-keyboard-response","175","246563","0.0-1.0-239.0-0.0","0","0","99651","","688","","","68","26","","","1","26","training","adjacent","EF","5","6","R.jpg","M.jpg","0","1","0","",""
"","feedback","","html-keyboard-response","176","247567","0.0-1.0-240.0-0.0","0","0","99651","","null","","","null","26","","","","","","","","","","","","","","","",""
"","time_out","","html-keyboard-response","177","249570","0.0-1.0-242.0-0.0","0","0","99651","","null","","","null","26","","","","","","","","","","","","","","","",""
"","ITI","","html-keyboard-response","178","250572","0.0-1.0-243.0","0","0","99651","","null","","","null","26","","","","","","","","","","","","","","","NaN",""
"","S1","","html-keyboard-response","179","250826","0.0-1.0-245.0","0","0","99651","","null","","","null","27","","","","","","","","","","","","","","","",""
"","ISI","","html-keyboard-response","180","251828","0.0-1.0-246.0","0","0","99651","","null","","","null","27","NaN","","","","","","","","","","","","","","",""
"","S2","","html-keyboard-response","181","252082","0.0-1.0-247.0","0","0","99651","","null","","","null","27","","NaN","","","","","","","","","","","","","",""
"","response","","html-keyboard-response","182","252723","0.0-1.0-248.0-0.0","0","0","99651","","638","","","75","27","","","1","27","training","adjacent","BC","2","3","N.jpg","O.jpg","1","1","1","",""
"","feedback","","html-keyboard-response","183","253726","0.0-1.0-249.0-0.0","0","0","99651","","null","","","null","27","","","","","","","","","","","","","","","",""
"","ITI","","html-keyboard-response","184","254730","0.0-1.0-252.0","0","0","99651","","null","","","null","27","","","","","","","","","","","","","","","NaN",""
"","S1","","html-keyboard-response","185","254983","0.0-1.0-254.0","0","0","99651","","null","","","null","28","","","","","","","","","","","","","","","",""
"","ISI","","html-keyboard-response","186","255986","0.0-1.0-255.0","0","0","99651","","null","","","null","28","NaN","","","","","","","","","","","","","","",""
"","S2","","html-keyboard-response","187","256239","0.0-1.0-256.0","0","0","99651","","null","","","null","28","","NaN","","","","","","","","","","","","","",""
"","response","","html-keyboard-response","188","256921","0.0-1.0-257.0-0.0","0","0","99651","","681","","","75","28","","","1","28","training","adjacent","BA","2","1","N.jpg","Q.jpg","1","0","0","",""
"","feedback","","html-keyboard-response","189","257924","0.0-1.0-258.0-0.0","0","0","99651","","null","","","null","28","","","","","","","","","","","","","","","",""
"","time_out","","html-keyboard-response","190","259928","0.0-1.0-260.0-0.0","0","0","99651","","null","","","null","28","","","","","","","","","","","","","","","",""
"","ITI","","html-keyboard-response","191","260931","0.0-1.0-261.0","0","0","99651","","null","","","null","28","","","","","","","","","","","","","","","NaN",""
"","S1","","html-keyboard-response","192","261190","0.0-1.0-263.0","0","0","99651","","null","","","null","29","","","","","","","","","","","","","","","",""
"","ISI","","html-keyboard-response","193","262192","0.0-1.0-264.0","0","0","99651","","null","","","null","29","NaN","","","","","","","","","","","","","","",""
"","S2","","html-keyboard-response","194","262446","0.0-1.0-265.0","0","0","99651","","null","","","null","29","","NaN","","","","","","","","","","","","","",""
"","response","","html-keyboard-response","195","263276","0.0-1.0-266.0-0.0","0","0","99651","","827","","","68","29","","","1","29","training","adjacent","DC","4","3","P.jpg","O.jpg","0","0","1","",""
"","feedback","","html-keyboard-response","196","264279","0.0-1.0-267.0-0.0","0","0","99651","","null","","","null","29","","","","","","","","","","","","","","","",""
"","ITI","","html-keyboard-response","197","265284","0.0-1.0-270.0","0","0","99651","","null","","","null","29","","","","","","","","","","","","","","","NaN",""
"","S1","","html-keyboard-response","198","265538","0.0-1.0-272.0","0","0","99651","","null","","","null","30","","","","","","","","","","","","","","","",""
"","ISI","","html-keyboard-response","199","266541","0.0-1.0-273.0","0","0","99651","","null","","","null","30","NaN","","","","","","","","","","","","","","",""
"","S2","","html-keyboard-response","200","266794","0.0-1.0-274.0","0","0","99651","","null","","","null","30","","NaN","","","","","","","","","","","","","",""
"","response","","html-keyboard-response","201","267291","0.0-1.0-275.0-0.0","0","0","99651","","495","","","68","30","","","1","30","training","adjacent","FG","6","7","M.jpg","L.jpg","0","1","0","",""
"","feedback","","html-keyboard-response","202","268294","0.0-1.0-276.0-0.0","0","0","99651","","null","","","null","30","","","","","","","","","","","","","","","",""
"","time_out","","html-keyboard-response","203","270297","0.0-1.0-278.0-0.0","0","0","99651","","null","","","null","30","","","","","","","","","","","","","","","",""
"","ITI","","html-keyboard-response","204","271301","0.0-1.0-279.0","0","0","99651","","null","","","null","30","","","","","","","","","","","","","","","NaN",""
"","S1","","html-keyboard-response","205","271553","0.0-1.0-281.0","0","0","99651","","null","","","null","31","","","","","","","","","","","","","","","",""
"","ISI","","html-keyboard-response","206","272556","0.0-1.0-282.0","0","0","99651","","null","","","null","31","NaN","","","","","","","","","","","","","","",""
"","S2","","html-keyboard-response","207","272810","0.0-1.0-283.0","0","0","99651","","null","","","null","31","","NaN","","","","","","","","","","","","","",""
"","response","","html-keyboard-response","208","273123","0.0-1.0-284.0-0.0","0","0","99651","","312","","","75","31","","","1","31","training","adjacent","CD","3","4","O.jpg","P.jpg","1","1","1","",""
"","feedback","","html-keyboard-response","209","274126","0.0-1.0-285.0-0.0","0","0","99651","","null","","","null","31","","","","","","","","","","","","","","","",""
"","ITI","","html-keyboard-response","210","275130","0.0-1.0-288.0","0","0","99651","","null","","","null","31","","","","","","","","","","","","","","","NaN",""
"","S1","","html-keyboard-response","211","275398","0.0-1.0-290.0","0","0","99651","","null","","","null","32","","","","","","","","","","","","","","","",""
"","ISI","","html-keyboard-response","212","276401","0.0-1.0-291.0","0","0","99651","","null","","","null","32","NaN","","","","","","","","","","","","","","",""
"","S2","","html-keyboard-response","213","276655","0.0-1.0-292.0","0","0","99651","","null","","","null","32","","NaN","","","","","","","","","","","","","",""
"","response","","html-keyboard-response","214","276715","0.0-1.0-293.0-0.0","0","0","99651","","59","","","75","32","","","1","32","training","adjacent","AB","1","2","Q.jpg","N.jpg","1","1","1","",""
"","feedback","","html-keyboard-response","215","277718","0.0-1.0-294.0-0.0","0","0","99651","","null","","","null","32","","","","","","","","","","","","","","","",""
"","ITI","","html-keyboard-response","216","278722","0.0-1.0-297.0","0","0","99651","","null","","","null","32","","","","","","","","","","","","","","","NaN",""
"","S1","","html-keyboard-response","217","278985","0.0-1.0-299.0","0","0","99651","","null","","","null","33","","","","","","","","","","","","","","","",""
"","ISI","","html-keyboard-response","218","279990","0.0-1.0-300.0","0","0","99651","","null","","","null","33","NaN","","","","","","","","","","","","","","",""
"","S2","","html-keyboard-response","219","280243","0.0-1.0-301.0","0","0","99651","","null","","","null","33","","NaN","","","","","","","","","","","","","",""
"","response","","html-keyboard-response","220","280276","0.0-1.0-302.0-0.0","0","0","99651","","31","","","75","33","","","1","33","training","adjacent","GF","7","6","L.jpg","M.jpg","1","0","0","",""
"","feedback","","html-keyboard-response","221","281287","0.0-1.0-303.0-0.0","0","0","99651","","null","","","null","33","","","","","","","","","","","","","","","",""
"","time_out","","html-keyboard-response","222","283289","0.0-1.0-305.0-0.0","0","0","99651","","null","","","null","33","","","","","","","","","","","","","","","",""
"","ITI","","html-keyboard-response","223","284292","0.0-1.0-306.0","0","0","99651","","null","","","null","33","","","","","","","","","","","","","","","NaN",""
"","S1","","html-keyboard-response","224","284545","0.0-1.0-308.0","0","0","99651","","null","","","null","34","","","","","","","","","","","","","","","",""
"","ISI","","html-keyboard-response","225","285548","0.0-1.0-309.0","0","0","99651","","null","","","null","34","NaN","","","","","","","","","","","","","","",""
"","S2","","html-keyboard-response","226","285802","0.0-1.0-310.0","0","0","99651","","null","","","null","34","","NaN","","","","","","","","","","","","","",""
"","response","","html-keyboard-response","227","285989","0.0-1.0-311.0-0.0","0","0","99651","","185","","","68","34","","","1","34","training","adjacent","ED","5","4","R.jpg","P.jpg","0","0","1","",""
"","feedback","","html-keyboard-response","228","286991","0.0-1.0-312.0-0.0","0","0","99651","","null","","","null","34","","","","","","","","","","","","","","","",""
"","ITI","","html-keyboard-response","229","287995","0.0-1.0-315.0","0","0","99651","","null","","","null","34","","","","","","","","","","","","","","","NaN",""
"","S1","","html-keyboard-response","230","288248","0.0-1.0-317.0","0","0","99651","","null","","","null","35","","","","","","","","","","","","","","","",""
"","ISI","","html-keyboard-response","231","289250","0.0-1.0-318.0","0","0","99651","","947","","","75","35","k","","","","","","","","","","","","","","",""
"","S2","","html-keyboard-response","232","289504","0.0-1.0-319.0","0","0","99651","","null","","","null","35","","NaN","","","","","","","","","","","","","",""
"","response","","html-keyboard-response","233","289812","0.0-1.0-320.0-0.0","0","0","99651","","307","","","75","35","","","1","35","training","adjacent","CD","3","4","O.jpg","P.jpg","1","1","1","",""
"","feedback","","html-keyboard-response","234","290816","0.0-1.0-321.0-0.0","0","0","99651","","null","","","null","35","","","","","","","","","","","","","","","",""
"","ITI","","html-keyboard-response","235","291819","0.0-1.0-324.0","0","0","99651","","null","","","null","35","","","","","","","","","","","","","","","NaN",""
"","S1","","html-keyboard-response","236","292071","0.0-1.0-326.0","0","0","99651","","null","","","null","36","","","","","","","","","","","","","","","",""
"","ISI","","html-keyboard-response","237","293075","0.0-1.0-327.0","0","0","99651","","null","","","null","36","NaN","","","","","","","","","","","","","","",""
"","S2","","html-keyboard-response","238","293329","0.0-1.0-328.0","0","0","99651","","null","","","null","36","","NaN","","","","","","","","","","","","","",""
"","response","","html-keyboard-response","239","293356","0.0-1.0-329.0-0.0","0","0","99651","","25","","","75","36","","","1","36","training","adjacent","EF","5","6","R.jpg","M.jpg","1","1","1","",""
"","feedback","","html-keyboard-response","240","294360","0.0-1.0-330.0-0.0","0","0","99651","","null","","","null","36","","","","","","","","","","","","","","","",""
"","ITI","","html-keyboard-response","241","295369","0.0-1.0-333.0","0","0","99651","","null","","","null","36","","","","","","","","","","","","","","","NaN",""
"","S1","","html-keyboard-response","242","295622","0.0-1.0-335.0","0","0","99651","","null","","","null","37","","","","","","","","","","","","","","","",""
"","ISI","","html-keyboard-response","243","296625","0.0-1.0-336.0","0","0","99651","","null","","","null","37","NaN","","","","","","","","","","","","","","",""
"","S2","","html-keyboard-response","244","296879","0.0-1.0-337.0","0","0","99651","","null","","","null","37","","NaN","","","","","","","","","","","","","",""
"","response","","html-keyboard-response","245","296948","0.0-1.0-338.0-0.0","0","0","99651","","67","","","75","37","","","1","37","training","adjacent","DE","4","5","P.jpg","R.jpg","1","1","1","",""
"","feedback","","html-keyboard-response","246","297952","0.0-1.0-339.0-0.0","0","0","99651","","null","","","null","37","","","","","","","","","","","","","","","",""
"","ITI","","html-keyboard-response","247","298955","0.0-1.0-342.0","0","0","99651","","null","","","null","37","","","","","","","","","","","","","","","NaN",""
"","S1","","html-keyboard-response","248","299209","0.0-1.0-344.0","0","0","99651","","null","","","null","38","","","","","","","","","","","","","","","",""
"","ISI","","html-keyboard-response","249","300211","0.0-1.0-345.0","0","0","99651","","null","","","null","38","NaN","","","","","","","","","","","","","","",""
"","S2","","html-keyboard-response","250","300465","0.0-1.0-346.0","0","0","99651","","null","","","null","38","","NaN","","","","","","","","","","","","","",""
"","response","","html-keyboard-response","251","300573","0.0-1.0-347.0-0.0","0","0","99651","","106","","","75","38","","","1","38","training","adjacent","DE","4","5","P.jpg","R.jpg","1","1","1","",""
"","feedback","","html-keyboard-response","252","301576","0.0-1.0-348.0-0.0","0","0","99651","","null","","","null","38","","","","","","","","","","","","","","","",""
"","ITI","","html-keyboard-response","253","302578","0.0-1.0-351.0","0","0","99651","","null","","","null","38","","","","","","","","","","","","","","","NaN",""
"","S1","","html-keyboard-response","254","302832","0.0-1.0-353.0","0","0","99651","","null","","","null","39","","","","","","","","","","","","","","","",""
"","ISI","","html-keyboard-response","255","303834","0.0-1.0-354.0","0","0","99651","","null","","","null","39","NaN","","","","","","","","","","","","","","",""
"","S2","","html-keyboard-response","256","304086","0.0-1.0-355.0","0","0","99651","","null","","","null","39","","NaN","","","","","","","","","","","","","",""
"","response","","html-keyboard-response","257","304138","0.0-1.0-356.0-0.0","0","0","99651","","52","","","75","39","","","1","39","training","adjacent","FE","6","5","M.jpg","R.jpg","1","0","0","",""
"","feedback","","html-keyboard-response","258","305141","0.0-1.0-357.0-0.0","0","0","99651","","null","","","null","39","","","","","","","","","","","","","","","",""
"","time_out","","html-keyboard-response","259","307143","0.0-1.0-359.0-0.0","0","0","99651","","null","","","null","39","","","","","","","","","","","","","","","",""
"","ITI","","html-keyboard-response","260","308146","0.0-1.0-360.0","0","0","99651","","null","","","null","39","","","","","","","","","","","","","","","NaN",""
"","S1","","html-keyboard-response","261","308398","0.0-1.0-362.0","0","0","99651","","null","","","null","40","","","","","","","","","","","","","","","",""
"","ISI","","html-keyboard-response","262","309399","0.0-1.0-363.0","0","0","99651","","null","","","null","40","NaN","","","","","","","","","","","","","","",""
"","S2","","html-keyboard-response","263","309654","0.0-1.0-364.0","0","0","99651","","null","","","null","40","","NaN","","","","","","","","","","","","","",""
"","response","","html-keyboard-response","264","310188","0.0-1.0-365.0-0.0","0","0","99651","","532","","","75","40","","","1","40","training","adjacent","BC","2","3","N.jpg","O.jpg","1","1","1","",""
"","feedback","","html-keyboard-response","265","311192","0.0-1.0-366.0-0.0","0","0","99651","","null","","","null","40","","","","","","","","","","","","","","","",""
"","ITI","","html-keyboard-response","266","312194","0.0-1.0-369.0","0","0","99651","","null","","","null","40","","","","","","","","","","","","","","","NaN",""
"","S1","","html-keyboard-response","267","312448","0.0-1.0-371.0","0","0","99651","","null","","","null","41","","","","","","","","","","","","","","","",""
"","ISI","","html-keyboard-response","268","313450","0.0-1.0-372.0","0","0","99651","","null","","","null","41","NaN","","","","","","","","","","","","","","",""
"","S2","","html-keyboard-response","269","313703","0.0-1.0-373.0","0","0","99651","","null","","","null","41","","NaN","","","","","","","","","","","","","",""
"","response","","html-keyboard-response","270","313886","0.0-1.0-374.0-0.0","0","0","99651","","182","","","75","41","","","1","41","training","adjacent","CB","3","2","O.jpg","N.jpg","1","0","0","",""
"","feedback","","html-keyboard-response","271","314889","0.0-1.0-375.0-0.0","0","0","99651","","null","","","null","41","","","","","","","","","","","","","","","",""
"","time_out","","html-keyboard-response","272","316892","0.0-1.0-377.0-0.0","0","0","99651","","null","","","null","41","","","","","","","","","","","","","","","",""
"","ITI","","html-keyboard-response","273","317895","0.0-1.0-378.0","0","0","99651","","null","","","null","41","","","","","","","","","","","","","","","NaN",""
"","S1","","html-keyboard-response","274","318148","0.0-1.0-380.0","0","0","99651","","null","","","null","42","","","","","","","","","","","","","","","",""
"","ISI","","html-keyboard-response","275","319151","0.0-1.0-381.0","0","0","99651","","null","","","null","42","NaN","","","","","","","","","","","","","","",""
"","S2","","html-keyboard-response","276","319404","0.0-1.0-382.0","0","0","99651","","null","","","null","42","","NaN","","","","","","","","","","","","","",""
"","response","","html-keyboard-response","277","319819","0.0-1.0-383.0-0.0","0","0","99651","","413","","","68","42","","","1","42","training","adjacent","BC","2","3","N.jpg","O.jpg","0","1","0","",""
"","feedback","","html-keyboard-response","278","320822","0.0-1.0-384.0-0.0","0","0","99651","","null","","","null","42","","","","","","","","","","","","","","","",""
"","time_out","","html-keyboard-response","279","322825","0.0-1.0-386.0-0.0","0","0","99651","","null","","","null","42","","","","","","","","","","","","","","","",""
"","ITI","","html-keyboard-response","280","323828","0.0-1.0-387.0","0","0","99651","","null","","","null","42","","","","","","","","","","","","","","","NaN",""
"","S1","","html-keyboard-response","281","324081","0.0-1.0-389.0","0","0","99651","","null","","","null","43","","","","","","","","","","","","","","","",""
"","ISI","","html-keyboard-response","282","325083","0.0-1.0-390.0","0","0","99651","","null","","","null","43","NaN","","","","","","","","","","","","","","",""
"","S2","","html-keyboard-response","283","325344","0.0-1.0-391.0","0","0","99651","","null","","","null","43","","NaN","","","","","","","","","","","","","",""
"","response","","html-keyboard-response","284","325549","0.0-1.0-392.0-0.0","0","0","99651","","202","","","68","43","","","1","43","training","adjacent","FE","6","5","M.jpg","R.jpg","0","0","1","",""
"","feedback","","html-keyboard-response","285","326552","0.0-1.0-393.0-0.0","0","0","99651","","null","","","null","43","","","","","","","","","","","","","","","",""
"","ITI","","html-keyboard-response","286","327557","0.0-1.0-396.0","0","0","99651","","null","","","null","43","","","","","","","","","","","","","","","NaN",""
"","S1","","html-keyboard-response","287","327810","0.0-1.0-398.0","0","0","99651","","null","","","null","44","","","","","","","","","","","","","","","",""
"","ISI","","html-keyboard-response","288","328813","0.0-1.0-399.0","0","0","99651","","null","","","null","44","NaN","","","","","","","","","","","","","","",""
"","S2","","html-keyboard-response","289","329067","0.0-1.0-400.0","0","0","99651","","null","","","null","44","","NaN","","","","","","","","","","","","","",""
"","response","","html-keyboard-response","290","329445","0.0-1.0-401.0-0.0","0","0","99651","","375","","","68","44","","","1","44","training","adjacent","CB","3","2","O.jpg","N.jpg","0","0","1","",""
"","feedback","","html-keyboard-response","291","330449","0.0-1.0-402.0-0.0","0","0","99651","","null","","","null","44","","","","","","","","","","","","","","","",""
"","ITI","","html-keyboard-response","292","331452","0.0-1.0-405.0","0","0","99651","","null","","","null","44","","","","","","","","","","","","","","","NaN",""
"","S1","","html-keyboard-response","293","331705","0.0-1.0-407.0","0","0","99651","","null","","","null","45","","","","","","","","","","","","","","","",""
"","ISI","","html-keyboard-response","294","332707","0.0-1.0-408.0","0","0","99651","","null","","","null","45","NaN","","","","","","","","","","","","","","",""
"","S2","","html-keyboard-response","295","332960","0.0-1.0-409.0","0","0","99651","","null","","","null","45","","NaN","","","","","","","","","","","","","",""
"","response","","html-keyboard-response","296","333197","0.0-1.0-410.0-0.0","0","0","99651","","234","","","68","45","","","1","45","training","adjacent","DC","4","3","P.jpg","O.jpg","0","0","1","",""
"","feedback","","html-keyboard-response","297","334200","0.0-1.0-411.0-0.0","0","0","99651","","null","","","null","45","","","","","","","","","","","","","","","",""
"","ITI","","html-keyboard-response","298","335203","0.0-1.0-414.0","0","0","99651","","null","","","null","45","","","","","","","","","","","","","","","NaN",""
"","S1","","html-keyboard-response","299","335457","0.0-1.0-416.0","0","0","99651","","null","","","null","46","","","","","","","","","","","","","","","",""
"","ISI","","html-keyboard-response","300","336459","0.0-1.0-417.0","0","0","99651","","null","","","null","46","NaN","","","","","","","","","","","","","","",""
"","S2","","html-keyboard-response","301","336712","0.0-1.0-418.0","0","0","99651","","null","","","null","46","","NaN","","","","","","","","","","","","","",""
"","response","","html-keyboard-response","302","337067","0.0-1.0-419.0-0.0","0","0","99651","","354","","","68","46","","","1","46","training","adjacent","ED","5","4","R.jpg","P.jpg","0","0","1","",""
"","feedback","","html-keyboard-response","303","338069","0.0-1.0-420.0-0.0","0","0","99651","","null","","","null","46","","","","","","","","","","","","","","","",""
"","ITI","","html-keyboard-response","304","339072","0.0-1.0-423.0","0","0","99651","","null","","","null","46","","","","","","","","","","","","","","","NaN",""
"","S1","","html-keyboard-response","305","339325","0.0-1.0-425.0","0","0","99651","","null","","","null","47","","","","","","","","","","","","","","","",""
"","ISI","","html-keyboard-response","306","340328","0.0-1.0-426.0","0","0","99651","","null","","","null","47","NaN","","","","","","","","","","","","","","",""
"","S2","","html-keyboard-response","307","340582","0.0-1.0-427.0","0","0","99651","","null","","","null","47","","NaN","","","","","","","","","","","","","",""
"","response","","html-keyboard-response","308","341101","0.0-1.0-428.0-0.0","0","0","99651","","518","","","68","47","","","1","47","training","adjacent","EF","5","6","R.jpg","M.jpg","0","1","0","",""
"","feedback","","html-keyboard-response","309","342103","0.0-1.0-429.0-0.0","0","0","99651","","null","","","null","47","","","","","","","","","","","","","","","",""
"","time_out","","html-keyboard-response","310","344106","0.0-1.0-431.0-0.0","0","0","99651","","null","","","null","47","","","","","","","","","","","","","","","",""
"","ITI","","html-keyboard-response","311","345108","0.0-1.0-432.0","0","0","99651","","null","","","null","47","","","","","","","","","","","","","","","NaN",""
"","block_over","","html-keyboard-response","312","1078904","0.0-1.0-433.0-0.0","0","0","99651","","733793","","","32","47","","","","","","","","","","","","","","","",""
"","S1","","html-keyboard-response","313","1079158","0.0-1.0-434.0","0","0","99651","","null","","","null","48","","","","","","","","","","","","","","","",""
"","ISI","","html-keyboard-response","314","1080161","0.0-1.0-435.0","0","0","99651","","624","","","75","48","k","","","","","","","","","","","","","","",""
"","S2","","html-keyboard-response","315","1080414","0.0-1.0-436.0","0","0","99651","","null","","","null","48","","NaN","","","","","","","","","","","","","",""
"","response","","html-keyboard-response","316","1081321","0.0-1.0-437.0-0.0","0","0","99651","","904","","","75","48","","","2","48","training","adjacent","BA","2","1","N.jpg","Q.jpg","1","0","0","",""
"","feedback","","html-keyboard-response","317","1082323","0.0-1.0-438.0-0.0","0","0","99651","","null","","","null","48","","","","","","","","","","","","","","","",""
"","time_out","","html-keyboard-response","318","1084326","0.0-1.0-440.0-0.0","0","0","99651","","null","","","null","48","","","","","","","","","","","","","","","",""
"","ITI","","html-keyboard-response","319","1085329","0.0-1.0-441.0","0","0","99651","","null","","","null","48","","","","","","","","","","","","","","","NaN",""
"","S1","","html-keyboard-response","320","1085582","0.0-1.0-443.0","0","0","99651","","null","","","null","49","","","","","","","","","","","","","","","",""
"","ISI","","html-keyboard-response","321","1086584","0.0-1.0-444.0","0","0","99651","","null","","","null","49","NaN","","","","","","","","","","","","","","",""
"","S2","","html-keyboard-response","322","1086838","0.0-1.0-445.0","0","0","99651","","null","","","null","49","","NaN","","","","","","","","","","","","","",""
"","response","","html-keyboard-response","323","1086937","0.0-1.0-446.0-0.0","0","0","99651","","96","","","75","49","","","2","49","training","adjacent","AB","1","2","Q.jpg","N.jpg","1","1","1","",""
"","feedback","","html-keyboard-response","324","1087940","0.0-1.0-447.0-0.0","0","0","99651","","null","","","null","49","","","","","","","","","","","","","","","",""
"","ITI","","html-keyboard-response","325","1088943","0.0-1.0-450.0","0","0","99651","","null","","","null","49","","","","","","","","","","","","","","","NaN",""
"","S1","","html-keyboard-response","326","1089196","0.0-1.0-452.0","0","0","99651","","null","","","null","50","","","","","","","","","","","","","","","",""
"","ISI","","html-keyboard-response","327","1090199","0.0-1.0-453.0","0","0","99651","","307","","","75","50","k","","","","","","","","","","","","","","",""
"","S2","","html-keyboard-response","328","1090453","0.0-1.0-454.0","0","0","99651","","null","","","null","50","","NaN","","","","","","","","","","","","","",""
"","response","","html-keyboard-response","329","1090785","0.0-1.0-455.0-0.0","0","0","99651","","330","","","75","50","","","2","50","training","adjacent","CD","3","4","O.jpg","P.jpg","1","1","1","",""
"","feedback","","html-keyboard-response","330","1091789","0.0-1.0-456.0-0.0","0","0","99651","","null","","","null","50","","","","","","","","","","","","","","","",""
"","ITI","","html-keyboard-response","331","1092791","0.0-1.0-459.0","0","0","99651","","null","","","null","50","","","","","","","","","","","","","","","NaN",""
"","S1","","html-keyboard-response","332","1093045","0.0-1.0-461.0","0","0","99651","","null","","","null","51","","","","","","","","","","","","","","","",""
"","ISI","","html-keyboard-response","333","1094049","0.0-1.0-462.0","0","0","99651","","null","","","null","51","NaN","","","","","","","","","","","","","","",""
"","S2","","html-keyboard-response","334","1094302","0.0-1.0-463.0","0","0","99651","","null","","","null","51","","NaN","","","","","","","","","","","","","",""
"","response","","html-keyboard-response","335","1094376","0.0-1.0-464.0-0.0","0","0","99651","","72","","","75","51","","","2","51","training","adjacent","GF","7","6","L.jpg","M.jpg","1","0","0","",""
"","feedback","","html-keyboard-response","336","1095381","0.0-1.0-465.0-0.0","0","0","99651","","null","","","null","51","","","","","","","","","","","","","","","",""
"","time_out","","html-keyboard-response","337","1097383","0.0-1.0-467.0-0.0","0","0","99651","","null","","","null","51","","","","","","","","","","","","","","","",""
"","ITI","","html-keyboard-response","338","1098385","0.0-1.0-468.0","0","0","99651","","null","","","null","51","","","","","","","","","","","","","","","NaN",""
"","S1","","html-keyboard-response","339","1098638","0.0-1.0-470.0","0","0","99651","","null","","","null","52","","","","","","","","","","","","","","","",""
"","ISI","","html-keyboard-response","340","1099640","0.0-1.0-471.0","0","0","99651","","null","","","null","52","NaN","","","","","","","","","","","","","","",""
"","S2","","html-keyboard-response","341","1099892","0.0-1.0-472.0","0","0","99651","","null","","","null","52","","NaN","","","","","","","","","","","","","",""
"","response","","html-keyboard-response","342","1099935","0.0-1.0-473.0-0.0","0","0","99651","","43","","","75","52","","","2","52","training","adjacent","CB","3","2","O.jpg","N.jpg","1","0","0","",""
"","feedback","","html-keyboard-response","343","1100938","0.0-1.0-474.0-0.0","0","0","99651","","null","","","null","52","","","","","","","","","","","","","","","",""
"","time_out","","html-keyboard-response","344","1102940","0.0-1.0-476.0-0.0","0","0","99651","","null","","","null","52","","","","","","","","","","","","","","","",""
"","ITI","","html-keyboard-response","345","1103943","0.0-1.0-477.0","0","0","99651","","null","","","null","52","","","","","","","","","","","","","","","NaN",""
"","S1","","html-keyboard-response","346","1104196","0.0-1.0-479.0","0","0","99651","","null","","","null","53","","","","","","","","","","","","","","","",""
"","ISI","","html-keyboard-response","347","1105199","0.0-1.0-480.0","0","0","99651","","null","","","null","53","NaN","","","","","","","","","","","","","","",""
"","S2","","html-keyboard-response","348","1105452","0.0-1.0-481.0","0","0","99651","","null","","","null","53","","NaN","","","","","","","","","","","","","",""
"","response","","html-keyboard-response","349","1105504","0.0-1.0-482.0-0.0","0","0","99651","","51","","","68","53","","","2","53","training","adjacent","BA","2","1","N.jpg","Q.jpg","0","0","1","",""
"","feedback","","html-keyboard-response","350","1106507","0.0-1.0-483.0-0.0","0","0","99651","","null","","","null","53","","","","","","","","","","","","","","","",""
"","ITI","","html-keyboard-response","351","1107510","0.0-1.0-486.0","0","0","99651","","null","","","null","53","","","","","","","","","","","","","","","NaN",""
"","S1","","html-keyboard-response","352","1107763","0.0-1.0-488.0","0","0","99651","","null","","","null","54","","","","","","","","","","","","","","","",""
"","ISI","","html-keyboard-response","353","1108766","0.0-1.0-489.0","0","0","99651","","null","","","null","54","NaN","","","","","","","","","","","","","","",""
"","S2","","html-keyboard-response","354","1109019","0.0-1.0-490.0","0","0","99651","","null","","","null","54","","NaN","","","","","","","","","","","","","",""
"","response","","html-keyboard-response","355","1109040","0.0-1.0-491.0-0.0","0","0","99651","","20","","","75","54","","","2","54","training","adjacent","BC","2","3","N.jpg","O.jpg","1","1","1","",""
"","feedback","","html-keyboard-response","356","1110043","0.0-1.0-492.0-0.0","0","0","99651","","null","","","null","54","","","","","","","","","","","","","","","",""
"","ITI","","html-keyboard-response","357","1111046","0.0-1.0-495.0","0","0","99651","","null","","","null","54","","","","","","","","","","","","","","","NaN",""
"","S1","","html-keyboard-response","358","1111299","0.0-1.0-497.0","0","0","99651","","null","","","null","55","","","","","","","","","","","","","","","",""
"","ISI","","html-keyboard-response","359","1112302","0.0-1.0-498.0","0","0","99651","","null","","","null","55","NaN","","","","","","","","","","","","","","",""
"","S2","","html-keyboard-response","360","1112554","0.0-1.0-499.0","0","0","99651","","null","","","null","55","","NaN","","","","","","","","","","","","","",""
"","response","","html-keyboard-response","361","1112648","0.0-1.0-500.0-0.0","0","0","99651","","93","","","75","55","","","2","55","training","adjacent","AB","1","2","Q.jpg","N.jpg","1","1","1","",""
"","feedback","","html-keyboard-response","362","1113650","0.0-1.0-501.0-0.0","0","0","99651","","null","","","null","55","","","","","","","","","","","","","","","",""
"","ITI","","html-keyboard-response","363","1114652","0.0-1.0-504.0","0","0","99651","","null","","","null","55","","","","","","","","","","","","","","","NaN",""
"","S1","","html-keyboard-response","364","1114904","0.0-1.0-506.0","0","0","99651","","null","","","null","56","","","","","","","","","","","","","","","",""
"","ISI","","html-keyboard-response","365","1115907","0.0-1.0-507.0","0","0","99651","","null","","","null","56","NaN","","","","","","","","","","","","","","",""
"","S2","","html-keyboard-response","366","1116159","0.0-1.0-508.0","0","0","99651","","null","","","null","56","","NaN","","","","","","","","","","","","","",""
"","response","","html-keyboard-response","367","1116239","0.0-1.0-509.0-0.0","0","0","99651","","79","","","75","56","","","2","56","training","adjacent","EF","5","6","R.jpg","M.jpg","1","1","1","",""
"","feedback","","html-keyboard-response","368","1117241","0.0-1.0-510.0-0.0","0","0","99651","","null","","","null","56","","","","","","","","","","","","","","","",""
"","ITI","","html-keyboard-response","369","1118242","0.0-1.0-513.0","0","0","99651","","null","","","null","56","","","","","","","","","","","","","","","NaN",""
"","S1","","html-keyboard-response","370","1118494","0.0-1.0-515.0","0","0","99651","","null","","","null","57","","","","","","","","","","","","","","","",""
"","ISI","","html-keyboard-response","371","1119496","0.0-1.0-516.0","0","0","99651","","448","","","75","57","k","","","","","","","","","","","","","","",""
"","S2","","html-keyboard-response","372","1119749","0.0-1.0-517.0","0","0","99651","","null","","","null","57","","NaN","","","","","","","","","","","","","",""
"","response","","html-keyboard-response","373","1119799","0.0-1.0-518.0-0.0","0","0","99651","","48","","","75","57","","","2","57","training","adjacent","CB","3","2","O.jpg","N.jpg","1","0","0","",""
"","feedback","","html-keyboard-response","374","1120801","0.0-1.0-519.0-0.0","0","0","99651","","null","","","null","57","","","","","","","","","","","","","","","",""
"","time_out","","html-keyboard-response","375","1122803","0.0-1.0-521.0-0.0","0","0","99651","","null","","","null","57","","","","","","","","","","","","","","","",""
"","ITI","","html-keyboard-response","376","1123805","0.0-1.0-522.0","0","0","99651","","898","","","75","57","","","","","","","","","","","","","","","k",""
"","S1","","html-keyboard-response","377","1124058","0.0-1.0-524.0","0","0","99651","","null","","","null","58","","","","","","","","","","","","","","","",""
"","ISI","","html-keyboard-response","378","1125076","0.0-1.0-525.0","0","0","99651","","null","","","null","58","NaN","","","","","","","","","","","","","","",""
"","S2","","html-keyboard-response","379","1125329","0.0-1.0-526.0","0","0","99651","","null","","","null","58","","NaN","","","","","","","","","","","","","",""
"","response","","html-keyboard-response","380","1126081","0.0-1.0-527.0-0.0","0","0","99651","","749","","","75","58","","","2","58","training","adjacent","FG","6","7","M.jpg","L.jpg","1","1","1","",""
"","feedback","","html-keyboard-response","381","1127085","0.0-1.0-528.0-0.0","0","0","99651","","null","","","null","58","","","","","","","","","","","","","","","",""
"","ITI","","html-keyboard-response","382","1128087","0.0-1.0-531.0","0","0","99651","","null","","","null","58","","","","","","","","","","","","","","","NaN",""
"","S1","","html-keyboard-response","383","1128339","0.0-1.0-533.0","0","0","99651","","null","","","null","59","","","","","","","","","","","","","","","",""
"","ISI","","html-keyboard-response","384","1129342","0.0-1.0-534.0","0","0","99651","","null","","","null","59","NaN","","","","","","","","","","","","","","",""
"","S2","","html-keyboard-response","385","1129594","0.0-1.0-535.0","0","0","99651","","null","","","null","59","","NaN","","","","","","","","","","","","","",""
"","response","","html-keyboard-response","386","1129736","0.0-1.0-536.0-0.0","0","0","99651","","140","","","75","59","","","2","59","training","adjacent","CD","3","4","O.jpg","P.jpg","1","1","1","",""
"","feedback","","html-keyboard-response","387","1130738","0.0-1.0-537.0-0.0","0","0","99651","","null","","","null","59","","","","","","","","","","","","","","","",""
"","ITI","","html-keyboard-response","388","1131741","0.0-1.0-540.0","0","0","99651","","null","","","null","59","","","","","","","","","","","","","","","NaN",""
"","S1","","html-keyboard-response","389","1131992","0.0-1.0-542.0","0","0","99651","","null","","","null","60","","","","","","","","","","","","","","","",""
"","ISI","","html-keyboard-response","390","1132993","0.0-1.0-543.0","0","0","99651","","null","","","null","60","NaN","","","","","","","","","","","","","","",""
"","S2","","html-keyboard-response","391","1133259","0.0-1.0-544.0","0","0","99651","","null","","","null","60","","NaN","","","","","","","","","","","","","",""
"","response","","html-keyboard-response","392","1133328","0.0-1.0-545.0-0.0","0","0","99651","","67","","","75","60","","","2","60","training","adjacent","CD","3","4","O.jpg","P.jpg","1","1","1","",""
"","feedback","","html-keyboard-response","393","1134330","0.0-1.0-546.0-0.0","0","0","99651","","null","","","null","60","","","","","","","","","","","","","","","",""
"","ITI","","html-keyboard-response","394","1135331","0.0-1.0-549.0","0","0","99651","","null","","","null","60","","","","","","","","","","","","","","","NaN",""
"","S1","","html-keyboard-response","395","1135584","0.0-1.0-551.0","0","0","99651","","null","","","null","61","","","","","","","","","","","","","","","",""
"","ISI","","html-keyboard-response","396","1136587","0.0-1.0-552.0","0","0","99651","","807","","","75","61","k","","","","","","","","","","","","","","",""
"","S2","","html-keyboard-response","397","1136840","0.0-1.0-553.0","0","0","99651","","null","","","null","61","","NaN","","","","","","","","","","","","","",""
"","response","","html-keyboard-response","398","1136952","0.0-1.0-554.0-0.0","0","0","99651","","111","","","75","61","","","2","61","training","adjacent","GF","7","6","L.jpg","M.jpg","1","0","0","",""
"","feedback","","html-keyboard-response","399","1137957","0.0-1.0-555.0-0.0","0","0","99651","","null","","","null","61","","","","","","","","","","","","","","","",""
"","time_out","","html-keyboard-response","400","1139959","0.0-1.0-557.0-0.0","0","0","99651","","null","","","null","61","","","","","","","","","","","","","","","",""
"","ITI","","html-keyboard-response","401","1140960","0.0-1.0-558.0","0","0","99651","","210","","","75","61","","","","","","","","","","","","","","","k",""
"","S1","","html-keyboard-response","402","1141212","0.0-1.0-560.0","0","0","99651","","null","","","null","62","","","","","","","","","","","","","","","",""
"","ISI","","html-keyboard-response","403","1142214","0.0-1.0-561.0","0","0","99651","","92","","","75","62","k","","","","","","","","","","","","","","",""
"","S2","","html-keyboard-response","404","1142467","0.0-1.0-562.0","0","0","99651","","null","","","null","62","","NaN","","","","","","","","","","","","","",""
"","response","","html-keyboard-response","405","1142537","0.0-1.0-563.0-0.0","0","0","99651","","69","","","75","62","","","2","62","training","adjacent","ED","5","4","R.jpg","P.jpg","1","0","0","",""
"","feedback","","html-keyboard-response","406","1143541","0.0-1.0-564.0-0.0","0","0","99651","","null","","","null","62","","","","","","","","","","","","","","","",""
"","time_out","","html-keyboard-response","407","1145543","0.0-1.0-566.0-0.0","0","0","99651","","null","","","null","62","","","","","","","","","","","","","","","",""
"","ITI","","html-keyboard-response","408","1146546","0.0-1.0-567.0","0","0","99651","","null","","","null","62","","","","","","","","","","","","","","","NaN",""
"","S1","","html-keyboard-response","409","1146797","0.0-1.0-569.0","0","0","99651","","null","","","null","63","","","","","","","","","","","","","","","",""
"","ISI","","html-keyboard-response","410","1147799","0.0-1.0-570.0","0","0","99651","","null","","","null","63","NaN","","","","","","","","","","","","","","",""
"","S2","","html-keyboard-response","411","1148051","0.0-1.0-571.0","0","0","99651","","null","","","null","63","","NaN","","","","","","","","","","","","","",""
"","response","","html-keyboard-response","412","1148273","0.0-1.0-572.0-0.0","0","0","99651","","220","","","75","63","","","2","63","training","adjacent","FE","6","5","M.jpg","R.jpg","1","0","0","",""
"","feedback","","html-keyboard-response","413","1149276","0.0-1.0-573.0-0.0","0","0","99651","","null","","","null","63","","","","","","","","","","","","","","","",""
"","time_out","","html-keyboard-response","414","1151280","0.0-1.0-575.0-0.0","0","0","99651","","null","","","null","63","","","","","","","","","","","","","","","",""
"","ITI","","html-keyboard-response","415","1152282","0.0-1.0-576.0","0","0","99651","","920","","","68","63","","","","","","","","","","","","","","","d",""
"","S1","","html-keyboard-response","416","1152534","0.0-1.0-578.0","0","0","99651","","null","","","null","64","","","","","","","","","","","","","","","",""
"","ISI","","html-keyboard-response","417","1153535","0.0-1.0-579.0","0","0","99651","","null","","","null","64","NaN","","","","","","","","","","","","","","",""
"","S2","","html-keyboard-response","418","1153787","0.0-1.0-580.0","0","0","99651","","null","","","null","64","","NaN","","","","","","","","","","","","","",""
"","response","","html-keyboard-response","419","1154241","0.0-1.0-581.0-0.0","0","0","99651","","453","","","68","64","","","2","64","training","adjacent","FG","6","7","M.jpg","L.jpg","0","1","0","",""
"","feedback","","html-keyboard-response","420","1155250","0.0-1.0-582.0-0.0","0","0","99651","","null","","","null","64","","","","","","","","","","","","","","","",""
"","time_out","","html-keyboard-response","421","1157252","0.0-1.0-584.0-0.0","0","0","99651","","null","","","null","64","","","","","","","","","","","","","","","",""
"","ITI","","html-keyboard-response","422","1158255","0.0-1.0-585.0","0","0","99651","","null","","","null","64","","","","","","","","","","","","","","","NaN",""
"","S1","","html-keyboard-response","423","1158509","0.0-1.0-587.0","0","0","99651","","null","","","null","65","","","","","","","","","","","","","","","",""
"","ISI","","html-keyboard-response","424","1159511","0.0-1.0-588.0","0","0","99651","","null","","","null","65","NaN","","","","","","","","","","","","","","",""
"","S2","","html-keyboard-response","425","1159764","0.0-1.0-589.0","0","0","99651","","null","","","null","65","","NaN","","","","","","","","","","","","","",""
"","response","","html-keyboard-response","426","1160299","0.0-1.0-590.0-0.0","0","0","99651","","532","","","75","65","","","2","65","training","adjacent","BC","2","3","N.jpg","O.jpg","1","1","1","",""
"","feedback","","html-keyboard-response","427","1161302","0.0-1.0-591.0-0.0","0","0","99651","","null","","","null","65","","","","","","","","","","","","","","","",""
"","ITI","","html-keyboard-response","428","1162305","0.0-1.0-594.0","0","0","99651","","null","","","null","65","","","","","","","","","","","","","","","NaN",""
"","S1","","html-keyboard-response","429","1162558","0.0-1.0-596.0","0","0","99651","","null","","","null","66","","","","","","","","","","","","","","","",""
"","ISI","","html-keyboard-response","430","1163561","0.0-1.0-597.0","0","0","99651","","null","","","null","66","NaN","","","","","","","","","","","","","","",""
"","S2","","html-keyboard-response","431","1163814","0.0-1.0-598.0","0","0","99651","","null","","","null","66","","NaN","","","","","","","","","","","","","",""
"","response","","html-keyboard-response","432","1164043","0.0-1.0-599.0-0.0","0","0","99651","","227","","","75","66","","","2","66","training","adjacent","BA","2","1","N.jpg","Q.jpg","1","0","0","",""
"","feedback","","html-keyboard-response","433","1165046","0.0-1.0-600.0-0.0","0","0","99651","","null","","","null","66","","","","","","","","","","","","","","","",""
"","time_out","","html-keyboard-response","434","1167050","0.0-1.0-602.0-0.0","0","0","99651","","null","","","null","66","","","","","","","","","","","","","","","",""
"","ITI","","html-keyboard-response","435","1168053","0.0-1.0-603.0","0","0","99651","","null","","","null","66","","","","","","","","","","","","","","","NaN",""
"","S1","","html-keyboard-response","436","1168305","0.0-1.0-605.0","0","0","99651","","null","","","null","67","","","","","","","","","","","","","","","",""
"","ISI","","html-keyboard-response","437","1169308","0.0-1.0-606.0","0","0","99651","","null","","","null","67","NaN","","","","","","","","","","","","","","",""
"","S2","","html-keyboard-response","438","1169560","0.0-1.0-607.0","0","0","99651","","null","","","null","67","","NaN","","","","","","","","","","","","","",""
"","response","","html-keyboard-response","439","1169610","0.0-1.0-608.0-0.0","0","0","99651","","47","","","75","67","","","2","67","training","adjacent","FE","6","5","M.jpg","R.jpg","1","0","0","",""
"","feedback","","html-keyboard-response","440","1170612","0.0-1.0-609.0-0.0","0","0","99651","","null","","","null","67","","","","","","","","","","","","","","","",""
"","time_out","","html-keyboard-response","441","1172615","0.0-1.0-611.0-0.0","0","0","99651","","null","","","null","67","","","","","","","","","","","","","","","",""
"","ITI","","html-keyboard-response","442","1173617","0.0-1.0-612.0","0","0","99651","","null","","","null","67","","","","","","","","","","","","","","","NaN",""
"","S1","","html-keyboard-response","443","1173869","0.0-1.0-614.0","0","0","99651","","null","","","null","68","","","","","","","","","","","","","","","",""
"","ISI","","html-keyboard-response","444","1174872","0.0-1.0-615.0","0","0","99651","","139","","","68","68","d","","","","","","","","","","","","","","",""
"","S2","","html-keyboard-response","445","1174873","0.0-1.0-616.0","0","0","99651","","0","","","68","68","","d","2","68","training","adjacent","GF","7","6","L.jpg","M.jpg","0","0","1","",""
"","feedback","","html-keyboard-response","446","1175875","0.0-1.0-618.0-0.0","0","0","99651","","null","","","null","68","","","","","","","","","","","","","","","",""
"","ITI","","html-keyboard-response","447","1176876","0.0-1.0-621.0","0","0","99651","","null","","","null","68","","","","","","","","","","","","","","","NaN",""
"","S1","","html-keyboard-response","448","1177128","0.0-1.0-623.0","0","0","99651","","null","","","null","69","","","","","","","","","","","","","","","",""
"","ISI","","html-keyboard-response","449","1178131","0.0-1.0-624.0","0","0","99651","","null","","","null","69","NaN","","","","","","","","","","","","","","",""
"","S2","","html-keyboard-response","450","1178383","0.0-1.0-625.0","0","0","99651","","null","","","null","69","","NaN","","","","","","","","","","","","","",""
"","response","","html-keyboard-response","451","1178513","0.0-1.0-626.0-0.0","0","0","99651","","129","","","75","69","","","2","69","training","adjacent","EF","5","6","R.jpg","M.jpg","1","1","1","",""
"","feedback","","html-keyboard-response","452","1179515","0.0-1.0-627.0-0.0","0","0","99651","","null","","","null","69","","","","","","","","","","","","","","","",""
"","ITI","","html-keyboard-response","453","1180517","0.0-1.0-630.0","0","0","99651","","null","","","null","69","","","","","","","","","","","","","","","NaN",""
"","S1","","html-keyboard-response","454","1180770","0.0-1.0-632.0","0","0","99651","","null","","","null","70","","","","","","","","","","","","","","","",""
"","ISI","","html-keyboard-response","455","1181773","0.0-1.0-633.0","0","0","99651","","null","","","null","70","NaN","","","","","","","","","","","","","","",""
"","S2","","html-keyboard-response","456","1182026","0.0-1.0-634.0","0","0","99651","","null","","","null","70","","NaN","","","","","","","","","","","","","",""
"","response","","html-keyboard-response","457","1182337","0.0-1.0-635.0-0.0","0","0","99651","","310","","","75","70","","","2","70","training","adjacent","AB","1","2","Q.jpg","N.jpg","1","1","1","",""
"","feedback","","html-keyboard-response","458","1183340","0.0-1.0-636.0-0.0","0","0","99651","","null","","","null","70","","","","","","","","","","","","","","","",""
"","ITI","","html-keyboard-response","459","1184343","0.0-1.0-639.0","0","0","99651","","null","","","null","70","","","","","","","","","","","","","","","NaN",""
"","S1","","html-keyboard-response","460","1184596","0.0-1.0-641.0","0","0","99651","","null","","","null","71","","","","","","","","","","","","","","","",""
"","ISI","","html-keyboard-response","461","1185599","0.0-1.0-642.0","0","0","99651","","342","","","75","71","k","","","","","","","","","","","","","","",""
"","S2","","html-keyboard-response","462","1185770","0.0-1.0-643.0","0","0","99651","","169","","","75","71","","k","2","71","training","adjacent","DE","4","5","P.jpg","R.jpg","1","1","1","",""
"","feedback","","html-keyboard-response","463","1186773","0.0-1.0-645.0-0.0","0","0","99651","","null","","","null","71","","","","","","","","","","","","","","","",""
"","ITI","","html-keyboard-response","464","1187776","0.0-1.0-648.0","0","0","99651","","null","","","null","71","","","","","","","","","","","","","","","NaN",""
"","S1","","html-keyboard-response","465","1188029","0.0-1.0-650.0","0","0","99651","","null","","","null","72","","","","","","","","","","","","","","","",""
"","ISI","","html-keyboard-response","466","1189033","0.0-1.0-651.0","0","0","99651","","null","","","null","72","NaN","","","","","","","","","","","","","","",""
"","S2","","html-keyboard-response","467","1189286","0.0-1.0-652.0","0","0","99651","","null","","","null","72","","NaN","","","","","","","","","","","","","",""
"","response","","html-keyboard-response","468","1189641","0.0-1.0-653.0-0.0","0","0","99651","","353","","","75","72","","","2","72","training","adjacent","FE","6","5","M.jpg","R.jpg","1","0","0","",""
"","feedback","","html-keyboard-response","469","1190644","0.0-1.0-654.0-0.0","0","0","99651","","null","","","null","72","","","","","","","","","","","","","","","",""
"","time_out","","html-keyboard-response","470","1192646","0.0-1.0-656.0-0.0","0","0","99651","","null","","","null","72","","","","","","","","","","","","","","","",""
"","ITI","","html-keyboard-response","471","1193649","0.0-1.0-657.0","0","0","99651","","null","","","null","72","","","","","","","","","","","","","","","NaN",""
"","S1","","html-keyboard-response","472","1193902","0.0-1.0-659.0","0","0","99651","","null","","","null","73","","","","","","","","","","","","","","","",""
"","ISI","","html-keyboard-response","473","1194905","0.0-1.0-660.0","0","0","99651","","null","","","null","73","NaN","","","","","","","","","","","","","","",""
"","S2","","html-keyboard-response","474","1195158","0.0-1.0-661.0","0","0","99651","","null","","","null","73","","NaN","","","","","","","","","","","","","",""
"","response","","html-keyboard-response","475","1195218","0.0-1.0-662.0-0.0","0","0","99651","","58","","","75","73","","","2","73","training","adjacent","DC","4","3","P.jpg","O.jpg","1","0","0","",""
"","feedback","","html-keyboard-response","476","1196222","0.0-1.0-663.0-0.0","0","0","99651","","null","","","null","73","","","","","","","","","","","","","","","",""
"","time_out","","html-keyboard-response","477","1198226","0.0-1.0-665.0-0.0","0","0","99651","","null","","","null","73","","","","","","","","","","","","","","","",""
"","ITI","","html-keyboard-response","478","1199228","0.0-1.0-666.0","0","0","99651","","null","","","null","73","","","","","","","","","","","","","","","NaN",""
"","S1","","html-keyboard-response","479","1199480","0.0-1.0-668.0","0","0","99651","","null","","","null","74","","","","","","","","","","","","","","","",""
"","ISI","","html-keyboard-response","480","1200482","0.0-1.0-669.0","0","0","99651","","34","","","75","74","k","","","","","","","","","","","","","","",""
"","S2","","html-keyboard-response","481","1200733","0.0-1.0-670.0","0","0","99651","","null","","","null","74","","NaN","","","","","","","","","","","","","",""
"","response","","html-keyboard-response","482","1200867","0.0-1.0-671.0-0.0","0","0","99651","","132","","","75","74","","","2","74","training","adjacent","CD","3","4","O.jpg","P.jpg","1","1","1","",""
"","feedback","","html-keyboard-response","483","1201870","0.0-1.0-672.0-0.0","0","0","99651","","null","","","null","74","","","","","","","","","","","","","","","",""
"","ITI","","html-keyboard-response","484","1202873","0.0-1.0-675.0","0","0","99651","","null","","","null","74","","","","","","","","","","","","","","","NaN",""
"","S1","","html-keyboard-response","485","1203126","0.0-1.0-677.0","0","0","99651","","null","","","null","75","","","","","","","","","","","","","","","",""
"","ISI","","html-keyboard-response","486","1204128","0.0-1.0-678.0","0","0","99651","","null","","","null","75","NaN","","","","","","","","","","","","","","",""
"","S2","","html-keyboard-response","487","1204380","0.0-1.0-679.0","0","0","99651","","null","","","null","75","","NaN","","","","","","","","","","","","","",""
"","response","","html-keyboard-response","488","1205347","0.0-1.0-680.0-0.0","0","0","99651","","965","","","75","75","","","2","75","training","adjacent","FG","6","7","M.jpg","L.jpg","1","1","1","",""
"","feedback","","html-keyboard-response","489","1206349","0.0-1.0-681.0-0.0","0","0","99651","","null","","","null","75","","","","","","","","","","","","","","","",""
"","ITI","","html-keyboard-response","490","1207351","0.0-1.0-684.0","0","0","99651","","null","","","null","75","","","","","","","","","","","","","","","NaN",""
"","S1","","html-keyboard-response","491","1207603","0.0-1.0-686.0","0","0","99651","","null","","","null","76","","","","","","","","","","","","","","","",""
"","ISI","","html-keyboard-response","492","1208605","0.0-1.0-687.0","0","0","99651","","944","","","75","76","k","","","","","","","","","","","","","","",""
"","S2","","html-keyboard-response","493","1208859","0.0-1.0-688.0","0","0","99651","","null","","","null","76","","NaN","","","","","","","","","","","","","",""
"","response","","html-keyboard-response","494","1208964","0.0-1.0-689.0-0.0","0","0","99651","","103","","","75","76","","","2","76","training","adjacent","ED","5","4","R.jpg","P.jpg","1","0","0","",""
"","feedback","","html-keyboard-response","495","1209967","0.0-1.0-690.0-0.0","0","0","99651","","null","","","null","76","","","","","","","","","","","","","","","",""
"","time_out","","html-keyboard-response","496","1211970","0.0-1.0-692.0-0.0","0","0","99651","","null","","","null","76","","","","","","","","","","","","","","","",""
"","ITI","","html-keyboard-response","497","1212973","0.0-1.0-693.0","0","0","99651","","681","","","75","76","","","","","","","","","","","","","","","k",""
"","S1","","html-keyboard-response","498","1213225","0.0-1.0-695.0","0","0","99651","","null","","","null","77","","","","","","","","","","","","","","","",""
"","ISI","","html-keyboard-response","499","1214227","0.0-1.0-696.0","0","0","99651","","8","","","75","77","k","","","","","","","","","","","","","","",""
"","S2","","html-keyboard-response","500","1214479","0.0-1.0-697.0","0","0","99651","","null","","","null","77","","NaN","","","","","","","","","","","","","",""
"","response","","html-keyboard-response","501","1214539","0.0-1.0-698.0-0.0","0","0","99651","","59","","","75","77","","","2","77","training","adjacent","EF","5","6","R.jpg","M.jpg","1","1","1","",""
"","feedback","","html-keyboard-response","502","1215541","0.0-1.0-699.0-0.0","0","0","99651","","null","","","null","77","","","","","","","","","","","","","","","",""
"","ITI","","html-keyboard-response","503","1216544","0.0-1.0-702.0","0","0","99651","","null","","","null","77","","","","","","","","","","","","","","","NaN",""
"","S1","","html-keyboard-response","504","1216796","0.0-1.0-704.0","0","0","99651","","null","","","null","78","","","","","","","","","","","","","","","",""
"","ISI","","html-keyboard-response","505","1217797","0.0-1.0-705.0","0","0","99651","","null","","","null","78","NaN","","","","","","","","","","","","","","",""
"","S2","","html-keyboard-response","506","1218049","0.0-1.0-706.0","0","0","99651","","null","","","null","78","","NaN","","","","","","","","","","","","","",""
"","response","","html-keyboard-response","507","1218251","0.0-1.0-707.0-0.0","0","0","99651","","200","","","75","78","","","2","78","training","adjacent","DE","4","5","P.jpg","R.jpg","1","1","1","",""
"","feedback","","html-keyboard-response","508","1219253","0.0-1.0-708.0-0.0","0","0","99651","","null","","","null","78","","","","","","","","","","","","","","","",""
"","ITI","","html-keyboard-response","509","1220254","0.0-1.0-711.0","0","0","99651","","null","","","null","78","","","","","","","","","","","","","","","NaN",""
"","S1","","html-keyboard-response","510","1220507","0.0-1.0-713.0","0","0","99651","","null","","","null","79","","","","","","","","","","","","","","","",""
"","ISI","","html-keyboard-response","511","1221509","0.0-1.0-714.0","0","0","99651","","null","","","null","79","NaN","","","","","","","","","","","","","","",""
"","S2","","html-keyboard-response","512","1221761","0.0-1.0-715.0","0","0","99651","","null","","","null","79","","NaN","","","","","","","","","","","","","",""
"","response","","html-keyboard-response","513","1221851","0.0-1.0-716.0-0.0","0","0","99651","","89","","","75","79","","","2","79","training","adjacent","DE","4","5","P.jpg","R.jpg","1","1","1","",""
"","feedback","","html-keyboard-response","514","1222854","0.0-1.0-717.0-0.0","0","0","99651","","null","","","null","79","","","","","","","","","","","","","","","",""
"","ITI","","html-keyboard-response","515","1223857","0.0-1.0-720.0","0","0","99651","","null","","","null","79","","","","","","","","","","","","","","","NaN",""
"","S1","","html-keyboard-response","516","1224111","0.0-1.0-722.0","0","0","99651","","null","","","null","80","","","","","","","","","","","","","","","",""
"","ISI","","html-keyboard-response","517","1225113","0.0-1.0-723.0","0","0","99651","","null","","","null","80","NaN","","","","","","","","","","","","","","",""
"","S2","","html-keyboard-response","518","1225365","0.0-1.0-724.0","0","0","99651","","null","","","null","80","","NaN","","","","","","","","","","","","","",""
"","response","","html-keyboard-response","519","1225475","0.0-1.0-725.0-0.0","0","0","99651","","108","","","75","80","","","2","80","training","adjacent","CB","3","2","O.jpg","N.jpg","1","0","0","",""
"","feedback","","html-keyboard-response","520","1226477","0.0-1.0-726.0-0.0","0","0","99651","","null","","","null","80","","","","","","","","","","","","","","","",""
"","time_out","","html-keyboard-response","521","1228480","0.0-1.0-728.0-0.0","0","0","99651","","null","","","null","80","","","","","","","","","","","","","","","",""
"","ITI","","html-keyboard-response","522","1229482","0.0-1.0-729.0","0","0","99651","","null","","","null","80","","","","","","","","","","","","","","","NaN",""
"","S1","","html-keyboard-response","523","1229734","0.0-1.0-731.0","0","0","99651","","null","","","null","81","","","","","","","","","","","","","","","",""
"","ISI","","html-keyboard-response","524","1230736","0.0-1.0-732.0","0","0","99651","","null","","","null","81","NaN","","","","","","","","","","","","","","",""
"","S2","","html-keyboard-response","525","1230986","0.0-1.0-733.0","0","0","99651","","249","","","75","81","","k","2","81","training","adjacent","DC","4","3","P.jpg","O.jpg","1","0","0","",""
"","feedback","","html-keyboard-response","526","1231989","0.0-1.0-735.0-0.0","0","0","99651","","null","","","null","81","","","","","","","","","","","","","","","",""
"","time_out","","html-keyboard-response","527","1233991","0.0-1.0-737.0-0.0","0","0","99651","","null","","","null","81","","","","","","","","","","","","","","","",""
"","ITI","","html-keyboard-response","528","1234993","0.0-1.0-738.0","0","0","99651","","387","","","75","81","","","","","","","","","","","","","","","k",""
"","S1","","html-keyboard-response","529","1235245","0.0-1.0-740.0","0","0","99651","","null","","","null","82","","","","","","","","","","","","","","","",""
"","ISI","","html-keyboard-response","530","1236248","0.0-1.0-741.0","0","0","99651","","52","","","75","82","k","","","","","","","","","","","","","","",""
"","S2","","html-keyboard-response","531","1236500","0.0-1.0-742.0","0","0","99651","","null","","","null","82","","NaN","","","","","","","","","","","","","",""
"","response","","html-keyboard-response","532","1236531","0.0-1.0-743.0-0.0","0","0","99651","","29","","","75","82","","","2","82","training","adjacent","AB","1","2","Q.jpg","N.jpg","1","1","1","",""
"","feedback","","html-keyboard-response","533","1237534","0.0-1.0-744.0-0.0","0","0","99651","","null","","","null","82","","","","","","","","","","","","","","","",""
"","ITI","","html-keyboard-response","534","1238537","0.0-1.0-747.0","0","0","99651","","null","","","null","82","","","","","","","","","","","","","","","NaN",""
"","S1","","html-keyboard-response","535","1238791","0.0-1.0-749.0","0","0","99651","","null","","","null","83","","","","","","","","","","","","","","","",""
"","ISI","","html-keyboard-response","536","1239793","0.0-1.0-750.0","0","0","99651","","null","","","null","83","NaN","","","","","","","","","","","","","","",""
"","S2","","html-keyboard-response","537","1240046","0.0-1.0-751.0","0","0","99651","","null","","","null","83","","NaN","","","","","","","","","","","","","",""
"","response","","html-keyboard-response","538","1240084","0.0-1.0-752.0-0.0","0","0","99651","","37","","","75","83","","","2","83","training","adjacent","DE","4","5","P.jpg","R.jpg","1","1","1","",""
"","feedback","","html-keyboard-response","539","1241087","0.0-1.0-753.0-0.0","0","0","99651","","null","","","null","83","","","","","","","","","","","","","","","",""
"","ITI","","html-keyboard-response","540","1242091","0.0-1.0-756.0","0","0","99651","","null","","","null","83","","","","","","","","","","","","","","","NaN",""
"","S1","","html-keyboard-response","541","1242344","0.0-1.0-758.0","0","0","99651","","null","","","null","84","","","","","","","","","","","","","","","",""
"","ISI","","html-keyboard-response","542","1243345","0.0-1.0-759.0","0","0","99651","","482","","","75","84","k","","","","","","","","","","","","","","",""
"","S2","","html-keyboard-response","543","1243598","0.0-1.0-760.0","0","0","99651","","null","","","null","84","","NaN","","","","","","","","","","","","","",""
"","response","","html-keyboard-response","544","1243602","0.0-1.0-761.0-0.0","0","0","99651","","3","","","75","84","","","2","84","training","adjacent","DC","4","3","P.jpg","O.jpg","1","0","0","",""
"","feedback","","html-keyboard-response","545","1244604","0.0-1.0-762.0-0.0","0","0","99651","","null","","","null","84","","","","","","","","","","","","","","","",""
"","time_out","","html-keyboard-response","546","1246606","0.0-1.0-764.0-0.0","0","0","99651","","null","","","null","84","","","","","","","","","","","","","","","",""
"","ITI","","html-keyboard-response","547","1247607","0.0-1.0-765.0","0","0","99651","","676","","","75","84","","","","","","","","","","","","","","","k",""
"","S1","","html-keyboard-response","548","1247860","0.0-1.0-767.0","0","0","99651","","null","","","null","85","","","","","","","","","","","","","","","",""
"","ISI","","html-keyboard-response","549","1248862","0.0-1.0-768.0","0","0","99651","","62","","","75","85","k","","","","","","","","","","","","","","",""
"","S2","","html-keyboard-response","550","1249115","0.0-1.0-769.0","0","0","99651","","null","","","null","85","","NaN","","","","","","","","","","","","","",""
"","response","","html-keyboard-response","551","1249243","0.0-1.0-770.0-0.0","0","0","99651","","127","","","75","85","","","2","85","training","adjacent","FG","6","7","M.jpg","L.jpg","1","1","1","",""
"","feedback","","html-keyboard-response","552","1250245","0.0-1.0-771.0-0.0","0","0","99651","","null","","","null","85","","","","","","","","","","","","","","","",""
"","ITI","","html-keyboard-response","553","1251246","0.0-1.0-774.0","0","0","99651","","null","","","null","85","","","","","","","","","","","","","","","NaN",""
"","S1","","html-keyboard-response","554","1251498","0.0-1.0-776.0","0","0","99651","","null","","","null","86","","","","","","","","","","","","","","","",""
"","ISI","","html-keyboard-response","555","1252501","0.0-1.0-777.0","0","0","99651","","367","","","75","86","k","","","","","","","","","","","","","","",""
"","S2","","html-keyboard-response","556","1252754","0.0-1.0-778.0","0","0","99651","","null","","","null","86","","NaN","","","","","","","","","","","","","",""
"","response","","html-keyboard-response","557","1252882","0.0-1.0-779.0-0.0","0","0","99651","","127","","","75","86","","","2","86","training","adjacent","BA","2","1","N.jpg","Q.jpg","1","0","0","",""
"","feedback","","html-keyboard-response","558","1253886","0.0-1.0-780.0-0.0","0","0","99651","","null","","","null","86","","","","","","","","","","","","","","","",""
"","time_out","","html-keyboard-response","559","1255888","0.0-1.0-782.0-0.0","0","0","99651","","null","","","null","86","","","","","","","","","","","","","","","",""
"","ITI","","html-keyboard-response","560","1256891","0.0-1.0-783.0","0","0","99651","","null","","","null","86","","","","","","","","","","","","","","","NaN",""
"","S1","","html-keyboard-response","561","1257144","0.0-1.0-785.0","0","0","99651","","null","","","null","87","","","","","","","","","","","","","","","",""
"","ISI","","html-keyboard-response","562","1258148","0.0-1.0-786.0","0","0","99651","","89","","","75","87","k","","","","","","","","","","","","","","",""
"","S2","","html-keyboard-response","563","1258403","0.0-1.0-787.0","0","0","99651","","null","","","null","87","","NaN","","","","","","","","","","","","","",""
"","response","","html-keyboard-response","564","1258526","0.0-1.0-788.0-0.0","0","0","99651","","121","","","75","87","","","2","87","training","adjacent","EF","5","6","R.jpg","M.jpg","1","1","1","",""
"","feedback","","html-keyboard-response","565","1259530","0.0-1.0-789.0-0.0","0","0","99651","","null","","","null","87","","","","","","","","","","","","","","","",""
"","ITI","","html-keyboard-response","566","1260533","0.0-1.0-792.0","0","0","99651","","null","","","null","87","","","","","","","","","","","","","","","NaN",""
"","S1","","html-keyboard-response","567","1260786","0.0-1.0-794.0","0","0","99651","","null","","","null","88","","","","","","","","","","","","","","","",""
"","ISI","","html-keyboard-response","568","1261789","0.0-1.0-795.0","0","0","99651","","null","","","null","88","NaN","","","","","","","","","","","","","","",""
"","S2","","html-keyboard-response","569","1262042","0.0-1.0-796.0","0","0","99651","","null","","","null","88","","NaN","","","","","","","","","","","","","",""
"","response","","html-keyboard-response","570","1263308","0.0-1.0-797.0-0.0","0","0","99651","","1266","","","68","88","","","2","88","training","adjacent","FE","6","5","M.jpg","R.jpg","0","0","1","",""
"","feedback","","html-keyboard-response","571","1264310","0.0-1.0-798.0-0.0","0","0","99651","","null","","","null","88","","","","","","","","","","","","","","","",""
"","ITI","","html-keyboard-response","572","1265313","0.0-1.0-801.0","0","0","99651","","null","","","null","88","","","","","","","","","","","","","","","NaN",""
"","S1","","html-keyboard-response","573","1265566","0.0-1.0-803.0","0","0","99651","","null","","","null","89","","","","","","","","","","","","","","","",""
"","ISI","","html-keyboard-response","574","1266568","0.0-1.0-804.0","0","0","99651","","null","","","null","89","NaN","","","","","","","","","","","","","","",""
"","S2","","html-keyboard-response","575","1266833","0.0-1.0-805.0","0","0","99651","","null","","","null","89","","NaN","","","","","","","","","","","","","",""
"","response","","html-keyboard-response","576","1267189","0.0-1.0-806.0-0.0","0","0","99651","","354","","","68","89","","","2","89","training","adjacent","BC","2","3","N.jpg","O.jpg","0","1","0","",""
"","feedback","","html-keyboard-response","577","1268193","0.0-1.0-807.0-0.0","0","0","99651","","null","","","null","89","","","","","","","","","","","","","","","",""
"","time_out","","html-keyboard-response","578","1270196","0.0-1.0-809.0-0.0","0","0","99651","","null","","","null","89","","","","","","","","","","","","","","","",""
