"success","ttype","start_time","trial_type","trial_index","time_elapsed","internal_node_id","warning","missed_checkup","PID","view_history","rt","responses","repeat_instructions","key_press","index","keypress_isi","keypress_S2","block","trial_num","phase","group_type","pair_type","S1_stim","S2_stim","S1_img","S2_img","S1_chosen","S1_higher","accuracy","keypress_iti","total_bonus_tally"
"true","full_screen","d03032023hr1951","fullscreen","0","10658","0.0-0.0","0","0","64928","","","","","","","","","","","","","","","","","","","","","",""
"","instructions","","instructions","1","54350","0.0-1.0-0.0-0.0","0","0","64928","[{""page_index"":0,""viewing_time"":9449},{""page_index"":1,""viewing_time"":28304},{""page_index"":2,""viewing_time"":2712},{""page_index"":3,""viewing_time"":3206}]","43675","","","","","","","","","","","","","","","","","","","",""
"","comprehension_check","","survey-multi-choice","2","138617","0.0-1.0-0.0-1.0","0","0","64928","","84254","{""Q0"":""True"",""Q1"":""D"",""Q2"":""Once the second image appears and while the screen 'MAKE A CHOICE' is shown"",""Q3"":""Green mark"",""Q4"":""either D or K""}","0","","","","","","","","","","","","","","","","","",""
"","start_exp","","html-keyboard-response","3","142189","0.0-1.0-1.0","0","0","64928","","3560","","","32","","","","","","","","","","","","","","","","",""
"","S1","","html-keyboard-response","4","142446","0.0-1.0-2.0","0","0","64928","","null","","","null","0","","","","","","","","","","","","","","","",""
"","ISI","","html-keyboard-response","5","142951","0.0-1.0-3.0","0","0","64928","","null","","","null","0","NaN","","","","","","","","","","","","","","",""
"","S2","","html-keyboard-response","6","143210","0.0-1.0-4.0","0","0","64928","","null","","","null","0","","NaN","","","","","","","","","","","","","",""
"","response","","html-keyboard-response","7","143777","0.0-1.0-5.0-0.0","0","0","64928","","560","","","75","0","","","1","0","training","adjacent","FE","6","5","R.jpg","Q.jpg","0","0","1","",""
"","feedback","","html-keyboard-response","8","144784","0.0-1.0-6.0-0.0","0","0","64928","","null","","","null","0","","","","","","","","","","","","","","","",""
"","ITI","","html-keyboard-response","9","145790","0.0-1.0-9.0","0","0","64928","","null","","","null","0","","","","","","","","","","","","","","","NaN",""
"","S1","","html-keyboard-response","10","146045","0.0-1.0-11.0","0","0","64928","","null","","","null","1","","","","","","","","","","","","","","","",""
"","ISI","","html-keyboard-response","11","146550","0.0-1.0-12.0","0","0","64928","","93","","","68","1","d","","","","","","","","","","","","","","",""
"","S2","","html-keyboard-response","12","146827","0.0-1.0-13.0","0","0","64928","","null","","","null","1","","NaN","","","","","","","","","","","","","",""
"","response","","html-keyboard-response","13","147191","0.0-1.0-14.0-0.0","0","0","64928","","359","","","68","1","","","1","1","training","adjacent","AB","1","2","M.jpg","L.jpg","1","1","1","",""
"","feedback","","html-keyboard-response","14","148198","0.0-1.0-15.0-0.0","0","0","64928","","null","","","null","1","","","","","","","","","","","","","","","",""
"","ITI","","html-keyboard-response","15","149206","0.0-1.0-18.0","0","0","64928","","86","","","75","1","","","","","","","","","","","","","","","k",""
"","S1","","html-keyboard-response","16","149462","0.0-1.0-20.0","0","0","64928","","null","","","null","2","","","","","","","","","","","","","","","",""
"","ISI","","html-keyboard-response","17","149967","0.0-1.0-21.0","0","0","64928","","183","","","68","2","d","","","","","","","","","","","","","","",""
"","S2","","html-keyboard-response","18","150154","0.0-1.0-22.0","0","0","64928","","183","","","75","2","","k","1","2","training","adjacent","BA","2","1","L.jpg","M.jpg","0","0","1","",""
"","feedback","","html-keyboard-response","19","151159","0.0-1.0-24.0-0.0","0","0","64928","","null","","","null","2","","","","","","","","","","","","","","","",""
"","ITI","","html-keyboard-response","20","152164","0.0-1.0-27.0","0","0","64928","","8","","","68","2","","","","","","","","","","","","","","","d",""
"","S1","","html-keyboard-response","21","152421","0.0-1.0-29.0","0","0","64928","","null","","","null","3","","","","","","","","","","","","","","","",""
"","ISI","","html-keyboard-response","22","152925","0.0-1.0-30.0","0","0","64928","","176","","","68","3","d","","","","","","","","","","","","","","",""
"","S2","","html-keyboard-response","23","152980","0.0-1.0-31.0","0","0","64928","","51","","","75","3","","k","1","3","training","adjacent","CB","3","2","O.jpg","L.jpg","0","0","1","",""
"","feedback","","html-keyboard-response","24","154001","0.0-1.0-33.0-0.0","0","0","64928","","null","","","null","3","","","","","","","","","","","","","","","",""
"","ITI","","html-keyboard-response","25","155005","0.0-1.0-36.0","0","0","64928","","1","","","68","3","","","","","","","","","","","","","","","d",""
"","S1","","html-keyboard-response","26","155260","0.0-1.0-38.0","0","0","64928","","null","","","null","4","","","","","","","","","","","","","","","",""
"","ISI","","html-keyboard-response","27","155778","0.0-1.0-39.0","0","0","64928","","41","","","75","4","k","","","","","","","","","","","","","","",""
"","S2","","html-keyboard-response","28","155951","0.0-1.0-40.0","0","0","64928","","166","","","75","4","","k","1","4","training","adjacent","ED","5","4","Q.jpg","P.jpg","0","0","1","",""
"","feedback","","html-keyboard-response","29","156960","0.0-1.0-42.0-0.0","0","0","64928","","null","","","null","4","","","","","","","","","","","","","","","",""
"","ITI","","html-keyboard-response","30","157966","0.0-1.0-45.0","0","0","64928","","103","","","68","4","","","","","","","","","","","","","","","d",""
"","S1","","html-keyboard-response","31","158221","0.0-1.0-47.0","0","0","64928","","null","","","null","5","","","","","","","","","","","","","","","",""
"","ISI","","html-keyboard-response","32","158727","0.0-1.0-48.0","0","0","64928","","163","","","68","5","d","","","","","","","","","","","","","","",""
"","S2","","html-keyboard-response","33","158911","0.0-1.0-49.0","0","0","64928","","178","","","68","5","","d","1","5","training","adjacent","EF","5","6","Q.jpg","R.jpg","1","1","1","",""
"","feedback","","html-keyboard-response","34","159917","0.0-1.0-51.0-0.0","0","0","64928","","null","","","null","5","","","","","","","","","","","","","","","",""
"","ITI","","html-keyboard-response","35","160925","0.0-1.0-54.0","0","0","64928","","177","","","68","5","","","","","","","","","","","","","","","d",""
"","S1","","html-keyboard-response","36","161180","0.0-1.0-56.0","0","0","64928","","null","","","null","6","","","","","","","","","","","","","","","",""
"","ISI","","html-keyboard-response","37","161683","0.0-1.0-57.0","0","0","64928","","99","","","68","6","d","","","","","","","","","","","","","","",""
"","S2","","html-keyboard-response","38","161714","0.0-1.0-58.0","0","0","64928","","25","","","75","6","","k","1","6","training","adjacent","GF","7","6","N.jpg","R.jpg","0","0","1","",""
"","feedback","","html-keyboard-response","39","162731","0.0-1.0-60.0-0.0","0","0","64928","","null","","","null","6","","","","","","","","","","","","","","","",""
"","ITI","","html-keyboard-response","40","163736","0.0-1.0-63.0","0","0","64928","","157","","","75","6","","","","","","","","","","","","","","","k",""
"","S1","","html-keyboard-response","41","163993","0.0-1.0-65.0","0","0","64928","","null","","","null","7","","","","","","","","","","","","","","","",""
"","ISI","","html-keyboard-response","42","164498","0.0-1.0-66.0","0","0","64928","","1","","","75","7","k","","","","","","","","","","","","","","",""
"","S2","","html-keyboard-response","43","164567","0.0-1.0-67.0","0","0","64928","","63","","","75","7","","k","1","7","training","adjacent","FE","6","5","R.jpg","Q.jpg","0","0","1","",""
"","feedback","","html-keyboard-response","44","165573","0.0-1.0-69.0-0.0","0","0","64928","","null","","","null","7","","","","","","","","","","","","","","","",""
"","ITI","","html-keyboard-response","45","166578","0.0-1.0-72.0","0","0","64928","","40","","","68","7","","","","","","","","","","","","","","","d",""
"","S1","","html-keyboard-response","46","166833","0.0-1.0-74.0","0","0","64928","","null","","","null","8","","","","","","","","","","","","","","","",""
"","ISI","","html-keyboard-response","47","167340","0.0-1.0-75.0","0","0","64928","","45","","","68","8","d","","","","","","","","","","","","","","",""
"","S2","","html-keyboard-response","48","167350","0.0-1.0-76.0","0","0","64928","","2","","","68","8","","d","1","8","training","adjacent","ED","5","4","Q.jpg","P.jpg","1","0","0","",""
"","feedback","","html-keyboard-response","49","168364","0.0-1.0-78.0-0.0","0","0","64928","","null","","","null","8","","","","","","","","","","","","","","","",""
"","time_out","","html-keyboard-response","50","170374","0.0-1.0-80.0-0.0","0","0","64928","","null","","","null","8","","","","","","","","","","","","","","","",""
"","ITI","","html-keyboard-response","51","171379","0.0-1.0-81.0","0","0","64928","","67","","","75","8","","","","","","","","","","","","","","","k",""
"","S1","","html-keyboard-response","52","171634","0.0-1.0-83.0","0","0","64928","","null","","","null","9","","","","","","","","","","","","","","","",""
"","ISI","","html-keyboard-response","53","172140","0.0-1.0-84.0","0","0","64928","","165","","","68","9","d","","","","","","","","","","","","","","",""
"","S2","","html-keyboard-response","54","172255","0.0-1.0-85.0","0","0","64928","","108","","","68","9","","d","1","9","training","adjacent","FG","6","7","R.jpg","N.jpg","1","1","1","",""
"","feedback","","html-keyboard-response","55","173262","0.0-1.0-87.0-0.0","0","0","64928","","null","","","null","9","","","","","","","","","","","","","","","",""
"","ITI","","html-keyboard-response","56","174267","0.0-1.0-90.0","0","0","64928","","157","","","68","9","","","","","","","","","","","","","","","d",""
"","S1","","html-keyboard-response","57","174520","0.0-1.0-92.0","0","0","64928","","null","","","null","10","","","","","","","","","","","","","","","",""
"","ISI","","html-keyboard-response","58","175025","0.0-1.0-93.0","0","0","64928","","107","","","75","10","k","","","","","","","","","","","","","","",""
"","S2","","html-keyboard-response","59","175152","0.0-1.0-94.0","0","0","64928","","122","","","68","10","","d","1","10","training","adjacent","BC","2","3","L.jpg","O.jpg","1","1","1","",""
"","feedback","","html-keyboard-response","60","176158","0.0-1.0-96.0-0.0","0","0","64928","","null","","","null","10","","","","","","","","","","","","","","","",""
"","ITI","","html-keyboard-response","61","177162","0.0-1.0-99.0","0","0","64928","","107","","","75","10","","","","","","","","","","","","","","","k",""
"","S1","","html-keyboard-response","62","177416","0.0-1.0-101.0","0","0","64928","","null","","","null","11","","","","","","","","","","","","","","","",""
"","ISI","","html-keyboard-response","63","177919","0.0-1.0-102.0","0","0","64928","","138","","","75","11","k","","","","","","","","","","","","","","",""
"","S2","","html-keyboard-response","64","177996","0.0-1.0-103.0","0","0","64928","","69","","","75","11","","k","1","11","training","adjacent","BC","2","3","L.jpg","O.jpg","0","1","0","",""
"","feedback","","html-keyboard-response","65","179002","0.0-1.0-105.0-0.0","0","0","64928","","null","","","null","11","","","","","","","","","","","","","","","",""
"","time_out","","html-keyboard-response","66","181008","0.0-1.0-107.0-0.0","0","0","64928","","null","","","null","11","","","","","","","","","","","","","","","",""
"","ITI","","html-keyboard-response","67","182012","0.0-1.0-108.0","0","0","64928","","77","","","68","11","","","","","","","","","","","","","","","d",""
"","S1","","html-keyboard-response","68","182268","0.0-1.0-110.0","0","0","64928","","null","","","null","12","","","","","","","","","","","","","","","",""
"","ISI","","html-keyboard-response","69","182773","0.0-1.0-111.0","0","0","64928","","58","","","68","12","d","","","","","","","","","","","","","","",""
"","S2","","html-keyboard-response","70","182939","0.0-1.0-112.0","0","0","64928","","156","","","68","12","","d","1","12","training","adjacent","CB","3","2","O.jpg","L.jpg","1","0","0","",""
"","feedback","","html-keyboard-response","71","183946","0.0-1.0-114.0-0.0","0","0","64928","","null","","","null","12","","","","","","","","","","","","","","","",""
"","time_out","","html-keyboard-response","72","185954","0.0-1.0-116.0-0.0","0","0","64928","","null","","","null","12","","","","","","","","","","","","","","","",""
"","ITI","","html-keyboard-response","73","186956","0.0-1.0-117.0","0","0","64928","","8","","","75","12","","","","","","","","","","","","","","","k",""
"","S1","","html-keyboard-response","74","187212","0.0-1.0-119.0","0","0","64928","","null","","","null","13","","","","","","","","","","","","","","","",""
"","ISI","","html-keyboard-response","75","187720","0.0-1.0-120.0","0","0","64928","","7","","","75","13","k","","","","","","","","","","","","","","",""
"","S2","","html-keyboard-response","76","187729","0.0-1.0-121.0","0","0","64928","","1","","","75","13","","k","1","13","training","adjacent","CB","3","2","O.jpg","L.jpg","0","0","1","",""
"","feedback","","html-keyboard-response","77","188736","0.0-1.0-123.0-0.0","0","0","64928","","null","","","null","13","","","","","","","","","","","","","","","",""
"","ITI","","html-keyboard-response","78","189742","0.0-1.0-126.0","0","0","64928","","14","","","75","13","","","","","","","","","","","","","","","k",""
"","S1","","html-keyboard-response","79","189998","0.0-1.0-128.0","0","0","64928","","null","","","null","14","","","","","","","","","","","","","","","",""
"","ISI","","html-keyboard-response","80","190502","0.0-1.0-129.0","0","0","64928","","182","","","75","14","k","","","","","","","","","","","","","","",""
"","S2","","html-keyboard-response","81","190627","0.0-1.0-130.0","0","0","64928","","119","","","68","14","","d","1","14","training","adjacent","DE","4","5","P.jpg","Q.jpg","1","1","1","",""
"","feedback","","html-keyboard-response","82","191633","0.0-1.0-132.0-0.0","0","0","64928","","null","","","null","14","","","","","","","","","","","","","","","",""
"","ITI","","html-keyboard-response","83","192636","0.0-1.0-135.0","0","0","64928","","190","","","68","14","","","","","","","","","","","","","","","d",""
"","S1","","html-keyboard-response","84","192891","0.0-1.0-137.0","0","0","64928","","null","","","null","15","","","","","","","","","","","","","","","",""
"","ISI","","html-keyboard-response","85","193395","0.0-1.0-138.0","0","0","64928","","178","","","68","15","d","","","","","","","","","","","","","","",""
"","S2","","html-keyboard-response","86","193576","0.0-1.0-139.0","0","0","64928","","176","","","68","15","","d","1","15","training","adjacent","CD","3","4","O.jpg","P.jpg","1","1","1","",""
"","feedback","","html-keyboard-response","87","194583","0.0-1.0-141.0-0.0","0","0","64928","","null","","","null","15","","","","","","","","","","","","","","","",""
"","ITI","","html-keyboard-response","88","195589","0.0-1.0-144.0","0","0","64928","","168","","","68","15","","","","","","","","","","","","","","","d",""
"","S1","","html-keyboard-response","89","195842","0.0-1.0-146.0","0","0","64928","","null","","","null","16","","","","","","","","","","","","","","","",""
"","ISI","","html-keyboard-response","90","196344","0.0-1.0-147.0","0","0","64928","","430","","","75","16","k","","","","","","","","","","","","","","",""
"","S2","","html-keyboard-response","91","196501","0.0-1.0-148.0","0","0","64928","","151","","","68","16","","d","1","16","training","adjacent","ED","5","4","Q.jpg","P.jpg","1","0","0","",""
"","feedback","","html-keyboard-response","92","197509","0.0-1.0-150.0-0.0","0","0","64928","","null","","","null","16","","","","","","","","","","","","","","","",""
"","time_out","","html-keyboard-response","93","199515","0.0-1.0-152.0-0.0","0","0","64928","","null","","","null","16","","","","","","","","","","","","","","","",""
"","ITI","","html-keyboard-response","94","200521","0.0-1.0-153.0","0","0","64928","","34","","","75","16","","","","","","","","","","","","","","","k",""
"","S1","","html-keyboard-response","95","200776","0.0-1.0-155.0","0","0","64928","","null","","","null","17","","","","","","","","","","","","","","","",""
"","ISI","","html-keyboard-response","96","201280","0.0-1.0-156.0","0","0","64928","","83","","","75","17","k","","","","","","","","","","","","","","",""
"","S2","","html-keyboard-response","97","201336","0.0-1.0-157.0","0","0","64928","","49","","","75","17","","k","1","17","training","adjacent","BC","2","3","L.jpg","O.jpg","0","1","0","",""
"","feedback","","html-keyboard-response","98","202353","0.0-1.0-159.0-0.0","0","0","64928","","null","","","null","17","","","","","","","","","","","","","","","",""
"","time_out","","html-keyboard-response","99","204358","0.0-1.0-161.0-0.0","0","0","64928","","null","","","null","17","","","","","","","","","","","","","","","",""
"","ITI","","html-keyboard-response","100","205362","0.0-1.0-162.0","0","0","64928","","208","","","75","17","","","","","","","","","","","","","","","k",""
"","S1","","html-keyboard-response","101","205618","0.0-1.0-164.0","0","0","64928","","null","","","null","18","","","","","","","","","","","","","","","",""
"","ISI","","html-keyboard-response","102","206122","0.0-1.0-165.0","0","0","64928","","89","","","68","18","d","","","","","","","","","","","","","","",""
"","S2","","html-keyboard-response","103","206250","0.0-1.0-166.0","0","0","64928","","120","","","75","18","","k","1","18","training","adjacent","FE","6","5","R.jpg","Q.jpg","0","0","1","",""
"","feedback","","html-keyboard-response","104","207257","0.0-1.0-168.0-0.0","0","0","64928","","null","","","null","18","","","","","","","","","","","","","","","",""
"","ITI","","html-keyboard-response","105","208261","0.0-1.0-171.0","0","0","64928","","160","","","75","18","","","","","","","","","","","","","","","k",""
"","S1","","html-keyboard-response","106","208516","0.0-1.0-173.0","0","0","64928","","null","","","null","19","","","","","","","","","","","","","","","",""
"","ISI","","html-keyboard-response","107","209020","0.0-1.0-174.0","0","0","64928","","43","","","75","19","k","","","","","","","","","","","","","","",""
"","S2","","html-keyboard-response","108","209248","0.0-1.0-175.0","0","0","64928","","221","","","68","19","","d","1","19","training","adjacent","EF","5","6","Q.jpg","R.jpg","1","1","1","",""
"","feedback","","html-keyboard-response","109","210257","0.0-1.0-177.0-0.0","0","0","64928","","null","","","null","19","","","","","","","","","","","","","","","",""
"","ITI","","html-keyboard-response","110","211263","0.0-1.0-180.0","0","0","64928","","80","","","75","19","","","","","","","","","","","","","","","k",""
"","S1","","html-keyboard-response","111","211519","0.0-1.0-182.0","0","0","64928","","null","","","null","20","","","","","","","","","","","","","","","",""
"","ISI","","html-keyboard-response","112","212024","0.0-1.0-183.0","0","0","64928","","55","","","75","20","k","","","","","","","","","","","","","","",""
"","S2","","html-keyboard-response","113","212038","0.0-1.0-184.0","0","0","64928","","6","","","68","20","","d","1","20","training","adjacent","BA","2","1","L.jpg","M.jpg","1","0","0","",""
"","feedback","","html-keyboard-response","114","213044","0.0-1.0-186.0-0.0","0","0","64928","","null","","","null","20","","","","","","","","","","","","","","","",""
"","time_out","","html-keyboard-response","115","215055","0.0-1.0-188.0-0.0","0","0","64928","","null","","","null","20","","","","","","","","","","","","","","","",""
"","ITI","","html-keyboard-response","116","216062","0.0-1.0-189.0","0","0","64928","","15","","","75","20","","","","","","","","","","","","","","","k",""
"","S1","","html-keyboard-response","117","216318","0.0-1.0-191.0","0","0","64928","","null","","","null","21","","","","","","","","","","","","","","","",""
"","ISI","","html-keyboard-response","118","216825","0.0-1.0-192.0","0","0","64928","","48","","","75","21","k","","","","","","","","","","","","","","",""
"","S2","","html-keyboard-response","119","216870","0.0-1.0-193.0","0","0","64928","","36","","","75","21","","k","1","21","training","adjacent","FG","6","7","R.jpg","N.jpg","0","1","0","",""
"","feedback","","html-keyboard-response","120","217877","0.0-1.0-195.0-0.0","0","0","64928","","null","","","null","21","","","","","","","","","","","","","","","",""
"","time_out","","html-keyboard-response","121","219884","0.0-1.0-197.0-0.0","0","0","64928","","null","","","null","21","","","","","","","","","","","","","","","",""
"","ITI","","html-keyboard-response","122","220889","0.0-1.0-198.0","0","0","64928","","155","","","75","21","","","","","","","","","","","","","","","k",""
"","S1","","html-keyboard-response","123","221144","0.0-1.0-200.0","0","0","64928","","null","","","null","22","","","","","","","","","","","","","","","",""
"","ISI","","html-keyboard-response","124","221648","0.0-1.0-201.0","0","0","64928","","404","","","75","22","k","","","","","","","","","","","","","","",""
"","S2","","html-keyboard-response","125","221905","0.0-1.0-202.0","0","0","64928","","null","","","null","22","","NaN","","","","","","","","","","","","","",""
"","response","","html-keyboard-response","126","222237","0.0-1.0-203.0-0.0","0","0","64928","","324","","","68","22","","","1","22","training","adjacent","AB","1","2","M.jpg","L.jpg","1","1","1","",""
"","feedback","","html-keyboard-response","127","223242","0.0-1.0-204.0-0.0","0","0","64928","","null","","","null","22","","","","","","","","","","","","","","","",""
"","ITI","","html-keyboard-response","128","224247","0.0-1.0-207.0","0","0","64928","","69","","","68","22","","","","","","","","","","","","","","","d",""
"","S1","","html-keyboard-response","129","224501","0.0-1.0-209.0","0","0","64928","","null","","","null","23","","","","","","","","","","","","","","","",""
"","ISI","","html-keyboard-response","130","225003","0.0-1.0-210.0","0","0","64928","","80","","","68","23","d","","","","","","","","","","","","","","",""
"","S2","","html-keyboard-response","131","225103","0.0-1.0-211.0","0","0","64928","","96","","","68","23","","d","1","23","training","adjacent","BA","2","1","L.jpg","M.jpg","1","0","0","",""
"","feedback","","html-keyboard-response","132","226109","0.0-1.0-213.0-0.0","0","0","64928","","null","","","null","23","","","","","","","","","","","","","","","",""
"","time_out","","html-keyboard-response","133","228117","0.0-1.0-215.0-0.0","0","0","64928","","null","","","null","23","","","","","","","","","","","","","","","",""
"","ITI","","html-keyboard-response","134","229125","0.0-1.0-216.0","0","0","64928","","252","","","68","23","","","","","","","","","","","","","","","d",""
"","S1","","html-keyboard-response","135","229382","0.0-1.0-218.0","0","0","64928","","null","","","null","24","","","","","","","","","","","","","","","",""
"","ISI","","html-keyboard-response","136","229887","0.0-1.0-219.0","0","0","64928","","6","","","68","24","d","","","","","","","","","","","","","","",""
"","S2","","html-keyboard-response","137","229988","0.0-1.0-220.0","0","0","64928","","94","","","68","24","","d","1","24","training","adjacent","EF","5","6","Q.jpg","R.jpg","1","1","1","",""
"","feedback","","html-keyboard-response","138","231016","0.0-1.0-222.0-0.0","0","0","64928","","null","","","null","24","","","","","","","","","","","","","","","",""
"","ITI","","html-keyboard-response","139","232024","0.0-1.0-225.0","0","0","64928","","110","","","68","24","","","","","","","","","","","","","","","d",""
"","S1","","html-keyboard-response","140","232282","0.0-1.0-227.0","0","0","64928","","null","","","null","25","","","","","","","","","","","","","","","",""
"","ISI","","html-keyboard-response","141","232784","0.0-1.0-228.0","0","0","64928","","134","","","68","25","d","","","","","","","","","","","","","","",""
"","S2","","html-keyboard-response","142","232983","0.0-1.0-229.0","0","0","64928","","193","","","68","25","","d","1","25","training","adjacent","DC","4","3","P.jpg","O.jpg","1","0","0","",""
"","feedback","","html-keyboard-response","143","233990","0.0-1.0-231.0-0.0","0","0","64928","","null","","","null","25","","","","","","","","","","","","","","","",""
"","time_out","","html-keyboard-response","144","235997","0.0-1.0-233.0-0.0","0","0","64928","","null","","","null","25","","","","","","","","","","","","","","","",""
"","ITI","","html-keyboard-response","145","237006","0.0-1.0-234.0","0","0","64928","","78","","","75","25","","","","","","","","","","","","","","","k",""
"","S1","","html-keyboard-response","146","237261","0.0-1.0-236.0","0","0","64928","","null","","","null","26","","","","","","","","","","","","","","","",""
"","ISI","","html-keyboard-response","147","237765","0.0-1.0-237.0","0","0","64928","","246","","","68","26","d","","","","","","","","","","","","","","",""
"","S2","","html-keyboard-response","148","237797","0.0-1.0-238.0","0","0","64928","","27","","","68","26","","d","1","26","training","adjacent","DE","4","5","P.jpg","Q.jpg","1","1","1","",""
"","feedback","","html-keyboard-response","149","238802","0.0-1.0-240.0-0.0","0","0","64928","","null","","","null","26","","","","","","","","","","","","","","","",""
"","ITI","","html-keyboard-response","150","239807","0.0-1.0-243.0","0","0","64928","","81","","","68","26","","","","","","","","","","","","","","","d",""
"","S1","","html-keyboard-response","151","240061","0.0-1.0-245.0","0","0","64928","","null","","","null","27","","","","","","","","","","","","","","","",""
"","ISI","","html-keyboard-response","152","240566","0.0-1.0-246.0","0","0","64928","","107","","","75","27","k","","","","","","","","","","","","","","",""
"","S2","","html-keyboard-response","153","240734","0.0-1.0-247.0","0","0","64928","","163","","","75","27","","k","1","27","training","adjacent","ED","5","4","Q.jpg","P.jpg","0","0","1","",""
"","feedback","","html-keyboard-response","154","241740","0.0-1.0-249.0-0.0","0","0","64928","","null","","","null","27","","","","","","","","","","","","","","","",""
"","ITI","","html-keyboard-response","155","242746","0.0-1.0-252.0","0","0","64928","","137","","","68","27","","","","","","","","","","","","","","","d",""
"","S1","","html-keyboard-response","156","243004","0.0-1.0-254.0","0","0","64928","","null","","","null","28","","","","","","","","","","","","","","","",""
"","ISI","","html-keyboard-response","157","243509","0.0-1.0-255.0","0","0","64928","","247","","","75","28","k","","","","","","","","","","","","","","",""
"","S2","","html-keyboard-response","158","243538","0.0-1.0-256.0","0","0","64928","","24","","","75","28","","k","1","28","training","adjacent","FE","6","5","R.jpg","Q.jpg","0","0","1","",""
"","feedback","","html-keyboard-response","159","244544","0.0-1.0-258.0-0.0","0","0","64928","","null","","","null","28","","","","","","","","","","","","","","","",""
"","ITI","","html-keyboard-response","160","245551","0.0-1.0-261.0","0","0","64928","","109","","","75","28","","","","","","","","","","","","","","","k",""
"","S1","","html-keyboard-response","161","245807","0.0-1.0-263.0","0","0","64928","","null","","","null","29","","","","","","","","","","","","","","","",""
"","ISI","","html-keyboard-response","162","246313","0.0-1.0-264.0","0","0","64928","","71","","","75","29","k","","","","","","","","","","","","","","",""
"","S2","","html-keyboard-response","163","246411","0.0-1.0-265.0","0","0","64928","","91","","","75","29","","k","1","29","training","adjacent","GF","7","6","N.jpg","R.jpg","0","0","1","",""
"","feedback","","html-keyboard-response","164","247418","0.0-1.0-267.0-0.0","0","0","64928","","null","","","null","29","","","","","","","","","","","","","","","",""
"","ITI","","html-keyboard-response","165","248424","0.0-1.0-270.0","0","0","64928","","102","","","68","29","","","","","","","","","","","","","","","d",""
"","S1","","html-keyboard-response","166","248680","0.0-1.0-272.0","0","0","64928","","null","","","null","30","","","","","","","","","","","","","","","",""
"","ISI","","html-keyboard-response","167","249185","0.0-1.0-273.0","0","0","64928","","131","","","68","30","d","","","","","","","","","","","","","","",""
"","S2","","html-keyboard-response","168","249280","0.0-1.0-274.0","0","0","64928","","90","","","75","30","","k","1","30","training","adjacent","CD","3","4","O.jpg","P.jpg","0","1","0","",""
"","feedback","","html-keyboard-response","169","250286","0.0-1.0-276.0-0.0","0","0","64928","","null","","","null","30","","","","","","","","","","","","","","","",""
"","time_out","","html-keyboard-response","170","252291","0.0-1.0-278.0-0.0","0","0","64928","","null","","","null","30","","","","","","","","","","","","","","","",""
"","ITI","","html-keyboard-response","171","253303","0.0-1.0-279.0","0","0","64928","","1","","","75","30","","","","","","","","","","","","","","","k",""
"","S1","","html-keyboard-response","172","253557","0.0-1.0-281.0","0","0","64928","","null","","","null","31","","","","","","","","","","","","","","","",""
"","ISI","","html-keyboard-response","173","254063","0.0-1.0-282.0","0","0","64928","","83","","","68","31","d","","","","","","","","","","","","","","",""
"","S2","","html-keyboard-response","174","254079","0.0-1.0-283.0","0","0","64928","","11","","","75","31","","k","1","31","training","adjacent","DC","4","3","P.jpg","O.jpg","0","0","1","",""
"","feedback","","html-keyboard-response","175","255085","0.0-1.0-285.0-0.0","0","0","64928","","null","","","null","31","","","","","","","","","","","","","","","",""
"","ITI","","html-keyboard-response","176","256094","0.0-1.0-288.0","0","0","64928","","2","","","68","31","","","","","","","","","","","","","","","d",""
"","S1","","html-keyboard-response","177","256350","0.0-1.0-290.0","0","0","64928","","null","","","null","32","","","","","","","","","","","","","","","",""
"","ISI","","html-keyboard-response","178","256858","0.0-1.0-291.0","0","0","64928","","76","","","75","32","k","","","","","","","","","","","","","","",""
"","S2","","html-keyboard-response","179","256890","0.0-1.0-292.0","0","0","64928","","24","","","75","32","","k","1","32","training","adjacent","AB","1","2","M.jpg","L.jpg","0","1","0","",""
"","feedback","","html-keyboard-response","180","257896","0.0-1.0-294.0-0.0","0","0","64928","","null","","","null","32","","","","","","","","","","","","","","","",""
"","time_out","","html-keyboard-response","181","259905","0.0-1.0-296.0-0.0","0","0","64928","","null","","","null","32","","","","","","","","","","","","","","","",""
"","ITI","","html-keyboard-response","182","260911","0.0-1.0-297.0","0","0","64928","","31","","","75","32","","","","","","","","","","","","","","","k",""
"","S1","","html-keyboard-response","183","261167","0.0-1.0-299.0","0","0","64928","","null","","","null","33","","","","","","","","","","","","","","","",""
"","ISI","","html-keyboard-response","184","261674","0.0-1.0-300.0","0","0","64928","","58","","","68","33","d","","","","","","","","","","","","","","",""
"","S2","","html-keyboard-response","185","261866","0.0-1.0-301.0","0","0","64928","","183","","","68","33","","d","1","33","training","adjacent","GF","7","6","N.jpg","R.jpg","1","0","0","",""
"","feedback","","html-keyboard-response","186","262876","0.0-1.0-303.0-0.0","0","0","64928","","null","","","null","33","","","","","","","","","","","","","","","",""
"","time_out","","html-keyboard-response","187","264879","0.0-1.0-305.0-0.0","0","0","64928","","null","","","null","33","","","","","","","","","","","","","","","",""
"","ITI","","html-keyboard-response","188","265885","0.0-1.0-306.0","0","0","64928","","4","","","75","33","","","","","","","","","","","","","","","k",""
"","S1","","html-keyboard-response","189","266140","0.0-1.0-308.0","0","0","64928","","null","","","null","34","","","","","","","","","","","","","","","",""
"","ISI","","html-keyboard-response","190","266644","0.0-1.0-309.0","0","0","64928","","269","","","68","34","d","","","","","","","","","","","","","","",""
"","S2","","html-keyboard-response","191","266732","0.0-1.0-310.0","0","0","64928","","81","","","68","34","","d","1","34","training","adjacent","CB","3","2","O.jpg","L.jpg","1","0","0","",""
"","feedback","","html-keyboard-response","192","267738","0.0-1.0-312.0-0.0","0","0","64928","","null","","","null","34","","","","","","","","","","","","","","","",""
"","time_out","","html-keyboard-response","193","269745","0.0-1.0-314.0-0.0","0","0","64928","","null","","","null","34","","","","","","","","","","","","","","","",""
"","ITI","","html-keyboard-response","194","270752","0.0-1.0-315.0","0","0","64928","","118","","","75","34","","","","","","","","","","","","","","","k",""
"","S1","","html-keyboard-response","195","271006","0.0-1.0-317.0","0","0","64928","","null","","","null","35","","","","","","","","","","","","","","","",""
"","ISI","","html-keyboard-response","196","271515","0.0-1.0-318.0","0","0","64928","","29","","","68","35","d","","","","","","","","","","","","","","",""
"","S2","","html-keyboard-response","197","271526","0.0-1.0-319.0","0","0","64928","","2","","","75","35","","k","1","35","training","adjacent","EF","5","6","Q.jpg","R.jpg","0","1","0","",""
"","feedback","","html-keyboard-response","198","272531","0.0-1.0-321.0-0.0","0","0","64928","","null","","","null","35","","","","","","","","","","","","","","","",""
"","time_out","","html-keyboard-response","199","274538","0.0-1.0-323.0-0.0","0","0","64928","","null","","","null","35","","","","","","","","","","","","","","","",""
"","ITI","","html-keyboard-response","200","275544","0.0-1.0-324.0","0","0","64928","","47","","","68","35","","","","","","","","","","","","","","","d",""
"","S1","","html-keyboard-response","201","275798","0.0-1.0-326.0","0","0","64928","","null","","","null","36","","","","","","","","","","","","","","","",""
"","ISI","","html-keyboard-response","202","276301","0.0-1.0-327.0","0","0","64928","","16","","","75","36","k","","","","","","","","","","","","","","",""
"","S2","","html-keyboard-response","203","276319","0.0-1.0-328.0","0","0","64928","","13","","","68","36","","d","1","36","training","adjacent","DE","4","5","P.jpg","Q.jpg","1","1","1","",""
"","feedback","","html-keyboard-response","204","277324","0.0-1.0-330.0-0.0","0","0","64928","","null","","","null","36","","","","","","","","","","","","","","","",""
"","ITI","","html-keyboard-response","205","278331","0.0-1.0-333.0","0","0","64928","","225","","","75","36","","","","","","","","","","","","","","","k",""
"","S1","","html-keyboard-response","206","278585","0.0-1.0-335.0","0","0","64928","","null","","","null","37","","","","","","","","","","","","","","","",""
"","ISI","","html-keyboard-response","207","279089","0.0-1.0-336.0","0","0","64928","","137","","","68","37","d","","","","","","","","","","","","","","",""
"","S2","","html-keyboard-response","208","279270","0.0-1.0-337.0","0","0","64928","","175","","","68","37","","d","1","37","training","adjacent","CD","3","4","O.jpg","P.jpg","1","1","1","",""
"","feedback","","html-keyboard-response","209","280278","0.0-1.0-339.0-0.0","0","0","64928","","null","","","null","37","","","","","","","","","","","","","","","",""
"","ITI","","html-keyboard-response","210","281297","0.0-1.0-342.0","0","0","64928","","208","","","68","37","","","","","","","","","","","","","","","d",""
"","S1","","html-keyboard-response","211","281552","0.0-1.0-344.0","0","0","64928","","null","","","null","38","","","","","","","","","","","","","","","",""
"","ISI","","html-keyboard-response","212","282057","0.0-1.0-345.0","0","0","64928","","71","","","75","38","k","","","","","","","","","","","","","","",""
"","S2","","html-keyboard-response","213","282130","0.0-1.0-346.0","0","0","64928","","68","","","68","38","","d","1","38","training","adjacent","DC","4","3","P.jpg","O.jpg","1","0","0","",""
"","feedback","","html-keyboard-response","214","283138","0.0-1.0-348.0-0.0","0","0","64928","","null","","","null","38","","","","","","","","","","","","","","","",""
"","time_out","","html-keyboard-response","215","285144","0.0-1.0-350.0-0.0","0","0","64928","","null","","","null","38","","","","","","","","","","","","","","","",""
"","ITI","","html-keyboard-response","216","286149","0.0-1.0-351.0","0","0","64928","","130","","","75","38","","","","","","","","","","","","","","","k",""
"","S1","","html-keyboard-response","217","286405","0.0-1.0-353.0","0","0","64928","","null","","","null","39","","","","","","","","","","","","","","","",""
"","ISI","","html-keyboard-response","218","286913","0.0-1.0-354.0","0","0","64928","","56","","","68","39","d","","","","","","","","","","","","","","",""
"","S2","","html-keyboard-response","219","287033","0.0-1.0-355.0","0","0","64928","","112","","","68","39","","d","1","39","training","adjacent","BC","2","3","L.jpg","O.jpg","1","1","1","",""
"","feedback","","html-keyboard-response","220","288042","0.0-1.0-357.0-0.0","0","0","64928","","null","","","null","39","","","","","","","","","","","","","","","",""
"","ITI","","html-keyboard-response","221","289052","0.0-1.0-360.0","0","0","64928","","67","","","68","39","","","","","","","","","","","","","","","d",""
"","S1","","html-keyboard-response","222","289311","0.0-1.0-362.0","0","0","64928","","null","","","null","40","","","","","","","","","","","","","","","",""
"","ISI","","html-keyboard-response","223","289817","0.0-1.0-363.0","0","0","64928","","33","","","75","40","k","","","","","","","","","","","","","","",""
"","S2","","html-keyboard-response","224","289849","0.0-1.0-364.0","0","0","64928","","27","","","75","40","","k","1","40","training","adjacent","BA","2","1","L.jpg","M.jpg","0","0","1","",""
"","feedback","","html-keyboard-response","225","290855","0.0-1.0-366.0-0.0","0","0","64928","","null","","","null","40","","","","","","","","","","","","","","","",""
"","ITI","","html-keyboard-response","226","291863","0.0-1.0-369.0","0","0","64928","","0","","","68","40","","","","","","","","","","","","","","","d",""
"","S1","","html-keyboard-response","227","292120","0.0-1.0-371.0","0","0","64928","","null","","","null","41","","","","","","","","","","","","","","","",""
"","ISI","","html-keyboard-response","228","292625","0.0-1.0-372.0","0","0","64928","","117","","","75","41","k","","","","","","","","","","","","","","",""
"","S2","","html-keyboard-response","229","292821","0.0-1.0-373.0","0","0","64928","","191","","","75","41","","k","1","41","training","adjacent","GF","7","6","N.jpg","R.jpg","0","0","1","",""
"","feedback","","html-keyboard-response","230","293829","0.0-1.0-375.0-0.0","0","0","64928","","null","","","null","41","","","","","","","","","","","","","","","",""
"","ITI","","html-keyboard-response","231","294838","0.0-1.0-378.0","0","0","64928","","109","","","75","41","","","","","","","","","","","","","","","k",""
"","S1","","html-keyboard-response","232","295093","0.0-1.0-380.0","0","0","64928","","null","","","null","42","","","","","","","","","","","","","","","",""
"","ISI","","html-keyboard-response","233","295597","0.0-1.0-381.0","0","0","64928","","159","","","75","42","k","","","","","","","","","","","","","","",""
"","S2","","html-keyboard-response","234","295806","0.0-1.0-382.0","0","0","64928","","204","","","75","42","","k","1","42","training","adjacent","DE","4","5","P.jpg","Q.jpg","0","1","0","",""
"","feedback","","html-keyboard-response","235","296814","0.0-1.0-384.0-0.0","0","0","64928","","null","","","null","42","","","","","","","","","","","","","","","",""
"","time_out","","html-keyboard-response","236","298822","0.0-1.0-386.0-0.0","0","0","64928","","null","","","null","42","","","","","","","","","","","","","","","",""
"","ITI","","html-keyboard-response","237","299841","0.0-1.0-387.0","0","0","64928","","62","","","75","42","","","","","","","","","","","","","","","k",""
"","S1","","html-keyboard-response","238","300096","0.0-1.0-389.0","0","0","64928","","null","","","null","43","","","","","","","","","","","","","","","",""
"","ISI","","html-keyboard-response","239","300599","0.0-1.0-390.0","0","0","64928","","137","","","75","43","k","","","","","","","","","","","","","","",""
"","S2","","html-keyboard-response","240","300856","0.0-1.0-391.0","0","0","64928","","null","","","null","43","","NaN","","","","","","","","","","","","","",""
"","response","","html-keyboard-response","241","300923","0.0-1.0-392.0-0.0","0","0","64928","","64","","","68","43","","","1","43","training","adjacent","FG","6","7","R.jpg","N.jpg","1","1","1","",""
"","feedback","","html-keyboard-response","242","301928","0.0-1.0-393.0-0.0","0","0","64928","","null","","","null","43","","","","","","","","","","","","","","","",""
"","ITI","","html-keyboard-response","243","302933","0.0-1.0-396.0","0","0","64928","","198","","","75","43","","","","","","","","","","","","","","","k",""
"","S1","","html-keyboard-response","244","303192","0.0-1.0-398.0","0","0","64928","","null","","","null","44","","","","","","","","","","","","","","","",""
"","ISI","","html-keyboard-response","245","303713","0.0-1.0-399.0","0","0","64928","","69","","","75","44","k","","","","","","","","","","","","","","",""
"","S2","","html-keyboard-response","246","303844","0.0-1.0-400.0","0","0","64928","","127","","","75","44","","k","1","44","training","adjacent","CD","3","4","O.jpg","P.jpg","0","1","0","",""
"","feedback","","html-keyboard-response","247","304851","0.0-1.0-402.0-0.0","0","0","64928","","null","","","null","44","","","","","","","","","","","","","","","",""
"","time_out","","html-keyboard-response","248","306858","0.0-1.0-404.0-0.0","0","0","64928","","null","","","null","44","","","","","","","","","","","","","","","",""
"","ITI","","html-keyboard-response","249","307866","0.0-1.0-405.0","0","0","64928","","220","","","75","44","","","","","","","","","","","","","","","k",""
"","S1","","html-keyboard-response","250","308122","0.0-1.0-407.0","0","0","64928","","null","","","null","45","","","","","","","","","","","","","","","",""
"","ISI","","html-keyboard-response","251","308627","0.0-1.0-408.0","0","0","64928","","55","","","68","45","d","","","","","","","","","","","","","","",""
"","S2","","html-keyboard-response","252","308722","0.0-1.0-409.0","0","0","64928","","88","","","68","45","","d","1","45","training","adjacent","AB","1","2","M.jpg","L.jpg","1","1","1","",""
"","feedback","","html-keyboard-response","253","309731","0.0-1.0-411.0-0.0","0","0","64928","","null","","","null","45","","","","","","","","","","","","","","","",""
"","ITI","","html-keyboard-response","254","310740","0.0-1.0-414.0","0","0","64928","","59","","","75","45","","","","","","","","","","","","","","","k",""
"","S1","","html-keyboard-response","255","310999","0.0-1.0-416.0","0","0","64928","","null","","","null","46","","","","","","","","","","","","","","","",""
"","ISI","","html-keyboard-response","256","311505","0.0-1.0-417.0","0","0","64928","","32","","","75","46","k","","","","","","","","","","","","","","",""
"","S2","","html-keyboard-response","257","311638","0.0-1.0-418.0","0","0","64928","","127","","","68","46","","d","1","46","training","adjacent","DC","4","3","P.jpg","O.jpg","1","0","0","",""
"","feedback","","html-keyboard-response","258","312644","0.0-1.0-420.0-0.0","0","0","64928","","null","","","null","46","","","","","","","","","","","","","","","",""
"","time_out","","html-keyboard-response","259","314649","0.0-1.0-422.0-0.0","0","0","64928","","null","","","null","46","","","","","","","","","","","","","","","",""
"","ITI","","html-keyboard-response","260","315655","0.0-1.0-423.0","0","0","64928","","172","","","68","46","","","","","","","","","","","","","","","d",""
"","S1","","html-keyboard-response","261","315911","0.0-1.0-425.0","0","0","64928","","null","","","null","47","","","","","","","","","","","","","","","",""
"","ISI","","html-keyboard-response","262","316419","0.0-1.0-426.0","0","0","64928","","168","","","68","47","d","","","","","","","","","","","","","","",""
"","S2","","html-keyboard-response","263","316427","0.0-1.0-427.0","0","0","64928","","1","","","75","47","","k","1","47","training","adjacent","FG","6","7","R.jpg","N.jpg","0","1","0","",""
"","feedback","","html-keyboard-response","264","317433","0.0-1.0-429.0-0.0","0","0","64928","","null","","","null","47","","","","","","","","","","","","","","","",""
"","time_out","","html-keyboard-response","265","319441","0.0-1.0-431.0-0.0","0","0","64928","","null","","","null","47","","","","","","","","","","","","","","","",""
"","ITI","","html-keyboard-response","266","320448","0.0-1.0-432.0","0","0","64928","","85","","","68","47","","","","","","","","","","","","","","","d",""
"","block_over","","html-keyboard-response","267","331804","0.0-1.0-433.0-0.0","0","0","64928","","11345","","","32","47","","","","","","","","","","","","","","","",""
"","S1","","html-keyboard-response","268","332066","0.0-1.0-434.0","0","0","64928","","null","","","null","48","","","","","","","","","","","","","","","",""
"","ISI","","html-keyboard-response","269","332570","0.0-1.0-435.0","0","0","64928","","486","","","75","48","k","","","","","","","","","","","","","","",""
"","S2","","html-keyboard-response","270","332774","0.0-1.0-436.0","0","0","64928","","198","","","75","48","","k","2","48","training","adjacent","DE","4","5","P.jpg","Q.jpg","0","1","0","",""
"","feedback","","html-keyboard-response","271","333781","0.0-1.0-438.0-0.0","0","0","64928","","null","","","null","48","","","","","","","","","","","","","","","",""
"","time_out","","html-keyboard-response","272","335790","0.0-1.0-440.0-0.0","0","0","64928","","null","","","null","48","","","","","","","","","","","","","","","",""
"","ITI","","html-keyboard-response","273","336795","0.0-1.0-441.0","0","0","64928","","76","","","75","48","","","","","","","","","","","","","","","k",""
"","S1","","html-keyboard-response","274","337060","0.0-1.0-443.0","0","0","64928","","null","","","null","49","","","","","","","","","","","","","","","",""
"","ISI","","html-keyboard-response","275","337564","0.0-1.0-444.0","0","0","64928","","117","","","68","49","d","","","","","","","","","","","","","","",""
"","S2","","html-keyboard-response","276","337659","0.0-1.0-445.0","0","0","64928","","89","","","75","49","","k","2","49","training","adjacent","GF","7","6","N.jpg","R.jpg","0","0","1","",""
"","feedback","","html-keyboard-response","277","338666","0.0-1.0-447.0-0.0","0","0","64928","","null","","","null","49","","","","","","","","","","","","","","","",""
"","ITI","","html-keyboard-response","278","339671","0.0-1.0-450.0","0","0","64928","","19","","","75","49","","","","","","","","","","","","","","","k",""
"","S1","","html-keyboard-response","279","339930","0.0-1.0-452.0","0","0","64928","","null","","","null","50","","","","","","","","","","","","","","","",""
"","ISI","","html-keyboard-response","280","340435","0.0-1.0-453.0","0","0","64928","","70","","","75","50","k","","","","","","","","","","","","","","",""
"","S2","","html-keyboard-response","281","340563","0.0-1.0-454.0","0","0","64928","","122","","","75","50","","k","2","50","training","adjacent","CD","3","4","O.jpg","P.jpg","0","1","0","",""
"","feedback","","html-keyboard-response","282","341576","0.0-1.0-456.0-0.0","0","0","64928","","null","","","null","50","","","","","","","","","","","","","","","",""
"","time_out","","html-keyboard-response","283","343582","0.0-1.0-458.0-0.0","0","0","64928","","null","","","null","50","","","","","","","","","","","","","","","",""
"","ITI","","html-keyboard-response","284","344587","0.0-1.0-459.0","0","0","64928","","237","","","68","50","","","","","","","","","","","","","","","d",""
"","S1","","html-keyboard-response","285","344844","0.0-1.0-461.0","0","0","64928","","null","","","null","51","","","","","","","","","","","","","","","",""
"","ISI","","html-keyboard-response","286","345352","0.0-1.0-462.0","0","0","64928","","19","","","75","51","k","","","","","","","","","","","","","","",""
"","S2","","html-keyboard-response","287","345612","0.0-1.0-463.0","0","0","64928","","249","","","68","51","","d","2","51","training","adjacent","FE","6","5","R.jpg","Q.jpg","1","0","0","",""
"","feedback","","html-keyboard-response","288","346619","0.0-1.0-465.0-0.0","0","0","64928","","null","","","null","51","","","","","","","","","","","","","","","",""
"","time_out","","html-keyboard-response","289","348628","0.0-1.0-467.0-0.0","0","0","64928","","null","","","null","51","","","","","","","","","","","","","","","",""
"","ITI","","html-keyboard-response","290","349639","0.0-1.0-468.0","0","0","64928","","17","","","68","51","","","","","","","","","","","","","","","d",""
"","S1","","html-keyboard-response","291","349895","0.0-1.0-470.0","0","0","64928","","null","","","null","52","","","","","","","","","","","","","","","",""
"","ISI","","html-keyboard-response","292","350399","0.0-1.0-471.0","0","0","64928","","332","","","75","52","k","","","","","","","","","","","","","","",""
"","S2","","html-keyboard-response","293","350574","0.0-1.0-472.0","0","0","64928","","168","","","75","52","","k","2","52","training","adjacent","DE","4","5","P.jpg","Q.jpg","0","1","0","",""
"","feedback","","html-keyboard-response","294","351583","0.0-1.0-474.0-0.0","0","0","64928","","null","","","null","52","","","","","","","","","","","","","","","",""
"","time_out","","html-keyboard-response","295","353591","0.0-1.0-476.0-0.0","0","0","64928","","null","","","null","52","","","","","","","","","","","","","","","",""
"","ITI","","html-keyboard-response","296","354598","0.0-1.0-477.0","0","0","64928","","48","","","68","52","","","","","","","","","","","","","","","d",""
"","S1","","html-keyboard-response","297","354858","0.0-1.0-479.0","0","0","64928","","null","","","null","53","","","","","","","","","","","","","","","",""
"","ISI","","html-keyboard-response","298","355365","0.0-1.0-480.0","0","0","64928","","47","","","68","53","d","","","","","","","","","","","","","","",""
"","S2","","html-keyboard-response","299","355573","0.0-1.0-481.0","0","0","64928","","204","","","68","53","","d","2","53","training","adjacent","ED","5","4","Q.jpg","P.jpg","1","0","0","",""
"","feedback","","html-keyboard-response","300","356583","0.0-1.0-483.0-0.0","0","0","64928","","null","","","null","53","","","","","","","","","","","","","","","",""
"","time_out","","html-keyboard-response","301","358589","0.0-1.0-485.0-0.0","0","0","64928","","null","","","null","53","","","","","","","","","","","","","","","",""
"","ITI","","html-keyboard-response","302","359626","0.0-1.0-486.0","0","0","64928","","80","","","68","53","","","","","","","","","","","","","","","d",""
"","S1","","html-keyboard-response","303","359903","0.0-1.0-488.0","0","0","64928","","null","","","null","54","","","","","","","","","","","","","","","",""
"","ISI","","html-keyboard-response","304","360468","0.0-1.0-489.0","0","0","64928","","3","","","75","54","k","","","","","","","","","","","","","","",""
"","S2","","html-keyboard-response","305","360511","0.0-1.0-490.0","0","0","64928","","31","","","75","54","","k","2","54","training","adjacent","FG","6","7","R.jpg","N.jpg","0","1","0","",""
"","feedback","","html-keyboard-response","306","361517","0.0-1.0-492.0-0.0","0","0","64928","","null","","","null","54","","","","","","","","","","","","","","","",""
"","time_out","","html-keyboard-response","307","363525","0.0-1.0-494.0-0.0","0","0","64928","","null","","","null","54","","","","","","","","","","","","","","","",""
"","ITI","","html-keyboard-response","308","364536","0.0-1.0-495.0","0","0","64928","","119","","","68","54","","","","","","","","","","","","","","","d",""
"","S1","","html-keyboard-response","309","364799","0.0-1.0-497.0","0","0","64928","","null","","","null","55","","","","","","","","","","","","","","","",""
"","ISI","","html-keyboard-response","310","365303","0.0-1.0-498.0","0","0","64928","","232","","","68","55","d","","","","","","","","","","","","","","",""
"","S2","","html-keyboard-response","311","365355","0.0-1.0-499.0","0","0","64928","","46","","","68","55","","d","2","55","training","adjacent","DC","4","3","P.jpg","O.jpg","1","0","0","",""
"","feedback","","html-keyboard-response","312","366364","0.0-1.0-501.0-0.0","0","0","64928","","null","","","null","55","","","","","","","","","","","","","","","",""
"","time_out","","html-keyboard-response","313","368367","0.0-1.0-503.0-0.0","0","0","64928","","null","","","null","55","","","","","","","","","","","","","","","",""
"","ITI","","html-keyboard-response","314","369373","0.0-1.0-504.0","0","0","64928","","210","","","75","55","","","","","","","","","","","","","","","k",""
"","S1","","html-keyboard-response","315","369655","0.0-1.0-506.0","0","0","64928","","null","","","null","56","","","","","","","","","","","","","","","",""
"","ISI","","html-keyboard-response","316","370159","0.0-1.0-507.0","0","0","64928","","11","","","68","56","d","","","","","","","","","","","","","","",""
"","S2","","html-keyboard-response","317","370259","0.0-1.0-508.0","0","0","64928","","98","","","75","56","","k","2","56","training","adjacent","ED","5","4","Q.jpg","P.jpg","0","0","1","",""
"","feedback","","html-keyboard-response","318","371282","0.0-1.0-510.0-0.0","0","0","64928","","null","","","null","56","","","","","","","","","","","","","","","",""
"","ITI","","html-keyboard-response","319","372286","0.0-1.0-513.0","0","0","64928","","61","","","75","56","","","","","","","","","","","","","","","k",""
"","S1","","html-keyboard-response","320","372544","0.0-1.0-515.0","0","0","64928","","null","","","null","57","","","","","","","","","","","","","","","",""
"","ISI","","html-keyboard-response","321","373048","0.0-1.0-516.0","0","0","64928","","202","","","75","57","k","","","","","","","","","","","","","","",""
"","S2","","html-keyboard-response","322","373056","0.0-1.0-517.0","0","0","64928","","5","","","68","57","","d","2","57","training","adjacent","ED","5","4","Q.jpg","P.jpg","1","0","0","",""
"","feedback","","html-keyboard-response","323","374063","0.0-1.0-519.0-0.0","0","0","64928","","null","","","null","57","","","","","","","","","","","","","","","",""
"","time_out","","html-keyboard-response","324","376074","0.0-1.0-521.0-0.0","0","0","64928","","null","","","null","57","","","","","","","","","","","","","","","",""
"","ITI","","html-keyboard-response","325","377091","0.0-1.0-522.0","0","0","64928","","167","","","75","57","","","","","","","","","","","","","","","k",""
"","S1","","html-keyboard-response","326","377541","0.0-1.0-524.0","0","0","64928","","null","","","null","58","","","","","","","","","","","","","","","",""
"","ISI","","html-keyboard-response","327","378047","0.0-1.0-525.0","0","0","64928","","1","","","68","58","d","","","","","","","","","","","","","","",""
"","S2","","html-keyboard-response","328","378197","0.0-1.0-526.0","0","0","64928","","138","","","68","58","","d","2","58","training","adjacent","AB","1","2","M.jpg","L.jpg","1","1","1","",""
"","feedback","","html-keyboard-response","329","379202","0.0-1.0-528.0-0.0","0","0","64928","","null","","","null","58","","","","","","","","","","","","","","","",""
"","ITI","","html-keyboard-response","330","380206","0.0-1.0-531.0","0","0","64928","","276","","","68","58","","","","","","","","","","","","","","","d",""
"","S1","","html-keyboard-response","331","380468","0.0-1.0-533.0","0","0","64928","","null","","","null","59","","","","","","","","","","","","","","","",""
"","ISI","","html-keyboard-response","332","380973","0.0-1.0-534.0","0","0","64928","","22","","","68","59","d","","","","","","","","","","","","","","",""
"","S2","","html-keyboard-response","333","381043","0.0-1.0-535.0","0","0","64928","","64","","","68","59","","d","2","59","training","adjacent","AB","1","2","M.jpg","L.jpg","1","1","1","",""
"","feedback","","html-keyboard-response","334","382050","0.0-1.0-537.0-0.0","0","0","64928","","null","","","null","59","","","","","","","","","","","","","","","",""
"","ITI","","html-keyboard-response","335","383055","0.0-1.0-540.0","0","0","64928","","10","","","75","59","","","","","","","","","","","","","","","k",""
"","S1","","html-keyboard-response","336","383347","0.0-1.0-542.0","0","0","64928","","null","","","null","60","","","","","","","","","","","","","","","",""
"","ISI","","html-keyboard-response","337","383854","0.0-1.0-543.0","0","0","64928","","67","","","75","60","k","","","","","","","","","","","","","","",""
"","S2","","html-keyboard-response","338","384073","0.0-1.0-544.0","0","0","64928","","215","","","75","60","","k","2","60","training","adjacent","CD","3","4","O.jpg","P.jpg","0","1","0","",""
"","feedback","","html-keyboard-response","339","385101","0.0-1.0-546.0-0.0","0","0","64928","","null","","","null","60","","","","","","","","","","","","","","","",""
"","time_out","","html-keyboard-response","340","387121","0.0-1.0-548.0-0.0","0","0","64928","","null","","","null","60","","","","","","","","","","","","","","","",""
"","ITI","","html-keyboard-response","341","388130","0.0-1.0-549.0","0","0","64928","","48","","","68","60","","","","","","","","","","","","","","","d",""
"","S1","","html-keyboard-response","342","388385","0.0-1.0-551.0","0","0","64928","","null","","","null","61","","","","","","","","","","","","","","","",""
"","ISI","","html-keyboard-response","343","388896","0.0-1.0-552.0","0","0","64928","","127","","","68","61","d","","","","","","","","","","","","","","",""
"","S2","","html-keyboard-response","344","389118","0.0-1.0-553.0","0","0","64928","","198","","","68","61","","d","2","61","training","adjacent","EF","5","6","Q.jpg","R.jpg","1","1","1","",""
"","feedback","","html-keyboard-response","345","390159","0.0-1.0-555.0-0.0","0","0","64928","","null","","","null","61","","","","","","","","","","","","","","","",""
"","ITI","","html-keyboard-response","346","391169","0.0-1.0-558.0","0","0","64928","","12","","","75","61","","","","","","","","","","","","","","","k",""
"","S1","","html-keyboard-response","347","391426","0.0-1.0-560.0","0","0","64928","","null","","","null","62","","","","","","","","","","","","","","","",""
"","ISI","","html-keyboard-response","348","391931","0.0-1.0-561.0","0","0","64928","","175","","","75","62","k","","","","","","","","","","","","","","",""
"","S2","","html-keyboard-response","349","392188","0.0-1.0-562.0","0","0","64928","","null","","","null","62","","NaN","","","","","","","","","","","","","",""
"","response","","html-keyboard-response","350","392222","0.0-1.0-563.0-0.0","0","0","64928","","7","","","75","62","","","2","62","training","adjacent","EF","5","6","Q.jpg","R.jpg","0","1","0","",""
"","feedback","","html-keyboard-response","351","393238","0.0-1.0-564.0-0.0","0","0","64928","","null","","","null","62","","","","","","","","","","","","","","","",""
"","time_out","","html-keyboard-response","352","395278","0.0-1.0-566.0-0.0","0","0","64928","","null","","","null","62","","","","","","","","","","","","","","","",""
"","ITI","","html-keyboard-response","353","396291","0.0-1.0-567.0","0","0","64928","","93","","","75","62","","","","","","","","","","","","","","","k",""
"","S1","","html-keyboard-response","354","396548","0.0-1.0-569.0","0","0","64928","","null","","","null","63","","","","","","","","","","","","","","","",""
"","ISI","","html-keyboard-response","355","397077","0.0-1.0-570.0","0","0","64928","","328","","","75","63","k","","","","","","","","","","","","","","",""
"","S2","","html-keyboard-response","356","397339","0.0-1.0-571.0","0","0","64928","","null","","","null","63","","NaN","","","","","","","","","","","","","",""
"","response","","html-keyboard-response","357","397445","0.0-1.0-572.0-0.0","0","0","64928","","100","","","68","63","","","2","63","training","adjacent","CD","3","4","O.jpg","P.jpg","1","1","1","",""
"","feedback","","html-keyboard-response","358","398449","0.0-1.0-573.0-0.0","0","0","64928","","null","","","null","63","","","","","","","","","","","","","","","",""
"","ITI","","html-keyboard-response","359","399603","0.0-1.0-576.0","0","0","64928","","30","","","75","63","","","","","","","","","","","","","","","k",""
"","S1","","html-keyboard-response","360","399863","0.0-1.0-578.0","0","0","64928","","null","","","null","64","","","","","","","","","","","","","","","",""
"","ISI","","html-keyboard-response","361","400368","0.0-1.0-579.0","0","0","64928","","158","","","75","64","k","","","","","","","","","","","","","","",""
"","S2","","html-keyboard-response","362","400447","0.0-1.0-580.0","0","0","64928","","70","","","75","64","","k","2","64","training","adjacent","BC","2","3","L.jpg","O.jpg","0","1","0","",""
"","feedback","","html-keyboard-response","363","401455","0.0-1.0-582.0-0.0","0","0","64928","","null","","","null","64","","","","","","","","","","","","","","","",""
"","time_out","","html-keyboard-response","364","403463","0.0-1.0-584.0-0.0","0","0","64928","","null","","","null","64","","","","","","","","","","","","","","","",""
"","ITI","","html-keyboard-response","365","404483","0.0-1.0-585.0","0","0","64928","","46","","","75","64","","","","","","","","","","","","","","","k",""
"","S1","","html-keyboard-response","366","404738","0.0-1.0-587.0","0","0","64928","","null","","","null","65","","","","","","","","","","","","","","","",""
"","ISI","","html-keyboard-response","367","405242","0.0-1.0-588.0","0","0","64928","","10","","","68","65","d","","","","","","","","","","","","","","",""
"","S2","","html-keyboard-response","368","405498","0.0-1.0-589.0","0","0","64928","","null","","","null","65","","NaN","","","","","","","","","","","","","",""
"","response","","html-keyboard-response","369","405547","0.0-1.0-590.0-0.0","0","0","64928","","45","","","68","65","","","2","65","training","adjacent","AB","1","2","M.jpg","L.jpg","1","1","1","",""
"","feedback","","html-keyboard-response","370","406554","0.0-1.0-591.0-0.0","0","0","64928","","null","","","null","65","","","","","","","","","","","","","","","",""
"","ITI","","html-keyboard-response","371","407563","0.0-1.0-594.0","0","0","64928","","83","","","68","65","","","","","","","","","","","","","","","d",""
"","S1","","html-keyboard-response","372","407830","0.0-1.0-596.0","0","0","64928","","null","","","null","66","","","","","","","","","","","","","","","",""
"","ISI","","html-keyboard-response","373","408340","0.0-1.0-597.0","0","0","64928","","185","","","68","66","d","","","","","","","","","","","","","","",""
"","S2","","html-keyboard-response","374","408346","0.0-1.0-598.0","0","0","64928","","1","","","68","66","","d","2","66","training","adjacent","CB","3","2","O.jpg","L.jpg","1","0","0","",""
"","feedback","","html-keyboard-response","375","409414","0.0-1.0-600.0-0.0","0","0","64928","","null","","","null","66","","","","","","","","","","","","","","","",""
"","time_out","","html-keyboard-response","376","411637","0.0-1.0-602.0-0.0","0","0","64928","","null","","","null","66","","","","","","","","","","","","","","","",""
"","ITI","","html-keyboard-response","377","412643","0.0-1.0-603.0","0","0","64928","","8","","","68","66","","","","","","","","","","","","","","","d",""
"","S1","","html-keyboard-response","378","412901","0.0-1.0-605.0","0","0","64928","","null","","","null","67","","","","","","","","","","","","","","","",""
"","ISI","","html-keyboard-response","379","413406","0.0-1.0-606.0","0","0","64928","","180","","","75","67","k","","","","","","","","","","","","","","",""
"","S2","","html-keyboard-response","380","413452","0.0-1.0-607.0","0","0","64928","","42","","","75","67","","k","2","67","training","adjacent","CD","3","4","O.jpg","P.jpg","0","1","0","",""
"","feedback","","html-keyboard-response","381","414459","0.0-1.0-609.0-0.0","0","0","64928","","null","","","null","67","","","","","","","","","","","","","","","",""
"","time_out","","html-keyboard-response","382","416463","0.0-1.0-611.0-0.0","0","0","64928","","null","","","null","67","","","","","","","","","","","","","","","",""
"","ITI","","html-keyboard-response","383","417473","0.0-1.0-612.0","0","0","64928","","229","","","68","67","","","","","","","","","","","","","","","d",""
"","S1","","html-keyboard-response","384","417729","0.0-1.0-614.0","0","0","64928","","null","","","null","68","","","","","","","","","","","","","","","",""
"","ISI","","html-keyboard-response","385","418234","0.0-1.0-615.0","0","0","64928","","295","","","68","68","d","","","","","","","","","","","","","","",""
"","S2","","html-keyboard-response","386","418410","0.0-1.0-616.0","0","0","64928","","170","","","68","68","","d","2","68","training","adjacent","FE","6","5","R.jpg","Q.jpg","1","0","0","",""
"","feedback","","html-keyboard-response","387","419428","0.0-1.0-618.0-0.0","0","0","64928","","null","","","null","68","","","","","","","","","","","","","","","",""
"","time_out","","html-keyboard-response","388","421437","0.0-1.0-620.0-0.0","0","0","64928","","null","","","null","68","","","","","","","","","","","","","","","",""
"","ITI","","html-keyboard-response","389","422443","0.0-1.0-621.0","0","0","64928","","164","","","75","68","","","","","","","","","","","","","","","k",""
"","S1","","html-keyboard-response","390","422703","0.0-1.0-623.0","0","0","64928","","null","","","null","69","","","","","","","","","","","","","","","",""
"","ISI","","html-keyboard-response","391","423245","0.0-1.0-624.0","0","0","64928","","271","","","68","69","d","","","","","","","","","","","","","","",""
"","S2","","html-keyboard-response","392","423407","0.0-1.0-625.0","0","0","64928","","149","","","68","69","","d","2","69","training","adjacent","GF","7","6","N.jpg","R.jpg","1","0","0","",""
"","feedback","","html-keyboard-response","393","424415","0.0-1.0-627.0-0.0","0","0","64928","","null","","","null","69","","","","","","","","","","","","","","","",""
"","time_out","","html-keyboard-response","394","426519","0.0-1.0-629.0-0.0","0","0","64928","","null","","","null","69","","","","","","","","","","","","","","","",""
"","ITI","","html-keyboard-response","395","427523","0.0-1.0-630.0","0","0","64928","","10","","","75","69","","","","","","","","","","","","","","","k",""
"","S1","","html-keyboard-response","396","427778","0.0-1.0-632.0","0","0","64928","","null","","","null","70","","","","","","","","","","","","","","","",""
"","ISI","","html-keyboard-response","397","428286","0.0-1.0-633.0","0","0","64928","","92","","","68","70","d","","","","","","","","","","","","","","",""
"","S2","","html-keyboard-response","398","428433","0.0-1.0-634.0","0","0","64928","","138","","","75","70","","k","2","70","training","adjacent","BA","2","1","L.jpg","M.jpg","0","0","1","",""
"","feedback","","html-keyboard-response","399","429438","0.0-1.0-636.0-0.0","0","0","64928","","null","","","null","70","","","","","","","","","","","","","","","",""
"","ITI","","html-keyboard-response","400","430444","0.0-1.0-639.0","0","0","64928","","84","","","68","70","","","","","","","","","","","","","","","d",""
"","S1","","html-keyboard-response","401","430701","0.0-1.0-641.0","0","0","64928","","null","","","null","71","","","","","","","","","","","","","","","",""
"","ISI","","html-keyboard-response","402","431208","0.0-1.0-642.0","0","0","64928","","30","","","68","71","d","","","","","","","","","","","","","","",""
"","S2","","html-keyboard-response","403","431343","0.0-1.0-643.0","0","0","64928","","128","","","68","71","","d","2","71","training","adjacent","EF","5","6","Q.jpg","R.jpg","1","1","1","",""
"","feedback","","html-keyboard-response","404","432349","0.0-1.0-645.0-0.0","0","0","64928","","null","","","null","71","","","","","","","","","","","","","","","",""
"","ITI","","html-keyboard-response","405","433356","0.0-1.0-648.0","0","0","64928","","204","","","68","71","","","","","","","","","","","","","","","d",""
"","S1","","html-keyboard-response","406","433609","0.0-1.0-650.0","0","0","64928","","null","","","null","72","","","","","","","","","","","","","","","",""
"","ISI","","html-keyboard-response","407","434113","0.0-1.0-651.0","0","0","64928","","140","","","68","72","d","","","","","","","","","","","","","","",""
"","S2","","html-keyboard-response","408","434369","0.0-1.0-652.0","0","0","64928","","null","","","null","72","","NaN","","","","","","","","","","","","","",""
"","response","","html-keyboard-response","409","434386","0.0-1.0-653.0-0.0","0","0","64928","","11","","","68","72","","","2","72","training","adjacent","BC","2","3","L.jpg","O.jpg","1","1","1","",""
"","feedback","","html-keyboard-response","410","435390","0.0-1.0-654.0-0.0","0","0","64928","","null","","","null","72","","","","","","","","","","","","","","","",""
"","ITI","","html-keyboard-response","411","436396","0.0-1.0-657.0","0","0","64928","","15","","","75","72","","","","","","","","","","","","","","","k",""
"","S1","","html-keyboard-response","412","436650","0.0-1.0-659.0","0","0","64928","","null","","","null","73","","","","","","","","","","","","","","","",""
"","ISI","","html-keyboard-response","413","437236","0.0-1.0-660.0","0","0","64928","","28","","","75","73","k","","","","","","","","","","","","","","",""
"","S2","","html-keyboard-response","414","437381","0.0-1.0-661.0","0","0","64928","","114","","","75","73","","k","2","73","training","adjacent","AB","1","2","M.jpg","L.jpg","0","1","0","",""
"","feedback","","html-keyboard-response","415","438388","0.0-1.0-663.0-0.0","0","0","64928","","null","","","null","73","","","","","","","","","","","","","","","",""
"","time_out","","html-keyboard-response","416","440402","0.0-1.0-665.0-0.0","0","0","64928","","null","","","null","73","","","","","","","","","","","","","","","",""
"","ITI","","html-keyboard-response","417","441408","0.0-1.0-666.0","0","0","64928","","73","","","75","73","","","","","","","","","","","","","","","k",""
"","S1","","html-keyboard-response","418","441671","0.0-1.0-668.0","0","0","64928","","null","","","null","74","","","","","","","","","","","","","","","",""
"","ISI","","html-keyboard-response","419","442176","0.0-1.0-669.0","0","0","64928","","353","","","68","74","d","","","","","","","","","","","","","","",""
"","S2","","html-keyboard-response","420","442345","0.0-1.0-670.0","0","0","64928","","161","","","68","74","","d","2","74","training","adjacent","DC","4","3","P.jpg","O.jpg","1","0","0","",""
"","feedback","","html-keyboard-response","421","443354","0.0-1.0-672.0-0.0","0","0","64928","","null","","","null","74","","","","","","","","","","","","","","","",""
"","time_out","","html-keyboard-response","422","445359","0.0-1.0-674.0-0.0","0","0","64928","","null","","","null","74","","","","","","","","","","","","","","","",""
"","ITI","","html-keyboard-response","423","446380","0.0-1.0-675.0","0","0","64928","","95","","","75","74","","","","","","","","","","","","","","","k",""
"","S1","","html-keyboard-response","424","446638","0.0-1.0-677.0","0","0","64928","","null","","","null","75","","","","","","","","","","","","","","","",""
"","ISI","","html-keyboard-response","425","447175","0.0-1.0-678.0","0","0","64928","","188","","","68","75","d","","","","","","","","","","","","","","",""
"","S2","","html-keyboard-response","426","447185","0.0-1.0-679.0","0","0","64928","","7","","","68","75","","d","2","75","training","adjacent","FE","6","5","R.jpg","Q.jpg","1","0","0","",""
"","feedback","","html-keyboard-response","427","448219","0.0-1.0-681.0-0.0","0","0","64928","","null","","","null","75","","","","","","","","","","","","","","","",""
"","time_out","","html-keyboard-response","428","450232","0.0-1.0-683.0-0.0","0","0","64928","","null","","","null","75","","","","","","","","","","","","","","","",""
"","ITI","","html-keyboard-response","429","451238","0.0-1.0-684.0","0","0","64928","","169","","","68","75","","","","","","","","","","","","","","","d",""
"","S1","","html-keyboard-response","430","451646","0.0-1.0-686.0","0","0","64928","","null","","","null","76","","","","","","","","","","","","","","","",""
"","ISI","","html-keyboard-response","431","452149","0.0-1.0-687.0","0","0","64928","","97","","","68","76","d","","","","","","","","","","","","","","",""
"","S2","","html-keyboard-response","432","452409","0.0-1.0-688.0","0","0","64928","","null","","","null","76","","NaN","","","","","","","","","","","","","",""
"","response","","html-keyboard-response","433","452427","0.0-1.0-689.0-0.0","0","0","64928","","1","","","68","76","","","2","76","training","adjacent","DC","4","3","P.jpg","O.jpg","1","0","0","",""
"","feedback","","html-keyboard-response","434","453432","0.0-1.0-690.0-0.0","0","0","64928","","null","","","null","76","","","","","","","","","","","","","","","",""
"","time_out","","html-keyboard-response","435","455441","0.0-1.0-692.0-0.0","0","0","64928","","null","","","null","76","","","","","","","","","","","","","","","",""
"","ITI","","html-keyboard-response","436","456447","0.0-1.0-693.0","0","0","64928","","205","","","68","76","","","","","","","","","","","","","","","d",""
"","S1","","html-keyboard-response","437","456706","0.0-1.0-695.0","0","0","64928","","null","","","null","77","","","","","","","","","","","","","","","",""
"","ISI","","html-keyboard-response","438","457231","0.0-1.0-696.0","0","0","64928","","2","","","75","77","k","","","","","","","","","","","","","","",""
"","S2","","html-keyboard-response","439","457243","0.0-1.0-697.0","0","0","64928","","8","","","75","77","","k","2","77","training","adjacent","DE","4","5","P.jpg","Q.jpg","0","1","0","",""
"","feedback","","html-keyboard-response","440","458267","0.0-1.0-699.0-0.0","0","0","64928","","null","","","null","77","","","","","","","","","","","","","","","",""
"","time_out","","html-keyboard-response","441","460279","0.0-1.0-701.0-0.0","0","0","64928","","null","","","null","77","","","","","","","","","","","","","","","",""
"","ITI","","html-keyboard-response","442","461290","0.0-1.0-702.0","0","0","64928","","127","","","68","77","","","","","","","","","","","","","","","d",""
"","S1","","html-keyboard-response","443","461548","0.0-1.0-704.0","0","0","64928","","null","","","null","78","","","","","","","","","","","","","","","",""
"","ISI","","html-keyboard-response","444","462069","0.0-1.0-705.0","0","0","64928","","221","","","68","78","d","","","","","","","","","","","","","","",""
"","S2","","html-keyboard-response","445","462221","0.0-1.0-706.0","0","0","64928","","147","","","75","78","","k","2","78","training","adjacent","CB","3","2","O.jpg","L.jpg","0","0","1","",""
"","feedback","","html-keyboard-response","446","463226","0.0-1.0-708.0-0.0","0","0","64928","","null","","","null","78","","","","","","","","","","","","","","","",""
"","ITI","","html-keyboard-response","447","464271","0.0-1.0-711.0","0","0","64928","","148","","","68","78","","","","","","","","","","","","","","","d",""
"","S1","","html-keyboard-response","448","464541","0.0-1.0-713.0","0","0","64928","","null","","","null","79","","","","","","","","","","","","","","","",""
"","ISI","","html-keyboard-response","449","465056","0.0-1.0-714.0","0","0","64928","","8","","","68","79","d","","","","","","","","","","","","","","",""
"","S2","","html-keyboard-response","450","465073","0.0-1.0-715.0","0","0","64928","","13","","","75","79","","k","2","79","training","adjacent","BC","2","3","L.jpg","O.jpg","0","1","0","",""
"","feedback","","html-keyboard-response","451","466083","0.0-1.0-717.0-0.0","0","0","64928","","null","","","null","79","","","","","","","","","","","","","","","",""
"","time_out","","html-keyboard-response","452","468105","0.0-1.0-719.0-0.0","0","0","64928","","null","","","null","79","","","","","","","","","","","","","","","",""
"","ITI","","html-keyboard-response","453","469153","0.0-1.0-720.0","0","0","64928","","83","","","75","79","","","","","","","","","","","","","","","k",""
"","S1","","html-keyboard-response","454","469408","0.0-1.0-722.0","0","0","64928","","null","","","null","80","","","","","","","","","","","","","","","",""
"","ISI","","html-keyboard-response","455","469915","0.0-1.0-723.0","0","0","64928","","36","","","68","80","d","","","","","","","","","","","","","","",""
"","S2","","html-keyboard-response","456","470144","0.0-1.0-724.0","0","0","64928","","222","","","68","80","","d","2","80","training","adjacent","GF","7","6","N.jpg","R.jpg","1","0","0","",""
"","feedback","","html-keyboard-response","457","471154","0.0-1.0-726.0-0.0","0","0","64928","","null","","","null","80","","","","","","","","","","","","","","","",""
"","time_out","","html-keyboard-response","458","473175","0.0-1.0-728.0-0.0","0","0","64928","","null","","","null","80","","","","","","","","","","","","","","","",""
"","ITI","","html-keyboard-response","459","474236","0.0-1.0-729.0","0","0","64928","","19","","","75","80","","","","","","","","","","","","","","","k",""
"","S1","","html-keyboard-response","460","474493","0.0-1.0-731.0","0","0","64928","","null","","","null","81","","","","","","","","","","","","","","","",""
"","ISI","","html-keyboard-response","461","475034","0.0-1.0-732.0","0","0","64928","","34","","","68","81","d","","","","","","","","","","","","","","",""
"","S2","","html-keyboard-response","462","475143","0.0-1.0-733.0","0","0","64928","","90","","","68","81","","d","2","81","training","adjacent","BA","2","1","L.jpg","M.jpg","1","0","0","",""
"","feedback","","html-keyboard-response","463","476310","0.0-1.0-735.0-0.0","0","0","64928","","null","","","null","81","","","","","","","","","","","","","","","",""
"","time_out","","html-keyboard-response","464","478343","0.0-1.0-737.0-0.0","0","0","64928","","null","","","null","81","","","","","","","","","","","","","","","",""
"","ITI","","html-keyboard-response","465","479348","0.0-1.0-738.0","0","0","64928","","7","","","68","81","","","","","","","","","","","","","","","d",""
"","S1","","html-keyboard-response","466","479604","0.0-1.0-740.0","0","0","64928","","null","","","null","82","","","","","","","","","","","","","","","",""
"","ISI","","html-keyboard-response","467","480125","0.0-1.0-741.0","0","0","64928","","191","","","68","82","d","","","","","","","","","","","","","","",""
"","S2","","html-keyboard-response","468","480134","0.0-1.0-742.0","0","0","64928","","1","","","68","82","","d","2","82","training","adjacent","BA","2","1","L.jpg","M.jpg","1","0","0","",""
"","feedback","","html-keyboard-response","469","481213","0.0-1.0-744.0-0.0","0","0","64928","","null","","","null","82","","","","","","","","","","","","","","","",""
"","time_out","","html-keyboard-response","470","483221","0.0-1.0-746.0-0.0","0","0","64928","","null","","","null","82","","","","","","","","","","","","","","","",""
"","ITI","","html-keyboard-response","471","484236","0.0-1.0-747.0","0","0","64928","","167","","","68","82","","","","","","","","","","","","","","","d",""
"","S1","","html-keyboard-response","472","484492","0.0-1.0-749.0","0","0","64928","","null","","","null","83","","","","","","","","","","","","","","","",""
"","ISI","","html-keyboard-response","473","485016","0.0-1.0-750.0","0","0","64928","","224","","","68","83","d","","","","","","","","","","","","","","",""
"","S2","","html-keyboard-response","474","485064","0.0-1.0-751.0","0","0","64928","","29","","","68","83","","d","2","83","training","adjacent","GF","7","6","N.jpg","R.jpg","1","0","0","",""
"","feedback","","html-keyboard-response","475","486070","0.0-1.0-753.0-0.0","0","0","64928","","null","","","null","83","","","","","","","","","","","","","","","",""
"","time_out","","html-keyboard-response","476","488079","0.0-1.0-755.0-0.0","0","0","64928","","null","","","null","83","","","","","","","","","","","","","","","",""
"","ITI","","html-keyboard-response","477","489120","0.0-1.0-756.0","0","0","64928","","296","","","68","83","","","","","","","","","","","","","","","d",""
"","S1","","html-keyboard-response","478","489495","0.0-1.0-758.0","0","0","64928","","null","","","null","84","","","","","","","","","","","","","","","",""
"","ISI","","html-keyboard-response","479","490020","0.0-1.0-759.0","0","0","64928","","77","","","75","84","k","","","","","","","","","","","","","","",""
"","S2","","html-keyboard-response","480","490056","0.0-1.0-760.0","0","0","64928","","30","","","75","84","","k","2","84","training","adjacent","DC","4","3","P.jpg","O.jpg","0","0","1","",""
"","feedback","","html-keyboard-response","481","491068","0.0-1.0-762.0-0.0","0","0","64928","","null","","","null","84","","","","","","","","","","","","","","","",""
"","ITI","","html-keyboard-response","482","492074","0.0-1.0-765.0","0","0","64928","","254","","","75","84","","","","","","","","","","","","","","","k",""
"","S1","","html-keyboard-response","483","492333","0.0-1.0-767.0","0","0","64928","","null","","","null","85","","","","","","","","","","","","","","","",""
"","ISI","","html-keyboard-response","484","492838","0.0-1.0-768.0","0","0","64928","","179","","","68","85","d","","","","","","","","","","","","","","",""
"","S2","","html-keyboard-response","485","493050","0.0-1.0-769.0","0","0","64928","","204","","","68","85","","d","2","85","training","adjacent","FG","6","7","R.jpg","N.jpg","1","1","1","",""
"","feedback","","html-keyboard-response","486","494057","0.0-1.0-771.0-0.0","0","0","64928","","null","","","null","85","","","","","","","","","","","","","","","",""
"","ITI","","html-keyboard-response","487","495072","0.0-1.0-774.0","0","0","64928","","46","","","68","85","","","","","","","","","","","","","","","d",""
"","S1","","html-keyboard-response","488","495330","0.0-1.0-776.0","0","0","64928","","null","","","null","86","","","","","","","","","","","","","","","",""
"","ISI","","html-keyboard-response","489","495833","0.0-1.0-777.0","0","0","64928","","155","","","68","86","d","","","","","","","","","","","","","","",""
"","S2","","html-keyboard-response","490","496019","0.0-1.0-778.0","0","0","64928","","180","","","68","86","","d","2","86","training","adjacent","DE","4","5","P.jpg","Q.jpg","1","1","1","",""
"","feedback","","html-keyboard-response","491","497026","0.0-1.0-780.0-0.0","0","0","64928","","null","","","null","86","","","","","","","","","","","","","","","",""
"","ITI","","html-keyboard-response","492","498039","0.0-1.0-783.0","0","0","64928","","246","","","68","86","","","","","","","","","","","","","","","d",""
"","S1","","html-keyboard-response","493","498298","0.0-1.0-785.0","0","0","64928","","null","","","null","87","","","","","","","","","","","","","","","",""
"","ISI","","html-keyboard-response","494","498802","0.0-1.0-786.0","0","0","64928","","188","","","68","87","d","","","","","","","","","","","","","","",""
"","S2","","html-keyboard-response","495","498808","0.0-1.0-787.0","0","0","64928","","3","","","68","87","","d","2","87","training","adjacent","EF","5","6","Q.jpg","R.jpg","1","1","1","",""
"","feedback","","html-keyboard-response","496","499813","0.0-1.0-789.0-0.0","0","0","64928","","null","","","null","87","","","","","","","","","","","","","","","",""
"","ITI","","html-keyboard-response","497","500819","0.0-1.0-792.0","0","0","64928","","131","","","68","87","","","","","","","","","","","","","","","d",""
"","S1","","html-keyboard-response","498","501076","0.0-1.0-794.0","0","0","64928","","null","","","null","88","","","","","","","","","","","","","","","",""
"","ISI","","html-keyboard-response","499","501584","0.0-1.0-795.0","0","0","64928","","26","","","75","88","k","","","","","","","","","","","","","","",""
"","S2","","html-keyboard-response","500","501647","0.0-1.0-796.0","0","0","64928","","56","","","68","88","","d","2","88","training","adjacent","FE","6","5","R.jpg","Q.jpg","1","0","0","",""
"","feedback","","html-keyboard-response","501","502670","0.0-1.0-798.0-0.0","0","0","64928","","null","","","null","88","","","","","","","","","","","","","","","",""
"","time_out","","html-keyboard-response","502","504678","0.0-1.0-800.0-0.0","0","0","64928","","null","","","null","88","","","","","","","","","","","","","","","",""
"","ITI","","html-keyboard-response","503","505701","0.0-1.0-801.0","0","0","64928","","164","","","68","88","","","","","","","","","","","","","","","d",""
"","S1","","html-keyboard-response","504","505955","0.0-1.0-803.0","0","0","64928","","null","","","null","89","","","","","","","","","","","","","","","",""
"","ISI","","html-keyboard-response","505","506479","0.0-1.0-804.0","0","0","64928","","179","","","68","89","d","","","","","","","","","","","","","","",""
"","S2","","html-keyboard-response","506","506497","0.0-1.0-805.0","0","0","64928","","12","","","68","89","","d","2","89","training","adjacent","BA","2","1","L.jpg","M.jpg","1","0","0","",""
"","feedback","","html-keyboard-response","507","507503","0.0-1.0-807.0-0.0","0","0","64928","","null","","","null","89","","","","","","","","","","","","","","","",""
"","time_out","","html-keyboard-response","508","509507","0.0-1.0-809.0-0.0","0","0","64928","","null","","","null","89","","","","","","","","","","","","","","","",""
"","ITI","","html-keyboard-response","509","510513","0.0-1.0-810.0","0","0","64928","","241","","","75","89","","","","","","","","","","","","","","","k",""
"","S1","","html-keyboard-response","510","510770","0.0-1.0-812.0","0","0","64928","","null","","","null","90","","","","","","","","","","","","","","","",""
"","ISI","","html-keyboard-response","511","511276","0.0-1.0-813.0","0","0","64928","","148","","","68","90","d","","","","","","","","","","","","","","",""
"","S2","","html-keyboard-response","512","511310","0.0-1.0-814.0","0","0","64928","","28","","","68","90","","d","2","90","training","adjacent","ED","5","4","Q.jpg","P.jpg","1","0","0","",""
"","feedback","","html-keyboard-response","513","512317","0.0-1.0-816.0-0.0","0","0","64928","","null","","","null","90","","","","","","","","","","","","","","","",""
"","time_out","","html-keyboard-response","514","514324","0.0-1.0-818.0-0.0","0","0","64928","","null","","","null","90","","","","","","","","","","","","","","","",""
"","ITI","","html-keyboard-response","515","515331","0.0-1.0-819.0","0","0","64928","","218","","","68","90","","","","","","","","","","","","","","","d",""
"","S1","","html-keyboard-response","516","515724","0.0-1.0-821.0","0","0","64928","","null","","","null","91","","","","","","","","","","","","","","","",""
"","ISI","","html-keyboard-response","517","516240","0.0-1.0-822.0","0","0","64928","","131","","","68","91","d","","","","","","","","","","","","","","",""
"","S2","","html-keyboard-response","518","516496","0.0-1.0-823.0","0","0","64928","","null","","","null","91","","NaN","","","","","","","","","","","","","",""
"","response","","html-keyboard-response","519","516521","0.0-1.0-824.0-0.0","0","0","64928","","20","","","68","91","","","2","91","training","adjacent","CB","3","2","O.jpg","L.jpg","1","0","0","",""
"","feedback","","html-keyboard-response","520","517529","0.0-1.0-825.0-0.0","0","0","64928","","null","","","null","91","","","","","","","","","","","","","","","",""
"","time_out","","html-keyboard-response","521","519538","0.0-1.0-827.0-0.0","0","0","64928","","null","","","null","91","","","","","","","","","","","","","","","",""
"","ITI","","html-keyboard-response","522","520544","0.0-1.0-828.0","0","0","64928","","106","","","75","91","","","","","","","","","","","","","","","k",""
"","S1","","html-keyboard-response","523","520801","0.0-1.0-830.0","0","0","64928","","null","","","null","92","","","","","","","","","","","","","","","",""
"","ISI","","html-keyboard-response","524","521305","0.0-1.0-831.0","0","0","64928","","451","","","75","92","k","","","","","","","","","","","","","","",""
"","S2","","html-keyboard-response","525","521568","0.0-1.0-832.0","0","0","64928","","null","","","null","92","","NaN","","","","","","","","","","","","","",""
"","response","","html-keyboard-response","526","521895","0.0-1.0-833.0-0.0","0","0","64928","","319","","","75","92","","","2","92","training","adjacent","BC","2","3","L.jpg","O.jpg","0","1","0","",""
"","feedback","","html-keyboard-response","527","522913","0.0-1.0-834.0-0.0","0","0","64928","","null","","","null","92","","","","","","","","","","","","","","","",""
"","time_out","","html-keyboard-response","528","524920","0.0-1.0-836.0-0.0","0","0","64928","","null","","","null","92","","","","","","","","","","","","","","","",""
"","ITI","","html-keyboard-response","529","525977","0.0-1.0-837.0","0","0","64928","","null","","","null","92","","","","","","","","","","","","","","","NaN",""
"","S1","","html-keyboard-response","530","526232","0.0-1.0-839.0","0","0","64928","","null","","","null","93","","","","","","","","","","","","","","","",""
"","ISI","","html-keyboard-response","531","526740","0.0-1.0-840.0","0","0","64928","","88","","","68","93","d","","","","","","","","","","","","","","",""
"","S2","","html-keyboard-response","532","526836","0.0-1.0-841.0","0","0","64928","","91","","","75","93","","k","2","93","training","adjacent","CB","3","2","O.jpg","L.jpg","0","0","1","",""
"","feedback","","html-keyboard-response","533","527843","0.0-1.0-843.0-0.0","0","0","64928","","null","","","null","93","","","","","","","","","","","","","","","",""
"","ITI","","html-keyboard-response","534","528852","0.0-1.0-846.0","0","0","64928","","369","","","75","93","","","","","","","","","","","","","","","k",""
"","S1","","html-keyboard-response","535","529107","0.0-1.0-848.0","0","0","64928","","null","","","null","94","","","","","","","","","","","","","","","",""
"","ISI","","html-keyboard-response","536","529615","0.0-1.0-849.0","0","0","64928","","69","","","68","94","d","","","","","","","","","","","","","","",""
"","S2","","html-keyboard-response","537","529657","0.0-1.0-850.0","0","0","64928","","33","","","68","94","","d","2","94","training","adjacent","FG","6","7","R.jpg","N.jpg","1","1","1","",""
"","feedback","","html-keyboard-response","538","530676","0.0-1.0-852.0-0.0","0","0","64928","","null","","","null","94","","","","","","","","","","","","","","","",""
"","ITI","","html-keyboard-response","539","531688","0.0-1.0-855.0","0","0","64928","","23","","","75","94","","","","","","","","","","","","","","","k",""
"","S1","","html-keyboard-response","540","531972","0.0-1.0-857.0","0","0","64928","","null","","","null","95","","","","","","","","","","","","","","","",""
"","ISI","","html-keyboard-response","541","532477","0.0-1.0-858.0","0","0","64928","","360","","","68","95","d","","","","","","","","","","","","","","",""
"","S2","","html-keyboard-response","542","532732","0.0-1.0-859.0","0","0","64928","","null","","","null","95","","NaN","","","","","","","","","","","","","",""
"","response","","html-keyboard-response","543","532807","0.0-1.0-860.0-0.0","0","0","64928","","70","","","75","95","","","2","95","training","adjacent","FG","6","7","R.jpg","N.jpg","0","1","0","",""
"","feedback","","html-keyboard-response","544","533823","0.0-1.0-861.0-0.0","0","0","64928","","null","","","null","95","","","","","","","","","","","","","","","",""
"","time_out","","html-keyboard-response","545","535858","0.0-1.0-863.0-0.0","0","0","64928","","null","","","null","95","","","","","","","","","","","","","","","",""
"","ITI","","html-keyboard-response","546","536874","0.0-1.0-864.0","0","0","64928","","301","","","68","95","","","","","","","","","","","","","","","d",""
"","block_over","","html-keyboard-response","547","539244","0.0-1.0-865.0-0.0","0","0","64928","","2355","","","32","95","","","","","","","","","","","","","","","",""
"","S1","","html-keyboard-response","548","539500","0.0-1.0-866.0","0","0","64928","","null","","","null","96","","","","","","","","","","","","","","","",""
"","ISI","","html-keyboard-response","549","540091","0.0-1.0-867.0","0","0","64928","","null","","","null","96","NaN","","","","","","","","","","","","","","",""
"","S2","","html-keyboard-response","550","540235","0.0-1.0-868.0","0","0","64928","","137","","","75","96","","k","3","96","training","adjacent","AB","1","2","M.jpg","L.jpg","0","1","0","",""
"","feedback","","html-keyboard-response","551","541243","0.0-1.0-870.0-0.0","0","0","64928","","null","","","null","96","","","","","","","","","","","","","","","",""
"","time_out","","html-keyboard-response","552","543253","0.0-1.0-872.0-0.0","0","0","64928","","null","","","null","96","","","","","","","","","","","","","","","",""
"","ITI","","html-keyboard-response","553","544259","0.0-1.0-873.0","0","0","64928","","null","","","null","96","","","","","","","","","","","","","","","NaN",""
"","S1","","html-keyboard-response","554","544513","0.0-1.0-875.0","0","0","64928","","null","","","null","97","","","","","","","","","","","","","","","",""
"","ISI","","html-keyboard-response","555","545017","0.0-1.0-876.0","0","0","64928","","null","","","null","97","NaN","","","","","","","","","","","","","","",""
"","S2","","html-keyboard-response","556","545363","0.0-1.0-877.0","0","0","64928","","null","","","null","97","","NaN","","","","","","","","","","","","","",""
"","response","","html-keyboard-response","557","546102","0.0-1.0-878.0-0.0","0","0","64928","","732","","","68","97","","","3","97","training","adjacent","GF","7","6","N.jpg","R.jpg","1","0","0","",""
"","feedback","","html-keyboard-response","558","547117","0.0-1.0-879.0-0.0","0","0","64928","","null","","","null","97","","","","","","","","","","","","","","","",""
"","time_out","","html-keyboard-response","559","549128","0.0-1.0-881.0-0.0","0","0","64928","","null","","","null","97","","","","","","","","","","","","","","","",""
"","ITI","","html-keyboard-response","560","550193","0.0-1.0-882.0","0","0","64928","","null","","","null","97","","","","","","","","","","","","","","","NaN",""
"","S1","","html-keyboard-response","561","550450","0.0-1.0-884.0","0","0","64928","","null","","","null","98","","","","","","","","","","","","","","","",""
"","ISI","","html-keyboard-response","562","550960","0.0-1.0-885.0","0","0","64928","","null","","","null","98","NaN","","","","","","","","","","","","","","",""
"","S2","","html-keyboard-response","563","551217","0.0-1.0-886.0","0","0","64928","","null","","","null","98","","NaN","","","","","","","","","","","","","",""
"","response","","html-keyboard-response","564","552669","0.0-1.0-887.0-0.0","0","0","64928","","1446","","","68","98","","","3","98","training","adjacent","CD","3","4","O.jpg","P.jpg","1","1","1","",""
"","feedback","","html-keyboard-response","565","553679","0.0-1.0-888.0-0.0","0","0","64928","","null","","","null","98","","","","","","","","","","","","","","","",""
"","ITI","","html-keyboard-response","566","554686","0.0-1.0-891.0","0","0","64928","","142","","","68","98","","","","","","","","","","","","","","","d",""
"","S1","","html-keyboard-response","567","554941","0.0-1.0-893.0","0","0","64928","","null","","","null","99","","","","","","","","","","","","","","","",""
"","ISI","","html-keyboard-response","568","555450","0.0-1.0-894.0","0","0","64928","","null","","","null","99","NaN","","","","","","","","","","","","","","",""
"","S2","","html-keyboard-response","569","555587","0.0-1.0-895.0","0","0","64928","","131","","","68","99","","d","3","99","training","adjacent","EF","5","6","Q.jpg","R.jpg","1","1","1","",""
"","feedback","","html-keyboard-response","570","556591","0.0-1.0-897.0-0.0","0","0","64928","","null","","","null","99","","","","","","","","","","","","","","","",""
"","ITI","","html-keyboard-response","571","557598","0.0-1.0-900.0","0","0","64928","","71","","","68","99","","","","","","","","","","","","","","","d",""
"","S1","","html-keyboard-response","572","557854","0.0-1.0-902.0","0","0","64928","","null","","","null","100","","","","","","","","","","","","","","","",""
"","ISI","","html-keyboard-response","573","558361","0.0-1.0-903.0","0","0","64928","","326","","","75","100","k","","","","","","","","","","","","","","",""
"","S2","","html-keyboard-response","574","558618","0.0-1.0-904.0","0","0","64928","","null","","","null","100","","NaN","","","","","","","","","","","","","",""
"","response","","html-keyboard-response","575","558703","0.0-1.0-905.0-0.0","0","0","64928","","84","","","75","100","","","3","100","training","adjacent","BC","2","3","L.jpg","O.jpg","0","1","0","",""
"","feedback","","html-keyboard-response","576","559710","0.0-1.0-906.0-0.0","0","0","64928","","null","","","null","100","","","","","","","","","","","","","","","",""
"","time_out","","html-keyboard-response","577","561719","0.0-1.0-908.0-0.0","0","0","64928","","null","","","null","100","","","","","","","","","","","","","","","",""
"","ITI","","html-keyboard-response","578","562726","0.0-1.0-909.0","0","0","64928","","216","","","68","100","","","","","","","","","","","","","","","d",""
"","S1","","html-keyboard-response","579","563090","0.0-1.0-911.0","0","0","64928","","null","","","null","101","","","","","","","","","","","","","","","",""
"","ISI","","html-keyboard-response","580","563595","0.0-1.0-912.0","0","0","64928","","191","","","68","101","d","","","","","","","","","","","","","","",""
"","S2","","html-keyboard-response","581","563711","0.0-1.0-913.0","0","0","64928","","108","","","68","101","","d","3","101","training","adjacent","DC","4","3","P.jpg","O.jpg","1","0","0","",""
"","feedback","","html-keyboard-response","582","564717","0.0-1.0-915.0-0.0","0","0","64928","","null","","","null","101","","","","","","","","","","","","","","","",""
"","time_out","","html-keyboard-response","583","566722","0.0-1.0-917.0-0.0","0","0","64928","","null","","","null","101","","","","","","","","","","","","","","","",""
"","ITI","","html-keyboard-response","584","567725","0.0-1.0-918.0","0","0","64928","","17","","","68","101","","","","","","","","","","","","","","","d",""
"","S1","","html-keyboard-response","585","567980","0.0-1.0-920.0","0","0","64928","","null","","","null","102","","","","","","","","","","","","","","","",""
"","ISI","","html-keyboard-response","586","568487","0.0-1.0-921.0","0","0","64928","","270","","","68","102","d","","","","","","","","","","","","","","",""
"","S2","","html-keyboard-response","587","568559","0.0-1.0-922.0","0","0","64928","","66","","","68","102","","d","3","102","training","adjacent","BA","2","1","L.jpg","M.jpg","1","0","0","",""
"","feedback","","html-keyboard-response","588","569565","0.0-1.0-924.0-0.0","0","0","64928","","null","","","null","102","","","","","","","","","","","","","","","",""
"","time_out","","html-keyboard-response","589","571569","0.0-1.0-926.0-0.0","0","0","64928","","null","","","null","102","","","","","","","","","","","","","","","",""
