"success","ttype","start_time","trial_type","trial_index","time_elapsed","internal_node_id","warning","missed_checkup","PID","view_history","rt","responses","repeat_instructions","key_press","index","keypress_isi","keypress_S2","block","trial_num","phase","group_type","pair_type","S1_stim","S2_stim","S1_img","S2_img","S1_chosen","S1_higher","accuracy","keypress_iti","total_bonus_tally"
"true","full_screen","d03032023hr2119","fullscreen","0","4761","0.0-0.0","0","0","91138","","","","","","","","","","","","","","","","","","","","","",""
"","instructions","","instructions","1","12162","0.0-1.0-0.0-0.0","0","0","91138","[{""page_index"":0,""viewing_time"":1832},{""page_index"":1,""viewing_time"":2319},{""page_index"":2,""viewing_time"":2201},{""page_index"":3,""viewing_time"":1047}]","7399","","","","","","","","","","","","","","","","","","","",""
"","comprehension_check","","survey-multi-choice","2","27820","0.0-1.0-0.0-1.0","0","0","91138","","15654","{""Q0"":""True"",""Q1"":""D"",""Q2"":""Only when the screen 'MAKE A CHOICE' is shown"",""Q3"":""Green mark"",""Q4"":""either D or K""}","1","","","","","","","","","","","","","","","","","",""
"","missed_instruction_checkup","","html-keyboard-response","3","29700","0.0-1.0-0.0-2.0-0.0","0","1","91138","","1876","","","32","","","","","","","","","","","","","","","","",""
"","instructions","","instructions","4","44283","0.0-1.0-0.1-0.1","0","0","91138","[{""page_index"":0,""viewing_time"":4596},{""page_index"":1,""viewing_time"":6536},{""page_index"":2,""viewing_time"":2712},{""page_index"":3,""viewing_time"":737}]","14581","","","","","","","","","","","","","","","","","","","",""
"","comprehension_check","","survey-multi-choice","5","53364","0.0-1.0-0.1-1.1","0","0","91138","","9077","{""Q0"":""False"",""Q1"":""D"",""Q2"":""Only when the screen 'MAKE A CHOICE' is shown"",""Q3"":""Green mark"",""Q4"":""either D or K""}","1","","","","","","","","","","","","","","","","","",""
"","missed_instruction_checkup","","html-keyboard-response","6","55043","0.0-1.0-0.1-2.1-0.1","0","1","91138","","1678","","","32","","","","","","","","","","","","","","","","",""
"","instructions","","instructions","7","79803","0.0-1.0-0.2-0.2","0","0","91138","[{""page_index"":0,""viewing_time"":4046},{""page_index"":1,""viewing_time"":16936},{""page_index"":2,""viewing_time"":3128},{""page_index"":3,""viewing_time"":649}]","24759","","","","","","","","","","","","","","","","","","","",""
"","comprehension_check","","survey-multi-choice","8","92292","0.0-1.0-0.2-1.2","0","0","91138","","12486","{""Q0"":""True"",""Q1"":""D"",""Q2"":""Once the second image appears and while the screen 'MAKE A CHOICE' is shown"",""Q3"":""Green mark"",""Q4"":""either D or K""}","0","","","","","","","","","","","","","","","","","",""
"","start_exp","","html-keyboard-response","9","93936","0.0-1.0-1.0","0","0","91138","","1642","","","32","","","","","","","","","","","","","","","","",""
"","S1","","html-keyboard-response","10","94188","0.0-1.0-2.0","0","0","91138","","null","","","null","0","","","","","","","","","","","","","","","",""
"","ISI","","html-keyboard-response","11","94690","0.0-1.0-3.0","0","0","91138","","null","","","null","0","NaN","","","","","","","","","","","","","","",""
"","S2","","html-keyboard-response","12","94942","0.0-1.0-4.0","0","0","91138","","null","","","null","0","","NaN","","","","","","","","","","","","","",""
"","response","","html-keyboard-response","13","96695","0.0-1.0-5.0-0.0","0","0","91138","","null","","","null","0","","","1","0","training","adjacent","BA","2","1","R.jpg","N.jpg","NaN","0","0","",""
"","too_slow_prompt","","html-keyboard-response","14","97699","0.0-1.0-7.0-0.0","1","0","91138","","null","","","null","","","","","","","","","","","","","","","","",""
"","time_out","","html-keyboard-response","15","99704","0.0-1.0-8.0-0.0","0","0","91138","","null","","","null","0","","","","","","","","","","","","","","","",""
"","ITI","","html-keyboard-response","16","100708","0.0-1.0-9.0","0","0","91138","","null","","","null","0","","","","","","","","","","","","","","","NaN",""
"","S1","","html-keyboard-response","17","100961","0.0-1.0-11.0","0","0","91138","","null","","","null","1","","","","","","","","","","","","","","","",""
"","ISI","","html-keyboard-response","18","101464","0.0-1.0-12.0","0","0","91138","","null","","","null","1","NaN","","","","","","","","","","","","","","",""
"","S2","","html-keyboard-response","19","101719","0.0-1.0-13.0","0","0","91138","","null","","","null","1","","NaN","","","","","","","","","","","","","",""
"","response","","html-keyboard-response","20","102276","0.0-1.0-14.0-0.0","0","0","91138","","556","","","68","1","","","1","1","training","adjacent","BA","2","1","R.jpg","N.jpg","1","0","0","",""
"","feedback","","html-keyboard-response","21","103278","0.0-1.0-15.0-0.0","0","0","91138","","null","","","null","1","","","","","","","","","","","","","","","",""
"","time_out","","html-keyboard-response","22","105280","0.0-1.0-17.0-0.0","0","0","91138","","null","","","null","1","","","","","","","","","","","","","","","",""
"","ITI","","html-keyboard-response","23","106282","0.0-1.0-18.0","0","0","91138","","null","","","null","1","","","","","","","","","","","","","","","NaN",""
"","S1","","html-keyboard-response","24","106535","0.0-1.0-20.0","0","0","91138","","null","","","null","2","","","","","","","","","","","","","","","",""
"","ISI","","html-keyboard-response","25","107037","0.0-1.0-21.0","0","0","91138","","null","","","null","2","NaN","","","","","","","","","","","","","","",""
"","S2","","html-keyboard-response","26","107291","0.0-1.0-22.0","0","0","91138","","null","","","null","2","","NaN","","","","","","","","","","","","","",""
"","response","","html-keyboard-response","27","108371","0.0-1.0-23.0-0.0","0","0","91138","","1079","","","68","2","","","1","2","training","adjacent","ED","5","4","L.jpg","P.jpg","1","0","0","",""
"","feedback","","html-keyboard-response","28","109373","0.0-1.0-24.0-0.0","0","0","91138","","null","","","null","2","","","","","","","","","","","","","","","",""
"","time_out","","html-keyboard-response","29","111375","0.0-1.0-26.0-0.0","0","0","91138","","null","","","null","2","","","","","","","","","","","","","","","",""
"","ITI","","html-keyboard-response","30","112377","0.0-1.0-27.0","0","0","91138","","null","","","null","2","","","","","","","","","","","","","","","NaN",""
"","S1","","html-keyboard-response","31","112631","0.0-1.0-29.0","0","0","91138","","null","","","null","3","","","","","","","","","","","","","","","",""
"","ISI","","html-keyboard-response","32","113136","0.0-1.0-30.0","0","0","91138","","null","","","null","3","NaN","","","","","","","","","","","","","","",""
"","S2","","html-keyboard-response","33","113390","0.0-1.0-31.0","0","0","91138","","null","","","null","3","","NaN","","","","","","","","","","","","","",""
"","response","","html-keyboard-response","34","114749","0.0-1.0-32.0-0.0","0","0","91138","","1358","","","75","3","","","1","3","training","adjacent","EF","5","6","L.jpg","O.jpg","0","1","0","",""
"","feedback","","html-keyboard-response","35","115752","0.0-1.0-33.0-0.0","0","0","91138","","null","","","null","3","","","","","","","","","","","","","","","",""
"","time_out","","html-keyboard-response","36","117756","0.0-1.0-35.0-0.0","0","0","91138","","null","","","null","3","","","","","","","","","","","","","","","",""
"","ITI","","html-keyboard-response","37","118759","0.0-1.0-36.0","0","0","91138","","null","","","null","3","","","","","","","","","","","","","","","NaN",""
"","S1","","html-keyboard-response","38","119012","0.0-1.0-38.0","0","0","91138","","null","","","null","4","","","","","","","","","","","","","","","",""
"","ISI","","html-keyboard-response","39","119515","0.0-1.0-39.0","0","0","91138","","null","","","null","4","NaN","","","","","","","","","","","","","","",""
"","S2","","html-keyboard-response","40","119770","0.0-1.0-40.0","0","0","91138","","null","","","null","4","","NaN","","","","","","","","","","","","","",""
"","response","","html-keyboard-response","41","121523","0.0-1.0-41.0-0.0","0","0","91138","","null","","","null","4","","","1","4","training","adjacent","FE","6","5","O.jpg","L.jpg","NaN","0","0","",""
"","too_slow_prompt","","html-keyboard-response","42","122524","0.0-1.0-43.0-0.0","1","0","91138","","null","","","null","","","","","","","","","","","","","","","","",""
"","time_out","","html-keyboard-response","43","124527","0.0-1.0-44.0-0.0","0","0","91138","","null","","","null","4","","","","","","","","","","","","","","","",""
"","ITI","","html-keyboard-response","44","125531","0.0-1.0-45.0","0","0","91138","","null","","","null","4","","","","","","","","","","","","","","","NaN",""
"","S1","","html-keyboard-response","45","125784","0.0-1.0-47.0","0","0","91138","","null","","","null","5","","","","","","","","","","","","","","","",""
"","ISI","","html-keyboard-response","46","126288","0.0-1.0-48.0","0","0","91138","","null","","","null","5","NaN","","","","","","","","","","","","","","",""
"","S2","","html-keyboard-response","47","126541","0.0-1.0-49.0","0","0","91138","","null","","","null","5","","NaN","","","","","","","","","","","","","",""
"","response","","html-keyboard-response","48","128272","0.0-1.0-50.0-0.0","0","0","91138","","1728","","","75","5","","","1","5","training","adjacent","CD","3","4","M.jpg","P.jpg","0","1","0","",""
"","feedback","","html-keyboard-response","49","129276","0.0-1.0-51.0-0.0","0","0","91138","","null","","","null","5","","","","","","","","","","","","","","","",""
"","time_out","","html-keyboard-response","50","131279","0.0-1.0-53.0-0.0","0","0","91138","","null","","","null","5","","","","","","","","","","","","","","","",""
"","ITI","","html-keyboard-response","51","132283","0.0-1.0-54.0","0","0","91138","","null","","","null","5","","","","","","","","","","","","","","","NaN",""
"","S1","","html-keyboard-response","52","132537","0.0-1.0-56.0","0","0","91138","","null","","","null","6","","","","","","","","","","","","","","","",""
"","ISI","","html-keyboard-response","53","133038","0.0-1.0-57.0","0","0","91138","","null","","","null","6","NaN","","","","","","","","","","","","","","",""
"","S2","","html-keyboard-response","54","133292","0.0-1.0-58.0","0","0","91138","","null","","","null","6","","NaN","","","","","","","","","","","","","",""
"","response","","html-keyboard-response","55","133850","0.0-1.0-59.0-0.0","0","0","91138","","557","","","68","6","","","1","6","training","adjacent","AB","1","2","N.jpg","R.jpg","1","1","1","",""
"","feedback","","html-keyboard-response","56","134852","0.0-1.0-60.0-0.0","0","0","91138","","null","","","null","6","","","","","","","","","","","","","","","",""
"","ITI","","html-keyboard-response","57","135854","0.0-1.0-63.0","0","0","91138","","null","","","null","6","","","","","","","","","","","","","","","NaN",""
"","S1","","html-keyboard-response","58","136108","0.0-1.0-65.0","0","0","91138","","null","","","null","7","","","","","","","","","","","","","","","",""
"","ISI","","html-keyboard-response","59","136612","0.0-1.0-66.0","0","0","91138","","null","","","null","7","NaN","","","","","","","","","","","","","","",""
"","S2","","html-keyboard-response","60","136865","0.0-1.0-67.0","0","0","91138","","null","","","null","7","","NaN","","","","","","","","","","","","","",""
"","response","","html-keyboard-response","61","137515","0.0-1.0-68.0-0.0","0","0","91138","","649","","","75","7","","","1","7","training","adjacent","DE","4","5","P.jpg","L.jpg","0","1","0","",""
"","feedback","","html-keyboard-response","62","138517","0.0-1.0-69.0-0.0","0","0","91138","","null","","","null","7","","","","","","","","","","","","","","","",""
"","time_out","","html-keyboard-response","63","140522","0.0-1.0-71.0-0.0","0","0","91138","","null","","","null","7","","","","","","","","","","","","","","","",""
"","ITI","","html-keyboard-response","64","141525","0.0-1.0-72.0","0","0","91138","","null","","","null","7","","","","","","","","","","","","","","","NaN",""
"","S1","","html-keyboard-response","65","141779","0.0-1.0-74.0","0","0","91138","","null","","","null","8","","","","","","","","","","","","","","","",""
"","ISI","","html-keyboard-response","66","142281","0.0-1.0-75.0","0","0","91138","","null","","","null","8","NaN","","","","","","","","","","","","","","",""
"","S2","","html-keyboard-response","67","142534","0.0-1.0-76.0","0","0","91138","","null","","","null","8","","NaN","","","","","","","","","","","","","",""
"","response","","html-keyboard-response","68","143157","0.0-1.0-77.0-0.0","0","0","91138","","622","","","68","8","","","1","8","training","adjacent","DE","4","5","P.jpg","L.jpg","1","1","1","",""
"","feedback","","html-keyboard-response","69","144161","0.0-1.0-78.0-0.0","0","0","91138","","null","","","null","8","","","","","","","","","","","","","","","",""
"","ITI","","html-keyboard-response","70","145163","0.0-1.0-81.0","0","0","91138","","null","","","null","8","","","","","","","","","","","","","","","NaN",""
"","S1","","html-keyboard-response","71","145415","0.0-1.0-83.0","0","0","91138","","null","","","null","9","","","","","","","","","","","","","","","",""
"","ISI","","html-keyboard-response","72","145917","0.0-1.0-84.0","0","0","91138","","null","","","null","9","NaN","","","","","","","","","","","","","","",""
"","S2","","html-keyboard-response","73","146169","0.0-1.0-85.0","0","0","91138","","null","","","null","9","","NaN","","","","","","","","","","","","","",""
"","response","","html-keyboard-response","74","146830","0.0-1.0-86.0-0.0","0","0","91138","","660","","","68","9","","","1","9","training","adjacent","FE","6","5","O.jpg","L.jpg","1","0","0","",""
"","feedback","","html-keyboard-response","75","147834","0.0-1.0-87.0-0.0","0","0","91138","","null","","","null","9","","","","","","","","","","","","","","","",""
"","time_out","","html-keyboard-response","76","149838","0.0-1.0-89.0-0.0","0","0","91138","","null","","","null","9","","","","","","","","","","","","","","","",""
"","ITI","","html-keyboard-response","77","150841","0.0-1.0-90.0","0","0","91138","","null","","","null","9","","","","","","","","","","","","","","","NaN",""
"","S1","","html-keyboard-response","78","151093","0.0-1.0-92.0","0","0","91138","","null","","","null","10","","","","","","","","","","","","","","","",""
"","ISI","","html-keyboard-response","79","151597","0.0-1.0-93.0","0","0","91138","","null","","","null","10","NaN","","","","","","","","","","","","","","",""
"","S2","","html-keyboard-response","80","151860","0.0-1.0-94.0","0","0","91138","","null","","","null","10","","NaN","","","","","","","","","","","","","",""
"","response","","html-keyboard-response","81","152395","0.0-1.0-95.0-0.0","0","0","91138","","534","","","68","10","","","1","10","training","adjacent","ED","5","4","L.jpg","P.jpg","1","0","0","",""
"","feedback","","html-keyboard-response","82","153403","0.0-1.0-96.0-0.0","0","0","91138","","null","","","null","10","","","","","","","","","","","","","","","",""
"","time_out","","html-keyboard-response","83","155407","0.0-1.0-98.0-0.0","0","0","91138","","null","","","null","10","","","","","","","","","","","","","","","",""
"","ITI","","html-keyboard-response","84","156411","0.0-1.0-99.0","0","0","91138","","null","","","null","10","","","","","","","","","","","","","","","NaN",""
"","S1","","html-keyboard-response","85","156665","0.0-1.0-101.0","0","0","91138","","null","","","null","11","","","","","","","","","","","","","","","",""
"","ISI","","html-keyboard-response","86","157169","0.0-1.0-102.0","0","0","91138","","null","","","null","11","NaN","","","","","","","","","","","","","","",""
"","S2","","html-keyboard-response","87","157422","0.0-1.0-103.0","0","0","91138","","null","","","null","11","","NaN","","","","","","","","","","","","","",""
"","response","","html-keyboard-response","88","158035","0.0-1.0-104.0-0.0","0","0","91138","","609","","","75","11","","","1","11","training","adjacent","CD","3","4","M.jpg","P.jpg","0","1","0","",""
"","feedback","","html-keyboard-response","89","159038","0.0-1.0-105.0-0.0","0","0","91138","","null","","","null","11","","","","","","","","","","","","","","","",""
"","time_out","","html-keyboard-response","90","161041","0.0-1.0-107.0-0.0","0","0","91138","","null","","","null","11","","","","","","","","","","","","","","","",""
"","ITI","","html-keyboard-response","91","162045","0.0-1.0-108.0","0","0","91138","","null","","","null","11","","","","","","","","","","","","","","","NaN",""
"","S1","","html-keyboard-response","92","162300","0.0-1.0-110.0","0","0","91138","","null","","","null","12","","","","","","","","","","","","","","","",""
"","ISI","","html-keyboard-response","93","162802","0.0-1.0-111.0","0","0","91138","","null","","","null","12","NaN","","","","","","","","","","","","","","",""
"","S2","","html-keyboard-response","94","163056","0.0-1.0-112.0","0","0","91138","","null","","","null","12","","NaN","","","","","","","","","","","","","",""
"","response","","html-keyboard-response","95","163695","0.0-1.0-113.0-0.0","0","0","91138","","636","","","75","12","","","1","12","training","adjacent","CB","3","2","M.jpg","R.jpg","0","0","1","",""
"","feedback","","html-keyboard-response","96","164699","0.0-1.0-114.0-0.0","0","0","91138","","null","","","null","12","","","","","","","","","","","","","","","",""
"","ITI","","html-keyboard-response","97","165702","0.0-1.0-117.0","0","0","91138","","null","","","null","12","","","","","","","","","","","","","","","NaN",""
"","S1","","html-keyboard-response","98","165955","0.0-1.0-119.0","0","0","91138","","null","","","null","13","","","","","","","","","","","","","","","",""
"","ISI","","html-keyboard-response","99","166458","0.0-1.0-120.0","0","0","91138","","null","","","null","13","NaN","","","","","","","","","","","","","","",""
"","S2","","html-keyboard-response","100","166712","0.0-1.0-121.0","0","0","91138","","null","","","null","13","","NaN","","","","","","","","","","","","","",""
"","response","","html-keyboard-response","101","166905","0.0-1.0-122.0-0.0","0","0","91138","","190","","","75","13","","","1","13","training","adjacent","EF","5","6","L.jpg","O.jpg","0","1","0","",""
"","feedback","","html-keyboard-response","102","167909","0.0-1.0-123.0-0.0","0","0","91138","","null","","","null","13","","","","","","","","","","","","","","","",""
"","time_out","","html-keyboard-response","103","169913","0.0-1.0-125.0-0.0","0","0","91138","","null","","","null","13","","","","","","","","","","","","","","","",""
"","ITI","","html-keyboard-response","104","170915","0.0-1.0-126.0","0","0","91138","","null","","","null","13","","","","","","","","","","","","","","","NaN",""
"","S1","","html-keyboard-response","105","171167","0.0-1.0-128.0","0","0","91138","","null","","","null","14","","","","","","","","","","","","","","","",""
"","ISI","","html-keyboard-response","106","171670","0.0-1.0-129.0","0","0","91138","","null","","","null","14","NaN","","","","","","","","","","","","","","",""
"","S2","","html-keyboard-response","107","171924","0.0-1.0-130.0","0","0","91138","","null","","","null","14","","NaN","","","","","","","","","","","","","",""
"","response","","html-keyboard-response","108","172301","0.0-1.0-131.0-0.0","0","0","91138","","373","","","68","14","","","1","14","training","adjacent","FE","6","5","O.jpg","L.jpg","1","0","0","",""
"","feedback","","html-keyboard-response","109","173305","0.0-1.0-132.0-0.0","0","0","91138","","null","","","null","14","","","","","","","","","","","","","","","",""
"","time_out","","html-keyboard-response","110","175309","0.0-1.0-134.0-0.0","0","0","91138","","null","","","null","14","","","","","","","","","","","","","","","",""
"","ITI","","html-keyboard-response","111","176312","0.0-1.0-135.0","0","0","91138","","null","","","null","14","","","","","","","","","","","","","","","NaN",""
"","S1","","html-keyboard-response","112","176571","0.0-1.0-137.0","0","0","91138","","null","","","null","15","","","","","","","","","","","","","","","",""
"","ISI","","html-keyboard-response","113","177074","0.0-1.0-138.0","0","0","91138","","null","","","null","15","NaN","","","","","","","","","","","","","","",""
"","S2","","html-keyboard-response","114","177328","0.0-1.0-139.0","0","0","91138","","null","","","null","15","","NaN","","","","","","","","","","","","","",""
"","response","","html-keyboard-response","115","177891","0.0-1.0-140.0-0.0","0","0","91138","","561","","","75","15","","","1","15","training","adjacent","FG","6","7","O.jpg","Q.jpg","0","1","0","",""
"","feedback","","html-keyboard-response","116","178894","0.0-1.0-141.0-0.0","0","0","91138","","null","","","null","15","","","","","","","","","","","","","","","",""
"","time_out","","html-keyboard-response","117","180897","0.0-1.0-143.0-0.0","0","0","91138","","null","","","null","15","","","","","","","","","","","","","","","",""
"","ITI","","html-keyboard-response","118","181899","0.0-1.0-144.0","0","0","91138","","null","","","null","15","","","","","","","","","","","","","","","NaN",""
"","S1","","html-keyboard-response","119","182154","0.0-1.0-146.0","0","0","91138","","null","","","null","16","","","","","","","","","","","","","","","",""
"","ISI","","html-keyboard-response","120","182658","0.0-1.0-147.0","0","0","91138","","null","","","null","16","NaN","","","","","","","","","","","","","","",""
"","S2","","html-keyboard-response","121","182912","0.0-1.0-148.0","0","0","91138","","null","","","null","16","","NaN","","","","","","","","","","","","","",""
"","response","","html-keyboard-response","122","183444","0.0-1.0-149.0-0.0","0","0","91138","","530","","","68","16","","","1","16","training","adjacent","BC","2","3","R.jpg","M.jpg","1","1","1","",""
"","feedback","","html-keyboard-response","123","184450","0.0-1.0-150.0-0.0","0","0","91138","","null","","","null","16","","","","","","","","","","","","","","","",""
"","ITI","","html-keyboard-response","124","185453","0.0-1.0-153.0","0","0","91138","","null","","","null","16","","","","","","","","","","","","","","","NaN",""
"","S1","","html-keyboard-response","125","185707","0.0-1.0-155.0","0","0","91138","","null","","","null","17","","","","","","","","","","","","","","","",""
"","ISI","","html-keyboard-response","126","186210","0.0-1.0-156.0","0","0","91138","","null","","","null","17","NaN","","","","","","","","","","","","","","",""
"","S2","","html-keyboard-response","127","186464","0.0-1.0-157.0","0","0","91138","","null","","","null","17","","NaN","","","","","","","","","","","","","",""
"","response","","html-keyboard-response","128","187161","0.0-1.0-158.0-0.0","0","0","91138","","696","","","75","17","","","1","17","training","adjacent","DC","4","3","P.jpg","M.jpg","0","0","1","",""
"","feedback","","html-keyboard-response","129","188165","0.0-1.0-159.0-0.0","0","0","91138","","null","","","null","17","","","","","","","","","","","","","","","",""
"","ITI","","html-keyboard-response","130","189167","0.0-1.0-162.0","0","0","91138","","null","","","null","17","","","","","","","","","","","","","","","NaN",""
"","S1","","html-keyboard-response","131","189421","0.0-1.0-164.0","0","0","91138","","null","","","null","18","","","","","","","","","","","","","","","",""
"","ISI","","html-keyboard-response","132","189922","0.0-1.0-165.0","0","0","91138","","null","","","null","18","NaN","","","","","","","","","","","","","","",""
"","S2","","html-keyboard-response","133","190175","0.0-1.0-166.0","0","0","91138","","null","","","null","18","","NaN","","","","","","","","","","","","","",""
"","response","","html-keyboard-response","134","190860","0.0-1.0-167.0-0.0","0","0","91138","","683","","","68","18","","","1","18","training","adjacent","CD","3","4","M.jpg","P.jpg","1","1","1","",""
"","feedback","","html-keyboard-response","135","191863","0.0-1.0-168.0-0.0","0","0","91138","","null","","","null","18","","","","","","","","","","","","","","","",""
"","ITI","","html-keyboard-response","136","192866","0.0-1.0-171.0","0","0","91138","","null","","","null","18","","","","","","","","","","","","","","","NaN",""
"","S1","","html-keyboard-response","137","193121","0.0-1.0-173.0","0","0","91138","","null","","","null","19","","","","","","","","","","","","","","","",""
"","ISI","","html-keyboard-response","138","193624","0.0-1.0-174.0","0","0","91138","","null","","","null","19","NaN","","","","","","","","","","","","","","",""
"","S2","","html-keyboard-response","139","193878","0.0-1.0-175.0","0","0","91138","","null","","","null","19","","NaN","","","","","","","","","","","","","",""
"","response","","html-keyboard-response","140","194300","0.0-1.0-176.0-0.0","0","0","91138","","419","","","68","19","","","1","19","training","adjacent","BC","2","3","R.jpg","M.jpg","1","1","1","",""
"","feedback","","html-keyboard-response","141","195305","0.0-1.0-177.0-0.0","0","0","91138","","null","","","null","19","","","","","","","","","","","","","","","",""
"","ITI","","html-keyboard-response","142","196307","0.0-1.0-180.0","0","0","91138","","null","","","null","19","","","","","","","","","","","","","","","NaN",""
"","S1","","html-keyboard-response","143","196560","0.0-1.0-182.0","0","0","91138","","null","","","null","20","","","","","","","","","","","","","","","",""
"","ISI","","html-keyboard-response","144","197064","0.0-1.0-183.0","0","0","91138","","null","","","null","20","NaN","","","","","","","","","","","","","","",""
"","S2","","html-keyboard-response","145","197318","0.0-1.0-184.0","0","0","91138","","null","","","null","20","","NaN","","","","","","","","","","","","","",""
"","response","","html-keyboard-response","146","197698","0.0-1.0-185.0-0.0","0","0","91138","","379","","","75","20","","","1","20","training","adjacent","FE","6","5","O.jpg","L.jpg","0","0","1","",""
"","feedback","","html-keyboard-response","147","198701","0.0-1.0-186.0-0.0","0","0","91138","","null","","","null","20","","","","","","","","","","","","","","","",""
"","ITI","","html-keyboard-response","148","199706","0.0-1.0-189.0","0","0","91138","","null","","","null","20","","","","","","","","","","","","","","","NaN",""
"","S1","","html-keyboard-response","149","199958","0.0-1.0-191.0","0","0","91138","","null","","","null","21","","","","","","","","","","","","","","","",""
"","ISI","","html-keyboard-response","150","200460","0.0-1.0-192.0","0","0","91138","","null","","","null","21","NaN","","","","","","","","","","","","","","",""
"","S2","","html-keyboard-response","151","200713","0.0-1.0-193.0","0","0","91138","","null","","","null","21","","NaN","","","","","","","","","","","","","",""
"","response","","html-keyboard-response","152","201054","0.0-1.0-194.0-0.0","0","0","91138","","340","","","68","21","","","1","21","training","adjacent","GF","7","6","Q.jpg","O.jpg","1","0","0","",""
"","feedback","","html-keyboard-response","153","202056","0.0-1.0-195.0-0.0","0","0","91138","","null","","","null","21","","","","","","","","","","","","","","","",""
"","time_out","","html-keyboard-response","154","204060","0.0-1.0-197.0-0.0","0","0","91138","","null","","","null","21","","","","","","","","","","","","","","","",""
"","ITI","","html-keyboard-response","155","205064","0.0-1.0-198.0","0","0","91138","","null","","","null","21","","","","","","","","","","","","","","","NaN",""
"","S1","","html-keyboard-response","156","205317","0.0-1.0-200.0","0","0","91138","","null","","","null","22","","","","","","","","","","","","","","","",""
"","ISI","","html-keyboard-response","157","205820","0.0-1.0-201.0","0","0","91138","","null","","","null","22","NaN","","","","","","","","","","","","","","",""
"","S2","","html-keyboard-response","158","206074","0.0-1.0-202.0","0","0","91138","","null","","","null","22","","NaN","","","","","","","","","","","","","",""
"","response","","html-keyboard-response","159","206446","0.0-1.0-203.0-0.0","0","0","91138","","368","","","75","22","","","1","22","training","adjacent","DC","4","3","P.jpg","M.jpg","0","0","1","",""
"","feedback","","html-keyboard-response","160","207450","0.0-1.0-204.0-0.0","0","0","91138","","null","","","null","22","","","","","","","","","","","","","","","",""
"","ITI","","html-keyboard-response","161","208452","0.0-1.0-207.0","0","0","91138","","null","","","null","22","","","","","","","","","","","","","","","NaN",""
"","S1","","html-keyboard-response","162","208711","0.0-1.0-209.0","0","0","91138","","null","","","null","23","","","","","","","","","","","","","","","",""
"","ISI","","html-keyboard-response","163","209214","0.0-1.0-210.0","0","0","91138","","null","","","null","23","NaN","","","","","","","","","","","","","","",""
"","S2","","html-keyboard-response","164","209469","0.0-1.0-211.0","0","0","91138","","null","","","null","23","","NaN","","","","","","","","","","","","","",""
"","response","","html-keyboard-response","165","209822","0.0-1.0-212.0-0.0","0","0","91138","","353","","","68","23","","","1","23","training","adjacent","FG","6","7","O.jpg","Q.jpg","1","1","1","",""
"","feedback","","html-keyboard-response","166","210827","0.0-1.0-213.0-0.0","0","0","91138","","null","","","null","23","","","","","","","","","","","","","","","",""
"","ITI","","html-keyboard-response","167","211829","0.0-1.0-216.0","0","0","91138","","null","","","null","23","","","","","","","","","","","","","","","NaN",""
"","S1","","html-keyboard-response","168","212082","0.0-1.0-218.0","0","0","91138","","null","","","null","24","","","","","","","","","","","","","","","",""
"","ISI","","html-keyboard-response","169","212587","0.0-1.0-219.0","0","0","91138","","null","","","null","24","NaN","","","","","","","","","","","","","","",""
"","S2","","html-keyboard-response","170","212840","0.0-1.0-220.0","0","0","91138","","null","","","null","24","","NaN","","","","","","","","","","","","","",""
"","response","","html-keyboard-response","171","213176","0.0-1.0-221.0-0.0","0","0","91138","","334","","","75","24","","","1","24","training","adjacent","DC","4","3","P.jpg","M.jpg","0","0","1","",""
"","feedback","","html-keyboard-response","172","214178","0.0-1.0-222.0-0.0","0","0","91138","","null","","","null","24","","","","","","","","","","","","","","","",""
"","ITI","","html-keyboard-response","173","215186","0.0-1.0-225.0","0","0","91138","","null","","","null","24","","","","","","","","","","","","","","","NaN",""
"","S1","","html-keyboard-response","174","215439","0.0-1.0-227.0","0","0","91138","","null","","","null","25","","","","","","","","","","","","","","","",""
"","ISI","","html-keyboard-response","175","215942","0.0-1.0-228.0","0","0","91138","","null","","","null","25","NaN","","","","","","","","","","","","","","",""
"","S2","","html-keyboard-response","176","216194","0.0-1.0-229.0","0","0","91138","","null","","","null","25","","NaN","","","","","","","","","","","","","",""
"","response","","html-keyboard-response","177","216775","0.0-1.0-230.0-0.0","0","0","91138","","579","","","75","25","","","1","25","training","adjacent","DC","4","3","P.jpg","M.jpg","0","0","1","",""
"","feedback","","html-keyboard-response","178","217778","0.0-1.0-231.0-0.0","0","0","91138","","null","","","null","25","","","","","","","","","","","","","","","",""
"","ITI","","html-keyboard-response","179","218781","0.0-1.0-234.0","0","0","91138","","null","","","null","25","","","","","","","","","","","","","","","NaN",""
"","S1","","html-keyboard-response","180","219035","0.0-1.0-236.0","0","0","91138","","null","","","null","26","","","","","","","","","","","","","","","",""
"","ISI","","html-keyboard-response","181","219539","0.0-1.0-237.0","0","0","91138","","null","","","null","26","NaN","","","","","","","","","","","","","","",""
"","S2","","html-keyboard-response","182","219793","0.0-1.0-238.0","0","0","91138","","null","","","null","26","","NaN","","","","","","","","","","","","","",""
"","response","","html-keyboard-response","183","220067","0.0-1.0-239.0-0.0","0","0","91138","","271","","","68","26","","","1","26","training","adjacent","BA","2","1","R.jpg","N.jpg","1","0","0","",""
"","feedback","","html-keyboard-response","184","221070","0.0-1.0-240.0-0.0","0","0","91138","","null","","","null","26","","","","","","","","","","","","","","","",""
"","time_out","","html-keyboard-response","185","223073","0.0-1.0-242.0-0.0","0","0","91138","","null","","","null","26","","","","","","","","","","","","","","","",""
"","ITI","","html-keyboard-response","186","224077","0.0-1.0-243.0","0","0","91138","","null","","","null","26","","","","","","","","","","","","","","","NaN",""
"","S1","","html-keyboard-response","187","224332","0.0-1.0-245.0","0","0","91138","","null","","","null","27","","","","","","","","","","","","","","","",""
"","ISI","","html-keyboard-response","188","224837","0.0-1.0-246.0","0","0","91138","","null","","","null","27","NaN","","","","","","","","","","","","","","",""
"","S2","","html-keyboard-response","189","225092","0.0-1.0-247.0","0","0","91138","","null","","","null","27","","NaN","","","","","","","","","","","","","",""
"","response","","html-keyboard-response","190","225526","0.0-1.0-248.0-0.0","0","0","91138","","433","","","75","27","","","1","27","training","adjacent","AB","1","2","N.jpg","R.jpg","0","1","0","",""
"","feedback","","html-keyboard-response","191","226530","0.0-1.0-249.0-0.0","0","0","91138","","null","","","null","27","","","","","","","","","","","","","","","",""
"","time_out","","html-keyboard-response","192","228534","0.0-1.0-251.0-0.0","0","0","91138","","null","","","null","27","","","","","","","","","","","","","","","",""
"","ITI","","html-keyboard-response","193","229539","0.0-1.0-252.0","0","0","91138","","null","","","null","27","","","","","","","","","","","","","","","NaN",""
"","S1","","html-keyboard-response","194","229792","0.0-1.0-254.0","0","0","91138","","null","","","null","28","","","","","","","","","","","","","","","",""
"","ISI","","html-keyboard-response","195","230295","0.0-1.0-255.0","0","0","91138","","null","","","null","28","NaN","","","","","","","","","","","","","","",""
"","S2","","html-keyboard-response","196","230550","0.0-1.0-256.0","0","0","91138","","null","","","null","28","","NaN","","","","","","","","","","","","","",""
"","response","","html-keyboard-response","197","231128","0.0-1.0-257.0-0.0","0","0","91138","","576","","","75","28","","","1","28","training","adjacent","BA","2","1","R.jpg","N.jpg","0","0","1","",""
"","feedback","","html-keyboard-response","198","232132","0.0-1.0-258.0-0.0","0","0","91138","","null","","","null","28","","","","","","","","","","","","","","","",""
"","ITI","","html-keyboard-response","199","233136","0.0-1.0-261.0","0","0","91138","","null","","","null","28","","","","","","","","","","","","","","","NaN",""
"","S1","","html-keyboard-response","200","233388","0.0-1.0-263.0","0","0","91138","","null","","","null","29","","","","","","","","","","","","","","","",""
"","ISI","","html-keyboard-response","201","233891","0.0-1.0-264.0","0","0","91138","","null","","","null","29","NaN","","","","","","","","","","","","","","",""
"","S2","","html-keyboard-response","202","234145","0.0-1.0-265.0","0","0","91138","","null","","","null","29","","NaN","","","","","","","","","","","","","",""
"","response","","html-keyboard-response","203","234436","0.0-1.0-266.0-0.0","0","0","91138","","288","","","68","29","","","1","29","training","adjacent","GF","7","6","Q.jpg","O.jpg","1","0","0","",""
"","feedback","","html-keyboard-response","204","235439","0.0-1.0-267.0-0.0","0","0","91138","","null","","","null","29","","","","","","","","","","","","","","","",""
"","time_out","","html-keyboard-response","205","237442","0.0-1.0-269.0-0.0","0","0","91138","","null","","","null","29","","","","","","","","","","","","","","","",""
"","ITI","","html-keyboard-response","206","238446","0.0-1.0-270.0","0","0","91138","","null","","","null","29","","","","","","","","","","","","","","","NaN",""
"","S1","","html-keyboard-response","207","238701","0.0-1.0-272.0","0","0","91138","","null","","","null","30","","","","","","","","","","","","","","","",""
"","ISI","","html-keyboard-response","208","239204","0.0-1.0-273.0","0","0","91138","","null","","","null","30","NaN","","","","","","","","","","","","","","",""
"","S2","","html-keyboard-response","209","239458","0.0-1.0-274.0","0","0","91138","","null","","","null","30","","NaN","","","","","","","","","","","","","",""
"","response","","html-keyboard-response","210","240192","0.0-1.0-275.0-0.0","0","0","91138","","732","","","75","30","","","1","30","training","adjacent","CB","3","2","M.jpg","R.jpg","0","0","1","",""
"","feedback","","html-keyboard-response","211","241196","0.0-1.0-276.0-0.0","0","0","91138","","null","","","null","30","","","","","","","","","","","","","","","",""
"","ITI","","html-keyboard-response","212","242198","0.0-1.0-279.0","0","0","91138","","null","","","null","30","","","","","","","","","","","","","","","NaN",""
"","S1","","html-keyboard-response","213","242452","0.0-1.0-281.0","0","0","91138","","null","","","null","31","","","","","","","","","","","","","","","",""
"","ISI","","html-keyboard-response","214","242956","0.0-1.0-282.0","0","0","91138","","null","","","null","31","NaN","","","","","","","","","","","","","","",""
"","S2","","html-keyboard-response","215","243209","0.0-1.0-283.0","0","0","91138","","null","","","null","31","","NaN","","","","","","","","","","","","","",""
"","response","","html-keyboard-response","216","243503","0.0-1.0-284.0-0.0","0","0","91138","","291","","","68","31","","","1","31","training","adjacent","ED","5","4","L.jpg","P.jpg","1","0","0","",""
"","feedback","","html-keyboard-response","217","244506","0.0-1.0-285.0-0.0","0","0","91138","","null","","","null","31","","","","","","","","","","","","","","","",""
"","time_out","","html-keyboard-response","218","246509","0.0-1.0-287.0-0.0","0","0","91138","","null","","","null","31","","","","","","","","","","","","","","","",""
"","ITI","","html-keyboard-response","219","247513","0.0-1.0-288.0","0","0","91138","","null","","","null","31","","","","","","","","","","","","","","","NaN",""
"","S1","","html-keyboard-response","220","247766","0.0-1.0-290.0","0","0","91138","","null","","","null","32","","","","","","","","","","","","","","","",""
"","ISI","","html-keyboard-response","221","248269","0.0-1.0-291.0","0","0","91138","","null","","","null","32","NaN","","","","","","","","","","","","","","",""
"","S2","","html-keyboard-response","222","248523","0.0-1.0-292.0","0","0","91138","","null","","","null","32","","NaN","","","","","","","","","","","","","",""
"","response","","html-keyboard-response","223","248741","0.0-1.0-293.0-0.0","0","0","91138","","215","","","75","32","","","1","32","training","adjacent","DE","4","5","P.jpg","L.jpg","0","1","0","",""
"","feedback","","html-keyboard-response","224","249744","0.0-1.0-294.0-0.0","0","0","91138","","null","","","null","32","","","","","","","","","","","","","","","",""
"","time_out","","html-keyboard-response","225","251749","0.0-1.0-296.0-0.0","0","0","91138","","null","","","null","32","","","","","","","","","","","","","","","",""
"","ITI","","html-keyboard-response","226","252752","0.0-1.0-297.0","0","0","91138","","null","","","null","32","","","","","","","","","","","","","","","NaN",""
"","S1","","html-keyboard-response","227","253016","0.0-1.0-299.0","0","0","91138","","null","","","null","33","","","","","","","","","","","","","","","",""
"","ISI","","html-keyboard-response","228","253519","0.0-1.0-300.0","0","0","91138","","null","","","null","33","NaN","","","","","","","","","","","","","","",""
"","S2","","html-keyboard-response","229","253781","0.0-1.0-301.0","0","0","91138","","null","","","null","33","","NaN","","","","","","","","","","","","","",""
"","response","","html-keyboard-response","230","254400","0.0-1.0-302.0-0.0","0","0","91138","","617","","","68","33","","","1","33","training","adjacent","EF","5","6","L.jpg","O.jpg","1","1","1","",""
"","feedback","","html-keyboard-response","231","255404","0.0-1.0-303.0-0.0","0","0","91138","","null","","","null","33","","","","","","","","","","","","","","","",""
"","ITI","","html-keyboard-response","232","256409","0.0-1.0-306.0","0","0","91138","","null","","","null","33","","","","","","","","","","","","","","","NaN",""
"","S1","","html-keyboard-response","233","256663","0.0-1.0-308.0","0","0","91138","","null","","","null","34","","","","","","","","","","","","","","","",""
"","ISI","","html-keyboard-response","234","257166","0.0-1.0-309.0","0","0","91138","","null","","","null","34","NaN","","","","","","","","","","","","","","",""
"","S2","","html-keyboard-response","235","257419","0.0-1.0-310.0","0","0","91138","","null","","","null","34","","NaN","","","","","","","","","","","","","",""
"","response","","html-keyboard-response","236","257989","0.0-1.0-311.0-0.0","0","0","91138","","566","","","68","34","","","1","34","training","adjacent","AB","1","2","N.jpg","R.jpg","1","1","1","",""
"","feedback","","html-keyboard-response","237","258993","0.0-1.0-312.0-0.0","0","0","91138","","null","","","null","34","","","","","","","","","","","","","","","",""
"","ITI","","html-keyboard-response","238","259996","0.0-1.0-315.0","0","0","91138","","null","","","null","34","","","","","","","","","","","","","","","NaN",""
"","S1","","html-keyboard-response","239","260249","0.0-1.0-317.0","0","0","91138","","null","","","null","35","","","","","","","","","","","","","","","",""
"","ISI","","html-keyboard-response","240","260751","0.0-1.0-318.0","0","0","91138","","null","","","null","35","NaN","","","","","","","","","","","","","","",""
"","S2","","html-keyboard-response","241","261004","0.0-1.0-319.0","0","0","91138","","null","","","null","35","","NaN","","","","","","","","","","","","","",""
"","response","","html-keyboard-response","242","261153","0.0-1.0-320.0-0.0","0","0","91138","","146","","","68","35","","","1","35","training","adjacent","AB","1","2","N.jpg","R.jpg","1","1","1","",""
"","feedback","","html-keyboard-response","243","262155","0.0-1.0-321.0-0.0","0","0","91138","","null","","","null","35","","","","","","","","","","","","","","","",""
"","ITI","","html-keyboard-response","244","263157","0.0-1.0-324.0","0","0","91138","","null","","","null","35","","","","","","","","","","","","","","","NaN",""
"","S1","","html-keyboard-response","245","263410","0.0-1.0-326.0","0","0","91138","","null","","","null","36","","","","","","","","","","","","","","","",""
"","ISI","","html-keyboard-response","246","263914","0.0-1.0-327.0","0","0","91138","","null","","","null","36","NaN","","","","","","","","","","","","","","",""
"","S2","","html-keyboard-response","247","264166","0.0-1.0-328.0","0","0","91138","","null","","","null","36","","NaN","","","","","","","","","","","","","",""
"","response","","html-keyboard-response","248","264569","0.0-1.0-329.0-0.0","0","0","91138","","401","","","75","36","","","1","36","training","adjacent","ED","5","4","L.jpg","P.jpg","0","0","1","",""
"","feedback","","html-keyboard-response","249","265572","0.0-1.0-330.0-0.0","0","0","91138","","null","","","null","36","","","","","","","","","","","","","","","",""
"","ITI","","html-keyboard-response","250","266574","0.0-1.0-333.0","0","0","91138","","null","","","null","36","","","","","","","","","","","","","","","NaN",""
"","S1","","html-keyboard-response","251","266827","0.0-1.0-335.0","0","0","91138","","null","","","null","37","","","","","","","","","","","","","","","",""
"","ISI","","html-keyboard-response","252","267330","0.0-1.0-336.0","0","0","91138","","null","","","null","37","NaN","","","","","","","","","","","","","","",""
"","S2","","html-keyboard-response","253","267583","0.0-1.0-337.0","0","0","91138","","null","","","null","37","","NaN","","","","","","","","","","","","","",""
"","response","","html-keyboard-response","254","268313","0.0-1.0-338.0-0.0","0","0","91138","","727","","","68","37","","","1","37","training","adjacent","BC","2","3","R.jpg","M.jpg","1","1","1","",""
"","feedback","","html-keyboard-response","255","269316","0.0-1.0-339.0-0.0","0","0","91138","","null","","","null","37","","","","","","","","","","","","","","","",""
"","ITI","","html-keyboard-response","256","270319","0.0-1.0-342.0","0","0","91138","","null","","","null","37","","","","","","","","","","","","","","","NaN",""
"","S1","","html-keyboard-response","257","270573","0.0-1.0-344.0","0","0","91138","","null","","","null","38","","","","","","","","","","","","","","","",""
"","ISI","","html-keyboard-response","258","271075","0.0-1.0-345.0","0","0","91138","","null","","","null","38","NaN","","","","","","","","","","","","","","",""
"","S2","","html-keyboard-response","259","271328","0.0-1.0-346.0","0","0","91138","","null","","","null","38","","NaN","","","","","","","","","","","","","",""
"","response","","html-keyboard-response","260","271705","0.0-1.0-347.0-0.0","0","0","91138","","374","","","68","38","","","1","38","training","adjacent","CD","3","4","M.jpg","P.jpg","1","1","1","",""
"","feedback","","html-keyboard-response","261","272707","0.0-1.0-348.0-0.0","0","0","91138","","null","","","null","38","","","","","","","","","","","","","","","",""
"","ITI","","html-keyboard-response","262","273711","0.0-1.0-351.0","0","0","91138","","null","","","null","38","","","","","","","","","","","","","","","NaN",""
"","S1","","html-keyboard-response","263","273965","0.0-1.0-353.0","0","0","91138","","null","","","null","39","","","","","","","","","","","","","","","",""
"","ISI","","html-keyboard-response","264","274467","0.0-1.0-354.0","0","0","91138","","null","","","null","39","NaN","","","","","","","","","","","","","","",""
"","S2","","html-keyboard-response","265","274720","0.0-1.0-355.0","0","0","91138","","null","","","null","39","","NaN","","","","","","","","","","","","","",""
"","response","","html-keyboard-response","266","275396","0.0-1.0-356.0-0.0","0","0","91138","","675","","","68","39","","","1","39","training","adjacent","EF","5","6","L.jpg","O.jpg","1","1","1","",""
"","feedback","","html-keyboard-response","267","276399","0.0-1.0-357.0-0.0","0","0","91138","","null","","","null","39","","","","","","","","","","","","","","","",""
"","ITI","","html-keyboard-response","268","277402","0.0-1.0-360.0","0","0","91138","","null","","","null","39","","","","","","","","","","","","","","","NaN",""
"","S1","","html-keyboard-response","269","277655","0.0-1.0-362.0","0","0","91138","","null","","","null","40","","","","","","","","","","","","","","","",""
"","ISI","","html-keyboard-response","270","278158","0.0-1.0-363.0","0","0","91138","","null","","","null","40","NaN","","","","","","","","","","","","","","",""
"","S2","","html-keyboard-response","271","278411","0.0-1.0-364.0","0","0","91138","","null","","","null","40","","NaN","","","","","","","","","","","","","",""
"","response","","html-keyboard-response","272","278753","0.0-1.0-365.0-0.0","0","0","91138","","340","","","68","40","","","1","40","training","adjacent","FG","6","7","O.jpg","Q.jpg","1","1","1","",""
"","feedback","","html-keyboard-response","273","279758","0.0-1.0-366.0-0.0","0","0","91138","","null","","","null","40","","","","","","","","","","","","","","","",""
"","ITI","","html-keyboard-response","274","280761","0.0-1.0-369.0","0","0","91138","","null","","","null","40","","","","","","","","","","","","","","","NaN",""
"","S1","","html-keyboard-response","275","281013","0.0-1.0-371.0","0","0","91138","","null","","","null","41","","","","","","","","","","","","","","","",""
"","ISI","","html-keyboard-response","276","281517","0.0-1.0-372.0","0","0","91138","","null","","","null","41","NaN","","","","","","","","","","","","","","",""
"","S2","","html-keyboard-response","277","281769","0.0-1.0-373.0","0","0","91138","","null","","","null","41","","NaN","","","","","","","","","","","","","",""
"","response","","html-keyboard-response","278","282384","0.0-1.0-374.0-0.0","0","0","91138","","613","","","75","41","","","1","41","training","adjacent","CB","3","2","M.jpg","R.jpg","0","0","1","",""
"","feedback","","html-keyboard-response","279","283387","0.0-1.0-375.0-0.0","0","0","91138","","null","","","null","41","","","","","","","","","","","","","","","",""
"","ITI","","html-keyboard-response","280","284389","0.0-1.0-378.0","0","0","91138","","null","","","null","41","","","","","","","","","","","","","","","NaN",""
"","S1","","html-keyboard-response","281","284643","0.0-1.0-380.0","0","0","91138","","null","","","null","42","","","","","","","","","","","","","","","",""
"","ISI","","html-keyboard-response","282","285146","0.0-1.0-381.0","0","0","91138","","null","","","null","42","NaN","","","","","","","","","","","","","","",""
"","S2","","html-keyboard-response","283","285399","0.0-1.0-382.0","0","0","91138","","null","","","null","42","","NaN","","","","","","","","","","","","","",""
"","response","","html-keyboard-response","284","286078","0.0-1.0-383.0-0.0","0","0","91138","","678","","","75","42","","","1","42","training","adjacent","CB","3","2","M.jpg","R.jpg","0","0","1","",""
"","feedback","","html-keyboard-response","285","287081","0.0-1.0-384.0-0.0","0","0","91138","","null","","","null","42","","","","","","","","","","","","","","","",""
"","ITI","","html-keyboard-response","286","288082","0.0-1.0-387.0","0","0","91138","","null","","","null","42","","","","","","","","","","","","","","","NaN",""
"","S1","","html-keyboard-response","287","288336","0.0-1.0-389.0","0","0","91138","","null","","","null","43","","","","","","","","","","","","","","","",""
"","ISI","","html-keyboard-response","288","288838","0.0-1.0-390.0","0","0","91138","","null","","","null","43","NaN","","","","","","","","","","","","","","",""
"","S2","","html-keyboard-response","289","289090","0.0-1.0-391.0","0","0","91138","","null","","","null","43","","NaN","","","","","","","","","","","","","",""
"","response","","html-keyboard-response","290","289591","0.0-1.0-392.0-0.0","0","0","91138","","498","","","68","43","","","1","43","training","adjacent","FG","6","7","O.jpg","Q.jpg","1","1","1","",""
"","feedback","","html-keyboard-response","291","290595","0.0-1.0-393.0-0.0","0","0","91138","","null","","","null","43","","","","","","","","","","","","","","","",""
"","ITI","","html-keyboard-response","292","291597","0.0-1.0-396.0","0","0","91138","","null","","","null","43","","","","","","","","","","","","","","","NaN",""
"","S1","","html-keyboard-response","293","291851","0.0-1.0-398.0","0","0","91138","","null","","","null","44","","","","","","","","","","","","","","","",""
"","ISI","","html-keyboard-response","294","292353","0.0-1.0-399.0","0","0","91138","","null","","","null","44","NaN","","","","","","","","","","","","","","",""
"","S2","","html-keyboard-response","295","292606","0.0-1.0-400.0","0","0","91138","","null","","","null","44","","NaN","","","","","","","","","","","","","",""
"","response","","html-keyboard-response","296","292865","0.0-1.0-401.0-0.0","0","0","91138","","258","","","68","44","","","1","44","training","adjacent","DE","4","5","P.jpg","L.jpg","1","1","1","",""
"","feedback","","html-keyboard-response","297","293869","0.0-1.0-402.0-0.0","0","0","91138","","null","","","null","44","","","","","","","","","","","","","","","",""
"","ITI","","html-keyboard-response","298","294872","0.0-1.0-405.0","0","0","91138","","null","","","null","44","","","","","","","","","","","","","","","NaN",""
"","S1","","html-keyboard-response","299","295125","0.0-1.0-407.0","0","0","91138","","null","","","null","45","","","","","","","","","","","","","","","",""
"","ISI","","html-keyboard-response","300","295628","0.0-1.0-408.0","0","0","91138","","null","","","null","45","NaN","","","","","","","","","","","","","","",""
"","S2","","html-keyboard-response","301","295880","0.0-1.0-409.0","0","0","91138","","null","","","null","45","","NaN","","","","","","","","","","","","","",""
"","response","","html-keyboard-response","302","296320","0.0-1.0-410.0-0.0","0","0","91138","","438","","","68","45","","","1","45","training","adjacent","GF","7","6","Q.jpg","O.jpg","1","0","0","",""
"","feedback","","html-keyboard-response","303","297327","0.0-1.0-411.0-0.0","0","0","91138","","null","","","null","45","","","","","","","","","","","","","","","",""
"","time_out","","html-keyboard-response","304","299330","0.0-1.0-413.0-0.0","0","0","91138","","null","","","null","45","","","","","","","","","","","","","","","",""
"","ITI","","html-keyboard-response","305","300333","0.0-1.0-414.0","0","0","91138","","null","","","null","45","","","","","","","","","","","","","","","NaN",""
"","S1","","html-keyboard-response","306","300586","0.0-1.0-416.0","0","0","91138","","null","","","null","46","","","","","","","","","","","","","","","",""
"","ISI","","html-keyboard-response","307","301090","0.0-1.0-417.0","0","0","91138","","null","","","null","46","NaN","","","","","","","","","","","","","","",""
"","S2","","html-keyboard-response","308","301344","0.0-1.0-418.0","0","0","91138","","null","","","null","46","","NaN","","","","","","","","","","","","","",""
"","response","","html-keyboard-response","309","301859","0.0-1.0-419.0-0.0","0","0","91138","","512","","","68","46","","","1","46","training","adjacent","BC","2","3","R.jpg","M.jpg","1","1","1","",""
"","feedback","","html-keyboard-response","310","302864","0.0-1.0-420.0-0.0","0","0","91138","","null","","","null","46","","","","","","","","","","","","","","","",""
"","ITI","","html-keyboard-response","311","303867","0.0-1.0-423.0","0","0","91138","","null","","","null","46","","","","","","","","","","","","","","","NaN",""
"","S1","","html-keyboard-response","312","304123","0.0-1.0-425.0","0","0","91138","","null","","","null","47","","","","","","","","","","","","","","","",""
"","ISI","","html-keyboard-response","313","304628","0.0-1.0-426.0","0","0","91138","","null","","","null","47","NaN","","","","","","","","","","","","","","",""
"","S2","","html-keyboard-response","314","304881","0.0-1.0-427.0","0","0","91138","","null","","","null","47","","NaN","","","","","","","","","","","","","",""
"","response","","html-keyboard-response","315","305709","0.0-1.0-428.0-0.0","0","0","91138","","826","","","68","47","","","1","47","training","adjacent","GF","7","6","Q.jpg","O.jpg","1","0","0","",""
"","feedback","","html-keyboard-response","316","306714","0.0-1.0-429.0-0.0","0","0","91138","","null","","","null","47","","","","","","","","","","","","","","","",""
"","time_out","","html-keyboard-response","317","308719","0.0-1.0-431.0-0.0","0","0","91138","","null","","","null","47","","","","","","","","","","","","","","","",""
"","ITI","","html-keyboard-response","318","309723","0.0-1.0-432.0","0","0","91138","","null","","","null","47","","","","","","","","","","","","","","","NaN",""
"","block_over","","html-keyboard-response","319","312267","0.0-1.0-433.0-0.0","0","0","91138","","2541","","","32","47","","","","","","","","","","","","","","","",""
"","S1","","html-keyboard-response","320","312522","0.0-1.0-434.0","0","0","91138","","null","","","null","48","","","","","","","","","","","","","","","",""
"","ISI","","html-keyboard-response","321","313026","0.0-1.0-435.0","0","0","91138","","null","","","null","48","NaN","","","","","","","","","","","","","","",""
"","S2","","html-keyboard-response","322","313279","0.0-1.0-436.0","0","0","91138","","null","","","null","48","","NaN","","","","","","","","","","","","","",""
"","response","","html-keyboard-response","323","313846","0.0-1.0-437.0-0.0","0","0","91138","","563","","","75","48","","","2","48","training","adjacent","FE","6","5","O.jpg","L.jpg","0","0","1","",""
"","feedback","","html-keyboard-response","324","314850","0.0-1.0-438.0-0.0","0","0","91138","","null","","","null","48","","","","","","","","","","","","","","","",""
"","ITI","","html-keyboard-response","325","315853","0.0-1.0-441.0","0","0","91138","","null","","","null","48","","","","","","","","","","","","","","","NaN",""
"","S1","","html-keyboard-response","326","316106","0.0-1.0-443.0","0","0","91138","","null","","","null","49","","","","","","","","","","","","","","","",""
"","ISI","","html-keyboard-response","327","316611","0.0-1.0-444.0","0","0","91138","","null","","","null","49","NaN","","","","","","","","","","","","","","",""
"","S2","","html-keyboard-response","328","316864","0.0-1.0-445.0","0","0","91138","","null","","","null","49","","NaN","","","","","","","","","","","","","",""
"","response","","html-keyboard-response","329","317752","0.0-1.0-446.0-0.0","0","0","91138","","887","","","75","49","","","2","49","training","adjacent","ED","5","4","L.jpg","P.jpg","0","0","1","",""
"","feedback","","html-keyboard-response","330","318761","0.0-1.0-447.0-0.0","0","0","91138","","null","","","null","49","","","","","","","","","","","","","","","",""
"","ITI","","html-keyboard-response","331","319764","0.0-1.0-450.0","0","0","91138","","null","","","null","49","","","","","","","","","","","","","","","NaN",""
"","S1","","html-keyboard-response","332","320017","0.0-1.0-452.0","0","0","91138","","null","","","null","50","","","","","","","","","","","","","","","",""
"","ISI","","html-keyboard-response","333","320519","0.0-1.0-453.0","0","0","91138","","null","","","null","50","NaN","","","","","","","","","","","","","","",""
"","S2","","html-keyboard-response","334","320772","0.0-1.0-454.0","0","0","91138","","null","","","null","50","","NaN","","","","","","","","","","","","","",""
"","response","","html-keyboard-response","335","321286","0.0-1.0-455.0-0.0","0","0","91138","","513","","","68","50","","","2","50","training","adjacent","BC","2","3","R.jpg","M.jpg","1","1","1","",""
"","feedback","","html-keyboard-response","336","322288","0.0-1.0-456.0-0.0","0","0","91138","","null","","","null","50","","","","","","","","","","","","","","","",""
"","ITI","","html-keyboard-response","337","323291","0.0-1.0-459.0","0","0","91138","","null","","","null","50","","","","","","","","","","","","","","","NaN",""
"","S1","","html-keyboard-response","338","323545","0.0-1.0-461.0","0","0","91138","","null","","","null","51","","","","","","","","","","","","","","","",""
"","ISI","","html-keyboard-response","339","324049","0.0-1.0-462.0","0","0","91138","","null","","","null","51","NaN","","","","","","","","","","","","","","",""
"","S2","","html-keyboard-response","340","324303","0.0-1.0-463.0","0","0","91138","","null","","","null","51","","NaN","","","","","","","","","","","","","",""
"","response","","html-keyboard-response","341","324899","0.0-1.0-464.0-0.0","0","0","91138","","594","","","68","51","","","2","51","training","adjacent","AB","1","2","N.jpg","R.jpg","1","1","1","",""
"","feedback","","html-keyboard-response","342","325901","0.0-1.0-465.0-0.0","0","0","91138","","null","","","null","51","","","","","","","","","","","","","","","",""
"","ITI","","html-keyboard-response","343","326904","0.0-1.0-468.0","0","0","91138","","null","","","null","51","","","","","","","","","","","","","","","NaN",""
"","S1","","html-keyboard-response","344","327158","0.0-1.0-470.0","0","0","91138","","null","","","null","52","","","","","","","","","","","","","","","",""
"","ISI","","html-keyboard-response","345","327661","0.0-1.0-471.0","0","0","91138","","null","","","null","52","NaN","","","","","","","","","","","","","","",""
"","S2","","html-keyboard-response","346","327918","0.0-1.0-472.0","0","0","91138","","null","","","null","52","","NaN","","","","","","","","","","","","","",""
"","response","","html-keyboard-response","347","328515","0.0-1.0-473.0-0.0","0","0","91138","","594","","","75","52","","","2","52","training","adjacent","CB","3","2","M.jpg","R.jpg","0","0","1","",""
"","feedback","","html-keyboard-response","348","329518","0.0-1.0-474.0-0.0","0","0","91138","","null","","","null","52","","","","","","","","","","","","","","","",""
"","ITI","","html-keyboard-response","349","330520","0.0-1.0-477.0","0","0","91138","","null","","","null","52","","","","","","","","","","","","","","","NaN",""
"","S1","","html-keyboard-response","350","330773","0.0-1.0-479.0","0","0","91138","","null","","","null","53","","","","","","","","","","","","","","","",""
"","ISI","","html-keyboard-response","351","331277","0.0-1.0-480.0","0","0","91138","","null","","","null","53","NaN","","","","","","","","","","","","","","",""
"","S2","","html-keyboard-response","352","331529","0.0-1.0-481.0","0","0","91138","","null","","","null","53","","NaN","","","","","","","","","","","","","",""
"","response","","html-keyboard-response","353","332085","0.0-1.0-482.0-0.0","0","0","91138","","554","","","68","53","","","2","53","training","adjacent","DE","4","5","P.jpg","L.jpg","1","1","1","",""
"","feedback","","html-keyboard-response","354","333087","0.0-1.0-483.0-0.0","0","0","91138","","null","","","null","53","","","","","","","","","","","","","","","",""
"","ITI","","html-keyboard-response","355","334091","0.0-1.0-486.0","0","0","91138","","null","","","null","53","","","","","","","","","","","","","","","NaN",""
"","S1","","html-keyboard-response","356","334345","0.0-1.0-488.0","0","0","91138","","null","","","null","54","","","","","","","","","","","","","","","",""
"","ISI","","html-keyboard-response","357","334850","0.0-1.0-489.0","0","0","91138","","null","","","null","54","NaN","","","","","","","","","","","","","","",""
"","S2","","html-keyboard-response","358","335102","0.0-1.0-490.0","0","0","91138","","null","","","null","54","","NaN","","","","","","","","","","","","","",""
"","response","","html-keyboard-response","359","335608","0.0-1.0-491.0-0.0","0","0","91138","","505","","","68","54","","","2","54","training","adjacent","BC","2","3","R.jpg","M.jpg","1","1","1","",""
"","feedback","","html-keyboard-response","360","336612","0.0-1.0-492.0-0.0","0","0","91138","","null","","","null","54","","","","","","","","","","","","","","","",""
"","ITI","","html-keyboard-response","361","337615","0.0-1.0-495.0","0","0","91138","","null","","","null","54","","","","","","","","","","","","","","","NaN",""
"","S1","","html-keyboard-response","362","337867","0.0-1.0-497.0","0","0","91138","","null","","","null","55","","","","","","","","","","","","","","","",""
"","ISI","","html-keyboard-response","363","338371","0.0-1.0-498.0","0","0","91138","","null","","","null","55","NaN","","","","","","","","","","","","","","",""
"","S2","","html-keyboard-response","364","338625","0.0-1.0-499.0","0","0","91138","","null","","","null","55","","NaN","","","","","","","","","","","","","",""
"","response","","html-keyboard-response","365","338908","0.0-1.0-500.0-0.0","0","0","91138","","281","","","68","55","","","2","55","training","adjacent","AB","1","2","N.jpg","R.jpg","1","1","1","",""
"","feedback","","html-keyboard-response","366","339912","0.0-1.0-501.0-0.0","0","0","91138","","null","","","null","55","","","","","","","","","","","","","","","",""
"","ITI","","html-keyboard-response","367","340914","0.0-1.0-504.0","0","0","91138","","null","","","null","55","","","","","","","","","","","","","","","NaN",""
"","S1","","html-keyboard-response","368","341166","0.0-1.0-506.0","0","0","91138","","null","","","null","56","","","","","","","","","","","","","","","",""
"","ISI","","html-keyboard-response","369","341669","0.0-1.0-507.0","0","0","91138","","null","","","null","56","NaN","","","","","","","","","","","","","","",""
"","S2","","html-keyboard-response","370","341922","0.0-1.0-508.0","0","0","91138","","null","","","null","56","","NaN","","","","","","","","","","","","","",""
"","response","","html-keyboard-response","371","342268","0.0-1.0-509.0-0.0","0","0","91138","","343","","","68","56","","","2","56","training","adjacent","BA","2","1","R.jpg","N.jpg","1","0","0","",""
"","feedback","","html-keyboard-response","372","343272","0.0-1.0-510.0-0.0","0","0","91138","","null","","","null","56","","","","","","","","","","","","","","","",""
"","time_out","","html-keyboard-response","373","345274","0.0-1.0-512.0-0.0","0","0","91138","","null","","","null","56","","","","","","","","","","","","","","","",""
"","ITI","","html-keyboard-response","374","346278","0.0-1.0-513.0","0","0","91138","","null","","","null","56","","","","","","","","","","","","","","","NaN",""
"","S1","","html-keyboard-response","375","346533","0.0-1.0-515.0","0","0","91138","","null","","","null","57","","","","","","","","","","","","","","","",""
"","ISI","","html-keyboard-response","376","347037","0.0-1.0-516.0","0","0","91138","","null","","","null","57","NaN","","","","","","","","","","","","","","",""
"","S2","","html-keyboard-response","377","347290","0.0-1.0-517.0","0","0","91138","","null","","","null","57","","NaN","","","","","","","","","","","","","",""
"","response","","html-keyboard-response","378","347429","0.0-1.0-518.0-0.0","0","0","91138","","138","","","68","57","","","2","57","training","adjacent","DC","4","3","P.jpg","M.jpg","1","0","0","",""
"","feedback","","html-keyboard-response","379","348433","0.0-1.0-519.0-0.0","0","0","91138","","null","","","null","57","","","","","","","","","","","","","","","",""
"","time_out","","html-keyboard-response","380","350437","0.0-1.0-521.0-0.0","0","0","91138","","null","","","null","57","","","","","","","","","","","","","","","",""
"","ITI","","html-keyboard-response","381","351440","0.0-1.0-522.0","0","0","91138","","null","","","null","57","","","","","","","","","","","","","","","NaN",""
"","S1","","html-keyboard-response","382","351693","0.0-1.0-524.0","0","0","91138","","null","","","null","58","","","","","","","","","","","","","","","",""
"","ISI","","html-keyboard-response","383","352197","0.0-1.0-525.0","0","0","91138","","null","","","null","58","NaN","","","","","","","","","","","","","","",""
"","S2","","html-keyboard-response","384","352451","0.0-1.0-526.0","0","0","91138","","null","","","null","58","","NaN","","","","","","","","","","","","","",""
"","response","","html-keyboard-response","385","352851","0.0-1.0-527.0-0.0","0","0","91138","","398","","","75","58","","","2","58","training","adjacent","BA","2","1","R.jpg","N.jpg","0","0","1","",""
"","feedback","","html-keyboard-response","386","353854","0.0-1.0-528.0-0.0","0","0","91138","","null","","","null","58","","","","","","","","","","","","","","","",""
"","ITI","","html-keyboard-response","387","354857","0.0-1.0-531.0","0","0","91138","","null","","","null","58","","","","","","","","","","","","","","","NaN",""
"","S1","","html-keyboard-response","388","355109","0.0-1.0-533.0","0","0","91138","","null","","","null","59","","","","","","","","","","","","","","","",""
"","ISI","","html-keyboard-response","389","355612","0.0-1.0-534.0","0","0","91138","","null","","","null","59","NaN","","","","","","","","","","","","","","",""
"","S2","","html-keyboard-response","390","355864","0.0-1.0-535.0","0","0","91138","","null","","","null","59","","NaN","","","","","","","","","","","","","",""
"","response","","html-keyboard-response","391","356615","0.0-1.0-536.0-0.0","0","0","91138","","750","","","75","59","","","2","59","training","adjacent","ED","5","4","L.jpg","P.jpg","0","0","1","",""
"","feedback","","html-keyboard-response","392","357617","0.0-1.0-537.0-0.0","0","0","91138","","null","","","null","59","","","","","","","","","","","","","","","",""
"","ITI","","html-keyboard-response","393","358622","0.0-1.0-540.0","0","0","91138","","null","","","null","59","","","","","","","","","","","","","","","NaN",""
"","S1","","html-keyboard-response","394","358875","0.0-1.0-542.0","0","0","91138","","null","","","null","60","","","","","","","","","","","","","","","",""
"","ISI","","html-keyboard-response","395","359378","0.0-1.0-543.0","0","0","91138","","null","","","null","60","NaN","","","","","","","","","","","","","","",""
"","S2","","html-keyboard-response","396","359630","0.0-1.0-544.0","0","0","91138","","null","","","null","60","","NaN","","","","","","","","","","","","","",""
"","response","","html-keyboard-response","397","360682","0.0-1.0-545.0-0.0","0","0","91138","","1051","","","75","60","","","2","60","training","adjacent","GF","7","6","Q.jpg","O.jpg","0","0","1","",""
"","feedback","","html-keyboard-response","398","361685","0.0-1.0-546.0-0.0","0","0","91138","","null","","","null","60","","","","","","","","","","","","","","","",""
"","ITI","","html-keyboard-response","399","362688","0.0-1.0-549.0","0","0","91138","","null","","","null","60","","","","","","","","","","","","","","","NaN",""
"","S1","","html-keyboard-response","400","362942","0.0-1.0-551.0","0","0","91138","","null","","","null","61","","","","","","","","","","","","","","","",""
"","ISI","","html-keyboard-response","401","363445","0.0-1.0-552.0","0","0","91138","","null","","","null","61","NaN","","","","","","","","","","","","","","",""
"","S2","","html-keyboard-response","402","363698","0.0-1.0-553.0","0","0","91138","","null","","","null","61","","NaN","","","","","","","","","","","","","",""
"","response","","html-keyboard-response","403","364072","0.0-1.0-554.0-0.0","0","0","91138","","372","","","68","61","","","2","61","training","adjacent","DC","4","3","P.jpg","M.jpg","1","0","0","",""
"","feedback","","html-keyboard-response","404","365075","0.0-1.0-555.0-0.0","0","0","91138","","null","","","null","61","","","","","","","","","","","","","","","",""
"","time_out","","html-keyboard-response","405","367077","0.0-1.0-557.0-0.0","0","0","91138","","null","","","null","61","","","","","","","","","","","","","","","",""
"","ITI","","html-keyboard-response","406","368080","0.0-1.0-558.0","0","0","91138","","null","","","null","61","","","","","","","","","","","","","","","NaN",""
"","S1","","html-keyboard-response","407","368335","0.0-1.0-560.0","0","0","91138","","null","","","null","62","","","","","","","","","","","","","","","",""
"","ISI","","html-keyboard-response","408","368837","0.0-1.0-561.0","0","0","91138","","null","","","null","62","NaN","","","","","","","","","","","","","","",""
"","S2","","html-keyboard-response","409","369090","0.0-1.0-562.0","0","0","91138","","null","","","null","62","","NaN","","","","","","","","","","","","","",""
"","response","","html-keyboard-response","410","369431","0.0-1.0-563.0-0.0","0","0","91138","","339","","","68","62","","","2","62","training","adjacent","FG","6","7","O.jpg","Q.jpg","1","1","1","",""
"","feedback","","html-keyboard-response","411","370436","0.0-1.0-564.0-0.0","0","0","91138","","null","","","null","62","","","","","","","","","","","","","","","",""
"","ITI","","html-keyboard-response","412","371439","0.0-1.0-567.0","0","0","91138","","null","","","null","62","","","","","","","","","","","","","","","NaN",""
"","S1","","html-keyboard-response","413","371691","0.0-1.0-569.0","0","0","91138","","null","","","null","63","","","","","","","","","","","","","","","",""
"","ISI","","html-keyboard-response","414","372195","0.0-1.0-570.0","0","0","91138","","null","","","null","63","NaN","","","","","","","","","","","","","","",""
"","S2","","html-keyboard-response","415","372449","0.0-1.0-571.0","0","0","91138","","null","","","null","63","","NaN","","","","","","","","","","","","","",""
"","response","","html-keyboard-response","416","373024","0.0-1.0-572.0-0.0","0","0","91138","","571","","","68","63","","","2","63","training","adjacent","DE","4","5","P.jpg","L.jpg","1","1","1","",""
"","feedback","","html-keyboard-response","417","374029","0.0-1.0-573.0-0.0","0","0","91138","","null","","","null","63","","","","","","","","","","","","","","","",""
"","ITI","","html-keyboard-response","418","375034","0.0-1.0-576.0","0","0","91138","","null","","","null","63","","","","","","","","","","","","","","","NaN",""
"","S1","","html-keyboard-response","419","375288","0.0-1.0-578.0","0","0","91138","","null","","","null","64","","","","","","","","","","","","","","","",""
"","ISI","","html-keyboard-response","420","375792","0.0-1.0-579.0","0","0","91138","","null","","","null","64","NaN","","","","","","","","","","","","","","",""
"","S2","","html-keyboard-response","421","376047","0.0-1.0-580.0","0","0","91138","","null","","","null","64","","NaN","","","","","","","","","","","","","",""
"","response","","html-keyboard-response","422","376701","0.0-1.0-581.0-0.0","0","0","91138","","652","","","68","64","","","2","64","training","adjacent","FE","6","5","O.jpg","L.jpg","1","0","0","",""
"","feedback","","html-keyboard-response","423","377705","0.0-1.0-582.0-0.0","0","0","91138","","null","","","null","64","","","","","","","","","","","","","","","",""
"","time_out","","html-keyboard-response","424","379708","0.0-1.0-584.0-0.0","0","0","91138","","null","","","null","64","","","","","","","","","","","","","","","",""
"","ITI","","html-keyboard-response","425","380711","0.0-1.0-585.0","0","0","91138","","null","","","null","64","","","","","","","","","","","","","","","NaN",""
"","S1","","html-keyboard-response","426","380965","0.0-1.0-587.0","0","0","91138","","null","","","null","65","","","","","","","","","","","","","","","",""
"","ISI","","html-keyboard-response","427","381469","0.0-1.0-588.0","0","0","91138","","null","","","null","65","NaN","","","","","","","","","","","","","","",""
"","S2","","html-keyboard-response","428","381722","0.0-1.0-589.0","0","0","91138","","null","","","null","65","","NaN","","","","","","","","","","","","","",""
"","response","","html-keyboard-response","429","382421","0.0-1.0-590.0-0.0","0","0","91138","","697","","","75","65","","","2","65","training","adjacent","CB","3","2","M.jpg","R.jpg","0","0","1","",""
"","feedback","","html-keyboard-response","430","383426","0.0-1.0-591.0-0.0","0","0","91138","","null","","","null","65","","","","","","","","","","","","","","","",""
"","ITI","","html-keyboard-response","431","384430","0.0-1.0-594.0","0","0","91138","","null","","","null","65","","","","","","","","","","","","","","","NaN",""
"","S1","","html-keyboard-response","432","384683","0.0-1.0-596.0","0","0","91138","","null","","","null","66","","","","","","","","","","","","","","","",""
"","ISI","","html-keyboard-response","433","385185","0.0-1.0-597.0","0","0","91138","","null","","","null","66","NaN","","","","","","","","","","","","","","",""
"","S2","","html-keyboard-response","434","385438","0.0-1.0-598.0","0","0","91138","","null","","","null","66","","NaN","","","","","","","","","","","","","",""
"","response","","html-keyboard-response","435","386006","0.0-1.0-599.0-0.0","0","0","91138","","564","","","75","66","","","2","66","training","adjacent","GF","7","6","Q.jpg","O.jpg","0","0","1","",""
"","feedback","","html-keyboard-response","436","387009","0.0-1.0-600.0-0.0","0","0","91138","","null","","","null","66","","","","","","","","","","","","","","","",""
"","ITI","","html-keyboard-response","437","388013","0.0-1.0-603.0","0","0","91138","","null","","","null","66","","","","","","","","","","","","","","","NaN",""
"","S1","","html-keyboard-response","438","388265","0.0-1.0-605.0","0","0","91138","","null","","","null","67","","","","","","","","","","","","","","","",""
"","ISI","","html-keyboard-response","439","388768","0.0-1.0-606.0","0","0","91138","","null","","","null","67","NaN","","","","","","","","","","","","","","",""
"","S2","","html-keyboard-response","440","389021","0.0-1.0-607.0","0","0","91138","","null","","","null","67","","NaN","","","","","","","","","","","","","",""
"","response","","html-keyboard-response","441","389101","0.0-1.0-608.0-0.0","0","0","91138","","78","","","68","67","","","2","67","training","adjacent","AB","1","2","N.jpg","R.jpg","1","1","1","",""
"","feedback","","html-keyboard-response","442","390105","0.0-1.0-609.0-0.0","0","0","91138","","null","","","null","67","","","","","","","","","","","","","","","",""
"","ITI","","html-keyboard-response","443","391110","0.0-1.0-612.0","0","0","91138","","null","","","null","67","","","","","","","","","","","","","","","NaN",""
"","S1","","html-keyboard-response","444","391362","0.0-1.0-614.0","0","0","91138","","null","","","null","68","","","","","","","","","","","","","","","",""
"","ISI","","html-keyboard-response","445","391866","0.0-1.0-615.0","0","0","91138","","null","","","null","68","NaN","","","","","","","","","","","","","","",""
"","S2","","html-keyboard-response","446","392121","0.0-1.0-616.0","0","0","91138","","null","","","null","68","","NaN","","","","","","","","","","","","","",""
"","response","","html-keyboard-response","447","392622","0.0-1.0-617.0-0.0","0","0","91138","","498","","","68","68","","","2","68","training","adjacent","EF","5","6","L.jpg","O.jpg","1","1","1","",""
"","feedback","","html-keyboard-response","448","393640","0.0-1.0-618.0-0.0","0","0","91138","","null","","","null","68","","","","","","","","","","","","","","","",""
"","ITI","","html-keyboard-response","449","394642","0.0-1.0-621.0","0","0","91138","","null","","","null","68","","","","","","","","","","","","","","","NaN",""
"","S1","","html-keyboard-response","450","394910","0.0-1.0-623.0","0","0","91138","","null","","","null","69","","","","","","","","","","","","","","","",""
"","ISI","","html-keyboard-response","451","395412","0.0-1.0-624.0","0","0","91138","","null","","","null","69","NaN","","","","","","","","","","","","","","",""
"","S2","","html-keyboard-response","452","395675","0.0-1.0-625.0","0","0","91138","","null","","","null","69","","NaN","","","","","","","","","","","","","",""
"","response","","html-keyboard-response","453","396309","0.0-1.0-626.0-0.0","0","0","91138","","631","","","75","69","","","2","69","training","adjacent","GF","7","6","Q.jpg","O.jpg","0","0","1","",""
"","feedback","","html-keyboard-response","454","397312","0.0-1.0-627.0-0.0","0","0","91138","","null","","","null","69","","","","","","","","","","","","","","","",""
"","ITI","","html-keyboard-response","455","398317","0.0-1.0-630.0","0","0","91138","","null","","","null","69","","","","","","","","","","","","","","","NaN",""
"","S1","","html-keyboard-response","456","398571","0.0-1.0-632.0","0","0","91138","","null","","","null","70","","","","","","","","","","","","","","","",""
"","ISI","","html-keyboard-response","457","399075","0.0-1.0-633.0","0","0","91138","","null","","","null","70","NaN","","","","","","","","","","","","","","",""
"","S2","","html-keyboard-response","458","399329","0.0-1.0-634.0","0","0","91138","","null","","","null","70","","NaN","","","","","","","","","","","","","",""
"","response","","html-keyboard-response","459","399830","0.0-1.0-635.0-0.0","0","0","91138","","498","","","68","70","","","2","70","training","adjacent","FG","6","7","O.jpg","Q.jpg","1","1","1","",""
"","feedback","","html-keyboard-response","460","400832","0.0-1.0-636.0-0.0","0","0","91138","","null","","","null","70","","","","","","","","","","","","","","","",""
"","ITI","","html-keyboard-response","461","401836","0.0-1.0-639.0","0","0","91138","","null","","","null","70","","","","","","","","","","","","","","","NaN",""
"","S1","","html-keyboard-response","462","402088","0.0-1.0-641.0","0","0","91138","","null","","","null","71","","","","","","","","","","","","","","","",""
"","ISI","","html-keyboard-response","463","402591","0.0-1.0-642.0","0","0","91138","","null","","","null","71","NaN","","","","","","","","","","","","","","",""
"","S2","","html-keyboard-response","464","402844","0.0-1.0-643.0","0","0","91138","","null","","","null","71","","NaN","","","","","","","","","","","","","",""
"","response","","html-keyboard-response","465","403148","0.0-1.0-644.0-0.0","0","0","91138","","303","","","68","71","","","2","71","training","adjacent","FG","6","7","O.jpg","Q.jpg","1","1","1","",""
"","feedback","","html-keyboard-response","466","404152","0.0-1.0-645.0-0.0","0","0","91138","","null","","","null","71","","","","","","","","","","","","","","","",""
"","ITI","","html-keyboard-response","467","405157","0.0-1.0-648.0","0","0","91138","","null","","","null","71","","","","","","","","","","","","","","","NaN",""
"","S1","","html-keyboard-response","468","405408","0.0-1.0-650.0","0","0","91138","","null","","","null","72","","","","","","","","","","","","","","","",""
"","ISI","","html-keyboard-response","469","405911","0.0-1.0-651.0","0","0","91138","","null","","","null","72","NaN","","","","","","","","","","","","","","",""
"","S2","","html-keyboard-response","470","406164","0.0-1.0-652.0","0","0","91138","","null","","","null","72","","NaN","","","","","","","","","","","","","",""
"","response","","html-keyboard-response","471","406867","0.0-1.0-653.0-0.0","0","0","91138","","700","","","68","72","","","2","72","training","adjacent","CD","3","4","M.jpg","P.jpg","1","1","1","",""
"","feedback","","html-keyboard-response","472","407878","0.0-1.0-654.0-0.0","0","0","91138","","null","","","null","72","","","","","","","","","","","","","","","",""
"","ITI","","html-keyboard-response","473","408881","0.0-1.0-657.0","0","0","91138","","null","","","null","72","","","","","","","","","","","","","","","NaN",""
"","S1","","html-keyboard-response","474","409135","0.0-1.0-659.0","0","0","91138","","null","","","null","73","","","","","","","","","","","","","","","",""
"","ISI","","html-keyboard-response","475","409639","0.0-1.0-660.0","0","0","91138","","null","","","null","73","NaN","","","","","","","","","","","","","","",""
"","S2","","html-keyboard-response","476","409892","0.0-1.0-661.0","0","0","91138","","null","","","null","73","","NaN","","","","","","","","","","","","","",""
"","response","","html-keyboard-response","477","410353","0.0-1.0-662.0-0.0","0","0","91138","","460","","","75","73","","","2","73","training","adjacent","DC","4","3","P.jpg","M.jpg","0","0","1","",""
"","feedback","","html-keyboard-response","478","411355","0.0-1.0-663.0-0.0","0","0","91138","","null","","","null","73","","","","","","","","","","","","","","","",""
"","ITI","","html-keyboard-response","479","412359","0.0-1.0-666.0","0","0","91138","","null","","","null","73","","","","","","","","","","","","","","","NaN",""
"","S1","","html-keyboard-response","480","412613","0.0-1.0-668.0","0","0","91138","","null","","","null","74","","","","","","","","","","","","","","","",""
"","ISI","","html-keyboard-response","481","413118","0.0-1.0-669.0","0","0","91138","","null","","","null","74","NaN","","","","","","","","","","","","","","",""
"","S2","","html-keyboard-response","482","413373","0.0-1.0-670.0","0","0","91138","","null","","","null","74","","NaN","","","","","","","","","","","","","",""
"","response","","html-keyboard-response","483","414105","0.0-1.0-671.0-0.0","0","0","91138","","730","","","68","74","","","2","74","training","adjacent","CD","3","4","M.jpg","P.jpg","1","1","1","",""
"","feedback","","html-keyboard-response","484","415115","0.0-1.0-672.0-0.0","0","0","91138","","null","","","null","74","","","","","","","","","","","","","","","",""
"","ITI","","html-keyboard-response","485","416118","0.0-1.0-675.0","0","0","91138","","null","","","null","74","","","","","","","","","","","","","","","NaN",""
"","S1","","html-keyboard-response","486","416373","0.0-1.0-677.0","0","0","91138","","null","","","null","75","","","","","","","","","","","","","","","",""
"","ISI","","html-keyboard-response","487","416875","0.0-1.0-678.0","0","0","91138","","null","","","null","75","NaN","","","","","","","","","","","","","","",""
"","S2","","html-keyboard-response","488","417129","0.0-1.0-679.0","0","0","91138","","null","","","null","75","","NaN","","","","","","","","","","","","","",""
"","response","","html-keyboard-response","489","417639","0.0-1.0-680.0-0.0","0","0","91138","","508","","","68","75","","","2","75","training","adjacent","EF","5","6","L.jpg","O.jpg","1","1","1","",""
"","feedback","","html-keyboard-response","490","418644","0.0-1.0-681.0-0.0","0","0","91138","","null","","","null","75","","","","","","","","","","","","","","","",""
"","ITI","","html-keyboard-response","491","419647","0.0-1.0-684.0","0","0","91138","","null","","","null","75","","","","","","","","","","","","","","","NaN",""
"","S1","","html-keyboard-response","492","419900","0.0-1.0-686.0","0","0","91138","","null","","","null","76","","","","","","","","","","","","","","","",""
"","ISI","","html-keyboard-response","493","420404","0.0-1.0-687.0","0","0","91138","","null","","","null","76","NaN","","","","","","","","","","","","","","",""
"","S2","","html-keyboard-response","494","420659","0.0-1.0-688.0","0","0","91138","","null","","","null","76","","NaN","","","","","","","","","","","","","",""
"","response","","html-keyboard-response","495","421043","0.0-1.0-689.0-0.0","0","0","91138","","382","","","68","76","","","2","76","training","adjacent","FG","6","7","O.jpg","Q.jpg","1","1","1","",""
"","feedback","","html-keyboard-response","496","422046","0.0-1.0-690.0-0.0","0","0","91138","","null","","","null","76","","","","","","","","","","","","","","","",""
"","ITI","","html-keyboard-response","497","423049","0.0-1.0-693.0","0","0","91138","","null","","","null","76","","","","","","","","","","","","","","","NaN",""
"","S1","","html-keyboard-response","498","423303","0.0-1.0-695.0","0","0","91138","","null","","","null","77","","","","","","","","","","","","","","","",""
"","ISI","","html-keyboard-response","499","423805","0.0-1.0-696.0","0","0","91138","","null","","","null","77","NaN","","","","","","","","","","","","","","",""
"","S2","","html-keyboard-response","500","424057","0.0-1.0-697.0","0","0","91138","","null","","","null","77","","NaN","","","","","","","","","","","","","",""
"","response","","html-keyboard-response","501","424467","0.0-1.0-698.0-0.0","0","0","91138","","406","","","75","77","","","2","77","training","adjacent","CB","3","2","M.jpg","R.jpg","0","0","1","",""
"","feedback","","html-keyboard-response","502","425471","0.0-1.0-699.0-0.0","0","0","91138","","null","","","null","77","","","","","","","","","","","","","","","",""
"","ITI","","html-keyboard-response","503","426476","0.0-1.0-702.0","0","0","91138","","null","","","null","77","","","","","","","","","","","","","","","NaN",""
"","S1","","html-keyboard-response","504","426730","0.0-1.0-704.0","0","0","91138","","null","","","null","78","","","","","","","","","","","","","","","",""
"","ISI","","html-keyboard-response","505","427233","0.0-1.0-705.0","0","0","91138","","null","","","null","78","NaN","","","","","","","","","","","","","","",""
"","S2","","html-keyboard-response","506","427499","0.0-1.0-706.0","0","0","91138","","null","","","null","78","","NaN","","","","","","","","","","","","","",""
"","response","","html-keyboard-response","507","428122","0.0-1.0-707.0-0.0","0","0","91138","","621","","","75","78","","","2","78","training","adjacent","BA","2","1","R.jpg","N.jpg","0","0","1","",""
"","feedback","","html-keyboard-response","508","429126","0.0-1.0-708.0-0.0","0","0","91138","","null","","","null","78","","","","","","","","","","","","","","","",""
"","ITI","","html-keyboard-response","509","430130","0.0-1.0-711.0","0","0","91138","","null","","","null","78","","","","","","","","","","","","","","","NaN",""
"","S1","","html-keyboard-response","510","430384","0.0-1.0-713.0","0","0","91138","","null","","","null","79","","","","","","","","","","","","","","","",""
"","ISI","","html-keyboard-response","511","430888","0.0-1.0-714.0","0","0","91138","","null","","","null","79","NaN","","","","","","","","","","","","","","",""
"","S2","","html-keyboard-response","512","431141","0.0-1.0-715.0","0","0","91138","","null","","","null","79","","NaN","","","","","","","","","","","","","",""
"","response","","html-keyboard-response","513","431480","0.0-1.0-716.0-0.0","0","0","91138","","337","","","68","79","","","2","79","training","adjacent","FE","6","5","O.jpg","L.jpg","1","0","0","",""
"","feedback","","html-keyboard-response","514","432483","0.0-1.0-717.0-0.0","0","0","91138","","null","","","null","79","","","","","","","","","","","","","","","",""
"","time_out","","html-keyboard-response","515","434487","0.0-1.0-719.0-0.0","0","0","91138","","null","","","null","79","","","","","","","","","","","","","","","",""
"","ITI","","html-keyboard-response","516","435491","0.0-1.0-720.0","0","0","91138","","null","","","null","79","","","","","","","","","","","","","","","NaN",""
"","S1","","html-keyboard-response","517","435745","0.0-1.0-722.0","0","0","91138","","null","","","null","80","","","","","","","","","","","","","","","",""
"","ISI","","html-keyboard-response","518","436248","0.0-1.0-723.0","0","0","91138","","null","","","null","80","NaN","","","","","","","","","","","","","","",""
"","S2","","html-keyboard-response","519","436502","0.0-1.0-724.0","0","0","91138","","null","","","null","80","","NaN","","","","","","","","","","","","","",""
"","response","","html-keyboard-response","520","437119","0.0-1.0-725.0-0.0","0","0","91138","","615","","","68","80","","","2","80","training","adjacent","DE","4","5","P.jpg","L.jpg","1","1","1","",""
"","feedback","","html-keyboard-response","521","438123","0.0-1.0-726.0-0.0","0","0","91138","","null","","","null","80","","","","","","","","","","","","","","","",""
"","ITI","","html-keyboard-response","522","439127","0.0-1.0-729.0","0","0","91138","","null","","","null","80","","","","","","","","","","","","","","","NaN",""
"","S1","","html-keyboard-response","523","439380","0.0-1.0-731.0","0","0","91138","","null","","","null","81","","","","","","","","","","","","","","","",""
"","ISI","","html-keyboard-response","524","439883","0.0-1.0-732.0","0","0","91138","","null","","","null","81","NaN","","","","","","","","","","","","","","",""
"","S2","","html-keyboard-response","525","440136","0.0-1.0-733.0","0","0","91138","","null","","","null","81","","NaN","","","","","","","","","","","","","",""
"","response","","html-keyboard-response","526","440845","0.0-1.0-734.0-0.0","0","0","91138","","707","","","75","81","","","2","81","training","adjacent","CD","3","4","M.jpg","P.jpg","0","1","0","",""
"","feedback","","html-keyboard-response","527","441848","0.0-1.0-735.0-0.0","0","0","91138","","null","","","null","81","","","","","","","","","","","","","","","",""
"","time_out","","html-keyboard-response","528","443850","0.0-1.0-737.0-0.0","0","0","91138","","null","","","null","81","","","","","","","","","","","","","","","",""
"","ITI","","html-keyboard-response","529","444852","0.0-1.0-738.0","0","0","91138","","null","","","null","81","","","","","","","","","","","","","","","NaN",""
"","S1","","html-keyboard-response","530","445105","0.0-1.0-740.0","0","0","91138","","null","","","null","82","","","","","","","","","","","","","","","",""
"","ISI","","html-keyboard-response","531","445608","0.0-1.0-741.0","0","0","91138","","null","","","null","82","NaN","","","","","","","","","","","","","","",""
"","S2","","html-keyboard-response","532","445861","0.0-1.0-742.0","0","0","91138","","null","","","null","82","","NaN","","","","","","","","","","","","","",""
"","response","","html-keyboard-response","533","446268","0.0-1.0-743.0-0.0","0","0","91138","","406","","","68","82","","","2","82","training","adjacent","EF","5","6","L.jpg","O.jpg","1","1","1","",""
"","feedback","","html-keyboard-response","534","447286","0.0-1.0-744.0-0.0","0","0","91138","","null","","","null","82","","","","","","","","","","","","","","","",""
"","ITI","","html-keyboard-response","535","448290","0.0-1.0-747.0","0","0","91138","","null","","","null","82","","","","","","","","","","","","","","","NaN",""
"","S1","","html-keyboard-response","536","448544","0.0-1.0-749.0","0","0","91138","","null","","","null","83","","","","","","","","","","","","","","","",""
"","ISI","","html-keyboard-response","537","449048","0.0-1.0-750.0","0","0","91138","","null","","","null","83","NaN","","","","","","","","","","","","","","",""
"","S2","","html-keyboard-response","538","449301","0.0-1.0-751.0","0","0","91138","","null","","","null","83","","NaN","","","","","","","","","","","","","",""
"","response","","html-keyboard-response","539","449573","0.0-1.0-752.0-0.0","0","0","91138","","270","","","68","83","","","2","83","training","adjacent","GF","7","6","Q.jpg","O.jpg","1","0","0","",""
"","feedback","","html-keyboard-response","540","450577","0.0-1.0-753.0-0.0","0","0","91138","","null","","","null","83","","","","","","","","","","","","","","","",""
"","time_out","","html-keyboard-response","541","452580","0.0-1.0-755.0-0.0","0","0","91138","","null","","","null","83","","","","","","","","","","","","","","","",""
"","ITI","","html-keyboard-response","542","453583","0.0-1.0-756.0","0","0","91138","","null","","","null","83","","","","","","","","","","","","","","","NaN",""
"","S1","","html-keyboard-response","543","453835","0.0-1.0-758.0","0","0","91138","","null","","","null","84","","","","","","","","","","","","","","","",""
"","ISI","","html-keyboard-response","544","454339","0.0-1.0-759.0","0","0","91138","","null","","","null","84","NaN","","","","","","","","","","","","","","",""
"","S2","","html-keyboard-response","545","454594","0.0-1.0-760.0","0","0","91138","","null","","","null","84","","NaN","","","","","","","","","","","","","",""
"","response","","html-keyboard-response","546","455285","0.0-1.0-761.0-0.0","0","0","91138","","687","","","68","84","","","2","84","training","adjacent","BC","2","3","R.jpg","M.jpg","1","1","1","",""
"","feedback","","html-keyboard-response","547","456290","0.0-1.0-762.0-0.0","0","0","91138","","null","","","null","84","","","","","","","","","","","","","","","",""
"","ITI","","html-keyboard-response","548","457294","0.0-1.0-765.0","0","0","91138","","null","","","null","84","","","","","","","","","","","","","","","NaN",""
"","S1","","html-keyboard-response","549","457549","0.0-1.0-767.0","0","0","91138","","null","","","null","85","","","","","","","","","","","","","","","",""
"","ISI","","html-keyboard-response","550","458051","0.0-1.0-768.0","0","0","91138","","null","","","null","85","NaN","","","","","","","","","","","","","","",""
"","S2","","html-keyboard-response","551","458302","0.0-1.0-769.0","0","0","91138","","null","","","null","85","","NaN","","","","","","","","","","","","","",""
"","response","","html-keyboard-response","552","458715","0.0-1.0-770.0-0.0","0","0","91138","","411","","","68","85","","","2","85","training","adjacent","ED","5","4","L.jpg","P.jpg","1","0","0","",""
"","feedback","","html-keyboard-response","553","459718","0.0-1.0-771.0-0.0","0","0","91138","","null","","","null","85","","","","","","","","","","","","","","","",""
"","time_out","","html-keyboard-response","554","461722","0.0-1.0-773.0-0.0","0","0","91138","","null","","","null","85","","","","","","","","","","","","","","","",""
"","ITI","","html-keyboard-response","555","462726","0.0-1.0-774.0","0","0","91138","","null","","","null","85","","","","","","","","","","","","","","","NaN",""
"","S1","","html-keyboard-response","556","462979","0.0-1.0-776.0","0","0","91138","","null","","","null","86","","","","","","","","","","","","","","","",""
"","ISI","","html-keyboard-response","557","463482","0.0-1.0-777.0","0","0","91138","","null","","","null","86","NaN","","","","","","","","","","","","","","",""
"","S2","","html-keyboard-response","558","463735","0.0-1.0-778.0","0","0","91138","","null","","","null","86","","NaN","","","","","","","","","","","","","",""
"","response","","html-keyboard-response","559","464516","0.0-1.0-779.0-0.0","0","0","91138","","780","","","68","86","","","2","86","training","adjacent","DC","4","3","P.jpg","M.jpg","1","0","0","",""
"","feedback","","html-keyboard-response","560","465519","0.0-1.0-780.0-0.0","0","0","91138","","null","","","null","86","","","","","","","","","","","","","","","",""
"","time_out","","html-keyboard-response","561","467523","0.0-1.0-782.0-0.0","0","0","91138","","null","","","null","86","","","","","","","","","","","","","","","",""
"","ITI","","html-keyboard-response","562","468528","0.0-1.0-783.0","0","0","91138","","null","","","null","86","","","","","","","","","","","","","","","NaN",""
"","S1","","html-keyboard-response","563","468782","0.0-1.0-785.0","0","0","91138","","null","","","null","87","","","","","","","","","","","","","","","",""
"","ISI","","html-keyboard-response","564","469299","0.0-1.0-786.0","0","0","91138","","null","","","null","87","NaN","","","","","","","","","","","","","","",""
"","S2","","html-keyboard-response","565","469553","0.0-1.0-787.0","0","0","91138","","null","","","null","87","","NaN","","","","","","","","","","","","","",""
"","response","","html-keyboard-response","566","470323","0.0-1.0-788.0-0.0","0","0","91138","","767","","","68","87","","","2","87","training","adjacent","DE","4","5","P.jpg","L.jpg","1","1","1","",""
"","feedback","","html-keyboard-response","567","471326","0.0-1.0-789.0-0.0","0","0","91138","","null","","","null","87","","","","","","","","","","","","","","","",""
"","ITI","","html-keyboard-response","568","472330","0.0-1.0-792.0","0","0","91138","","null","","","null","87","","","","","","","","","","","","","","","NaN",""
"","S1","","html-keyboard-response","569","472583","0.0-1.0-794.0","0","0","91138","","null","","","null","88","","","","","","","","","","","","","","","",""
"","ISI","","html-keyboard-response","570","473086","0.0-1.0-795.0","0","0","91138","","null","","","null","88","NaN","","","","","","","","","","","","","","",""
"","S2","","html-keyboard-response","571","473340","0.0-1.0-796.0","0","0","91138","","null","","","null","88","","NaN","","","","","","","","","","","","","",""
"","response","","html-keyboard-response","572","473557","0.0-1.0-797.0-0.0","0","0","91138","","217","","","75","88","","","2","88","training","adjacent","BA","2","1","R.jpg","N.jpg","0","0","1","",""
"","feedback","","html-keyboard-response","573","474561","0.0-1.0-798.0-0.0","0","0","91138","","null","","","null","88","","","","","","","","","","","","","","","",""
"","ITI","","html-keyboard-response","574","475564","0.0-1.0-801.0","0","0","91138","","null","","","null","88","","","","","","","","","","","","","","","NaN",""
"","S1","","html-keyboard-response","575","475817","0.0-1.0-803.0","0","0","91138","","null","","","null","89","","","","","","","","","","","","","","","",""
"","ISI","","html-keyboard-response","576","476320","0.0-1.0-804.0","0","0","91138","","null","","","null","89","NaN","","","","","","","","","","","","","","",""
"","S2","","html-keyboard-response","577","476575","0.0-1.0-805.0","0","0","91138","","null","","","null","89","","NaN","","","","","","","","","","","","","",""
"","response","","html-keyboard-response","578","477039","0.0-1.0-806.0-0.0","0","0","91138","","460","","","75","89","","","2","89","training","adjacent","CB","3","2","M.jpg","R.jpg","0","0","1","",""
"","feedback","","html-keyboard-response","579","478042","0.0-1.0-807.0-0.0","0","0","91138","","null","","","null","89","","","","","","","","","","","","","","","",""
