"success","ttype","start_time","trial_type","trial_index","time_elapsed","internal_node_id","warning","missed_checkup","PID","view_history","rt","responses","repeat_instructions","key_press","index","keypress_isi","keypress_S2","block","trial_num","phase","group_type","pair_type","S1_stim","S2_stim","S1_img","S2_img","S1_chosen","S1_higher","accuracy","keypress_iti","total_bonus_tally"
"true","full_screen","d03042023hr1740","fullscreen","0","4569","0.0-0.0","0","0","50952","","","","","","","","","","","","","","","","","","","","","",""
"","instructions","","instructions","1","26758","0.0-1.0-0.0-0.0","0","0","50952","[{""page_index"":0,""viewing_time"":3122},{""page_index"":1,""viewing_time"":9769},{""page_index"":2,""viewing_time"":7680},{""page_index"":3,""viewing_time"":1615}]","22187","","","","","","","","","","","","","","","","","","","",""
"","comprehension_check","","survey-multi-choice","2","46871","0.0-1.0-0.0-1.0","0","0","50952","","20106","{""Q0"":""True"",""Q1"":""D"",""Q2"":""Only when the screen 'MAKE A CHOICE' is shown"",""Q3"":""Green mark"",""Q4"":""either D or K""}","1","","","","","","","","","","","","","","","","","",""
"","missed_instruction_checkup","","html-keyboard-response","3","49535","0.0-1.0-0.0-2.0-0.0","0","1","50952","","2661","","","32","","","","","","","","","","","","","","","","",""
"","instructions","","instructions","4","58949","0.0-1.0-0.1-0.1","0","0","50952","[{""page_index"":0,""viewing_time"":2021},{""page_index"":1,""viewing_time"":5280},{""page_index"":2,""viewing_time"":1256},{""page_index"":3,""viewing_time"":855}]","9412","","","","","","","","","","","","","","","","","","","",""
"","comprehension_check","","survey-multi-choice","5","67077","0.0-1.0-0.1-1.1","0","0","50952","","8126","{""Q0"":""True"",""Q1"":""D"",""Q2"":""Once the second image appears and while the screen 'MAKE A CHOICE' is shown"",""Q3"":""Green mark"",""Q4"":""either D or K""}","0","","","","","","","","","","","","","","","","","",""
"","start_exp","","html-keyboard-response","6","68105","0.0-1.0-1.0","0","0","50952","","1027","","","32","","","","","","","","","","","","","","","","",""
"","S1","","html-keyboard-response","7","68373","0.0-1.0-2.0","0","0","50952","","null","","","null","0","","","","","","","","","","","","","","","",""
"","ISI","","html-keyboard-response","8","68876","0.0-1.0-3.0","0","0","50952","","null","","","null","0","NaN","","","","","","","","","","","","","","",""
"","S2","","html-keyboard-response","9","69130","0.0-1.0-4.0","0","0","50952","","null","","","null","0","","NaN","","","","","","","","","","","","","",""
"","response","","html-keyboard-response","10","70682","0.0-1.0-5.0-0.0","0","0","50952","","1550","","","68","0","","","1","0","training","adjacent","DE","4","5","N.jpg","M.jpg","1","1","1","",""
"","feedback","","html-keyboard-response","11","71686","0.0-1.0-6.0-0.0","0","0","50952","","null","","","null","0","","","","","","","","","","","","","","","",""
"","ITI","","html-keyboard-response","12","72690","0.0-1.0-9.0","0","0","50952","","null","","","null","0","","","","","","","","","","","","","","","NaN",""
"","S1","","html-keyboard-response","13","72943","0.0-1.0-11.0","0","0","50952","","null","","","null","1","","","","","","","","","","","","","","","",""
"","ISI","","html-keyboard-response","14","73447","0.0-1.0-12.0","0","0","50952","","null","","","null","1","NaN","","","","","","","","","","","","","","",""
"","S2","","html-keyboard-response","15","73700","0.0-1.0-13.0","0","0","50952","","null","","","null","1","","NaN","","","","","","","","","","","","","",""
"","response","","html-keyboard-response","16","74732","0.0-1.0-14.0-0.0","0","0","50952","","1031","","","68","1","","","1","1","training","adjacent","FG","6","7","O.jpg","P.jpg","1","1","1","",""
"","feedback","","html-keyboard-response","17","75736","0.0-1.0-15.0-0.0","0","0","50952","","null","","","null","1","","","","","","","","","","","","","","","",""
"","ITI","","html-keyboard-response","18","76740","0.0-1.0-18.0","0","0","50952","","null","","","null","1","","","","","","","","","","","","","","","NaN",""
"","S1","","html-keyboard-response","19","76993","0.0-1.0-20.0","0","0","50952","","null","","","null","2","","","","","","","","","","","","","","","",""
"","ISI","","html-keyboard-response","20","77496","0.0-1.0-21.0","0","0","50952","","null","","","null","2","NaN","","","","","","","","","","","","","","",""
"","S2","","html-keyboard-response","21","77751","0.0-1.0-22.0","0","0","50952","","null","","","null","2","","NaN","","","","","","","","","","","","","",""
"","response","","html-keyboard-response","22","78354","0.0-1.0-23.0-0.0","0","0","50952","","601","","","68","2","","","1","2","training","adjacent","CD","3","4","L.jpg","N.jpg","1","1","1","",""
"","feedback","","html-keyboard-response","23","79365","0.0-1.0-24.0-0.0","0","0","50952","","null","","","null","2","","","","","","","","","","","","","","","",""
"","ITI","","html-keyboard-response","24","80369","0.0-1.0-27.0","0","0","50952","","null","","","null","2","","","","","","","","","","","","","","","NaN",""
"","S1","","html-keyboard-response","25","80623","0.0-1.0-29.0","0","0","50952","","null","","","null","3","","","","","","","","","","","","","","","",""
"","ISI","","html-keyboard-response","26","81126","0.0-1.0-30.0","0","0","50952","","null","","","null","3","NaN","","","","","","","","","","","","","","",""
"","S2","","html-keyboard-response","27","81379","0.0-1.0-31.0","0","0","50952","","null","","","null","3","","NaN","","","","","","","","","","","","","",""
"","response","","html-keyboard-response","28","81750","0.0-1.0-32.0-0.0","0","0","50952","","370","","","75","3","","","1","3","training","adjacent","EF","5","6","M.jpg","O.jpg","0","1","0","",""
"","feedback","","html-keyboard-response","29","82754","0.0-1.0-33.0-0.0","0","0","50952","","null","","","null","3","","","","","","","","","","","","","","","",""
"","time_out","","html-keyboard-response","30","84757","0.0-1.0-35.0-0.0","0","0","50952","","null","","","null","3","","","","","","","","","","","","","","","",""
"","ITI","","html-keyboard-response","31","85759","0.0-1.0-36.0","0","0","50952","","null","","","null","3","","","","","","","","","","","","","","","NaN",""
"","S1","","html-keyboard-response","32","86011","0.0-1.0-38.0","0","0","50952","","null","","","null","4","","","","","","","","","","","","","","","",""
"","ISI","","html-keyboard-response","33","86514","0.0-1.0-39.0","0","0","50952","","null","","","null","4","NaN","","","","","","","","","","","","","","",""
"","S2","","html-keyboard-response","34","86768","0.0-1.0-40.0","0","0","50952","","null","","","null","4","","NaN","","","","","","","","","","","","","",""
"","response","","html-keyboard-response","35","87294","0.0-1.0-41.0-0.0","0","0","50952","","525","","","68","4","","","1","4","training","adjacent","FE","6","5","O.jpg","M.jpg","1","0","0","",""
"","feedback","","html-keyboard-response","36","88297","0.0-1.0-42.0-0.0","0","0","50952","","null","","","null","4","","","","","","","","","","","","","","","",""
"","time_out","","html-keyboard-response","37","90300","0.0-1.0-44.0-0.0","0","0","50952","","null","","","null","4","","","","","","","","","","","","","","","",""
"","ITI","","html-keyboard-response","38","91304","0.0-1.0-45.0","0","0","50952","","null","","","null","4","","","","","","","","","","","","","","","NaN",""
"","S1","","html-keyboard-response","39","91557","0.0-1.0-47.0","0","0","50952","","null","","","null","5","","","","","","","","","","","","","","","",""
"","ISI","","html-keyboard-response","40","92060","0.0-1.0-48.0","0","0","50952","","null","","","null","5","NaN","","","","","","","","","","","","","","",""
"","S2","","html-keyboard-response","41","92313","0.0-1.0-49.0","0","0","50952","","null","","","null","5","","NaN","","","","","","","","","","","","","",""
"","response","","html-keyboard-response","42","93071","0.0-1.0-50.0-0.0","0","0","50952","","757","","","68","5","","","1","5","training","adjacent","GF","7","6","P.jpg","O.jpg","1","0","0","",""
"","feedback","","html-keyboard-response","43","94074","0.0-1.0-51.0-0.0","0","0","50952","","null","","","null","5","","","","","","","","","","","","","","","",""
"","time_out","","html-keyboard-response","44","96077","0.0-1.0-53.0-0.0","0","0","50952","","null","","","null","5","","","","","","","","","","","","","","","",""
"","ITI","","html-keyboard-response","45","97080","0.0-1.0-54.0","0","0","50952","","null","","","null","5","","","","","","","","","","","","","","","NaN",""
"","S1","","html-keyboard-response","46","97332","0.0-1.0-56.0","0","0","50952","","null","","","null","6","","","","","","","","","","","","","","","",""
"","ISI","","html-keyboard-response","47","97835","0.0-1.0-57.0","0","0","50952","","null","","","null","6","NaN","","","","","","","","","","","","","","",""
"","S2","","html-keyboard-response","48","98088","0.0-1.0-58.0","0","0","50952","","null","","","null","6","","NaN","","","","","","","","","","","","","",""
"","response","","html-keyboard-response","49","98755","0.0-1.0-59.0-0.0","0","0","50952","","666","","","75","6","","","1","6","training","adjacent","BA","2","1","R.jpg","Q.jpg","0","0","1","",""
"","feedback","","html-keyboard-response","50","99759","0.0-1.0-60.0-0.0","0","0","50952","","null","","","null","6","","","","","","","","","","","","","","","",""
"","ITI","","html-keyboard-response","51","100762","0.0-1.0-63.0","0","0","50952","","null","","","null","6","","","","","","","","","","","","","","","NaN",""
"","S1","","html-keyboard-response","52","101015","0.0-1.0-65.0","0","0","50952","","null","","","null","7","","","","","","","","","","","","","","","",""
"","ISI","","html-keyboard-response","53","101520","0.0-1.0-66.0","0","0","50952","","null","","","null","7","NaN","","","","","","","","","","","","","","",""
"","S2","","html-keyboard-response","54","101773","0.0-1.0-67.0","0","0","50952","","null","","","null","7","","NaN","","","","","","","","","","","","","",""
"","response","","html-keyboard-response","55","102287","0.0-1.0-68.0-0.0","0","0","50952","","513","","","75","7","","","1","7","training","adjacent","BA","2","1","R.jpg","Q.jpg","0","0","1","",""
"","feedback","","html-keyboard-response","56","103289","0.0-1.0-69.0-0.0","0","0","50952","","null","","","null","7","","","","","","","","","","","","","","","",""
"","ITI","","html-keyboard-response","57","104292","0.0-1.0-72.0","0","0","50952","","null","","","null","7","","","","","","","","","","","","","","","NaN",""
"","S1","","html-keyboard-response","58","104547","0.0-1.0-74.0","0","0","50952","","null","","","null","8","","","","","","","","","","","","","","","",""
"","ISI","","html-keyboard-response","59","105050","0.0-1.0-75.0","0","0","50952","","null","","","null","8","NaN","","","","","","","","","","","","","","",""
"","S2","","html-keyboard-response","60","105303","0.0-1.0-76.0","0","0","50952","","null","","","null","8","","NaN","","","","","","","","","","","","","",""
"","response","","html-keyboard-response","61","106042","0.0-1.0-77.0-0.0","0","0","50952","","737","","","68","8","","","1","8","training","adjacent","CB","3","2","L.jpg","R.jpg","1","0","0","",""
"","feedback","","html-keyboard-response","62","107044","0.0-1.0-78.0-0.0","0","0","50952","","null","","","null","8","","","","","","","","","","","","","","","",""
"","time_out","","html-keyboard-response","63","109047","0.0-1.0-80.0-0.0","0","0","50952","","null","","","null","8","","","","","","","","","","","","","","","",""
"","ITI","","html-keyboard-response","64","110049","0.0-1.0-81.0","0","0","50952","","null","","","null","8","","","","","","","","","","","","","","","NaN",""
"","S1","","html-keyboard-response","65","110302","0.0-1.0-83.0","0","0","50952","","null","","","null","9","","","","","","","","","","","","","","","",""
"","ISI","","html-keyboard-response","66","110805","0.0-1.0-84.0","0","0","50952","","null","","","null","9","NaN","","","","","","","","","","","","","","",""
"","S2","","html-keyboard-response","67","111059","0.0-1.0-85.0","0","0","50952","","null","","","null","9","","NaN","","","","","","","","","","","","","",""
"","response","","html-keyboard-response","68","112306","0.0-1.0-86.0-0.0","0","0","50952","","1245","","","68","9","","","1","9","training","adjacent","BC","2","3","R.jpg","L.jpg","1","1","1","",""
"","feedback","","html-keyboard-response","69","113308","0.0-1.0-87.0-0.0","0","0","50952","","null","","","null","9","","","","","","","","","","","","","","","",""
"","ITI","","html-keyboard-response","70","114312","0.0-1.0-90.0","0","0","50952","","null","","","null","9","","","","","","","","","","","","","","","NaN",""
"","S1","","html-keyboard-response","71","114564","0.0-1.0-92.0","0","0","50952","","null","","","null","10","","","","","","","","","","","","","","","",""
"","ISI","","html-keyboard-response","72","115066","0.0-1.0-93.0","0","0","50952","","null","","","null","10","NaN","","","","","","","","","","","","","","",""
"","S2","","html-keyboard-response","73","115319","0.0-1.0-94.0","0","0","50952","","null","","","null","10","","NaN","","","","","","","","","","","","","",""
"","response","","html-keyboard-response","74","115925","0.0-1.0-95.0-0.0","0","0","50952","","604","","","68","10","","","1","10","training","adjacent","FE","6","5","O.jpg","M.jpg","1","0","0","",""
"","feedback","","html-keyboard-response","75","116929","0.0-1.0-96.0-0.0","0","0","50952","","null","","","null","10","","","","","","","","","","","","","","","",""
"","time_out","","html-keyboard-response","76","118931","0.0-1.0-98.0-0.0","0","0","50952","","null","","","null","10","","","","","","","","","","","","","","","",""
"","ITI","","html-keyboard-response","77","119933","0.0-1.0-99.0","0","0","50952","","null","","","null","10","","","","","","","","","","","","","","","NaN",""
"","S1","","html-keyboard-response","78","120185","0.0-1.0-101.0","0","0","50952","","null","","","null","11","","","","","","","","","","","","","","","",""
"","ISI","","html-keyboard-response","79","120698","0.0-1.0-102.0","0","0","50952","","null","","","null","11","NaN","","","","","","","","","","","","","","",""
"","S2","","html-keyboard-response","80","120951","0.0-1.0-103.0","0","0","50952","","null","","","null","11","","NaN","","","","","","","","","","","","","",""
"","response","","html-keyboard-response","81","121548","0.0-1.0-104.0-0.0","0","0","50952","","595","","","68","11","","","1","11","training","adjacent","EF","5","6","M.jpg","O.jpg","1","1","1","",""
"","feedback","","html-keyboard-response","82","122550","0.0-1.0-105.0-0.0","0","0","50952","","null","","","null","11","","","","","","","","","","","","","","","",""
"","ITI","","html-keyboard-response","83","123554","0.0-1.0-108.0","0","0","50952","","null","","","null","11","","","","","","","","","","","","","","","NaN",""
"","S1","","html-keyboard-response","84","123809","0.0-1.0-110.0","0","0","50952","","null","","","null","12","","","","","","","","","","","","","","","",""
"","ISI","","html-keyboard-response","85","124313","0.0-1.0-111.0","0","0","50952","","null","","","null","12","NaN","","","","","","","","","","","","","","",""
"","S2","","html-keyboard-response","86","124568","0.0-1.0-112.0","0","0","50952","","null","","","null","12","","NaN","","","","","","","","","","","","","",""
"","response","","html-keyboard-response","87","125521","0.0-1.0-113.0-0.0","0","0","50952","","951","","","68","12","","","1","12","training","adjacent","AB","1","2","Q.jpg","R.jpg","1","1","1","",""
"","feedback","","html-keyboard-response","88","126526","0.0-1.0-114.0-0.0","0","0","50952","","null","","","null","12","","","","","","","","","","","","","","","",""
"","ITI","","html-keyboard-response","89","127531","0.0-1.0-117.0","0","0","50952","","null","","","null","12","","","","","","","","","","","","","","","NaN",""
"","S1","","html-keyboard-response","90","127786","0.0-1.0-119.0","0","0","50952","","null","","","null","13","","","","","","","","","","","","","","","",""
"","ISI","","html-keyboard-response","91","128291","0.0-1.0-120.0","0","0","50952","","null","","","null","13","NaN","","","","","","","","","","","","","","",""
"","S2","","html-keyboard-response","92","128546","0.0-1.0-121.0","0","0","50952","","null","","","null","13","","NaN","","","","","","","","","","","","","",""
"","response","","html-keyboard-response","93","129498","0.0-1.0-122.0-0.0","0","0","50952","","947","","","75","13","","","1","13","training","adjacent","CD","3","4","L.jpg","N.jpg","0","1","0","",""
"","feedback","","html-keyboard-response","94","130504","0.0-1.0-123.0-0.0","0","0","50952","","null","","","null","13","","","","","","","","","","","","","","","",""
"","time_out","","html-keyboard-response","95","132509","0.0-1.0-125.0-0.0","0","0","50952","","null","","","null","13","","","","","","","","","","","","","","","",""
"","ITI","","html-keyboard-response","96","133511","0.0-1.0-126.0","0","0","50952","","null","","","null","13","","","","","","","","","","","","","","","NaN",""
"","S1","","html-keyboard-response","97","133766","0.0-1.0-128.0","0","0","50952","","null","","","null","14","","","","","","","","","","","","","","","",""
"","ISI","","html-keyboard-response","98","134269","0.0-1.0-129.0","0","0","50952","","null","","","null","14","NaN","","","","","","","","","","","","","","",""
"","S2","","html-keyboard-response","99","134522","0.0-1.0-130.0","0","0","50952","","null","","","null","14","","NaN","","","","","","","","","","","","","",""
"","response","","html-keyboard-response","100","134979","0.0-1.0-131.0-0.0","0","0","50952","","455","","","75","14","","","1","14","training","adjacent","FE","6","5","O.jpg","M.jpg","0","0","1","",""
"","feedback","","html-keyboard-response","101","135982","0.0-1.0-132.0-0.0","0","0","50952","","null","","","null","14","","","","","","","","","","","","","","","",""
"","ITI","","html-keyboard-response","102","136986","0.0-1.0-135.0","0","0","50952","","null","","","null","14","","","","","","","","","","","","","","","NaN",""
"","S1","","html-keyboard-response","103","137239","0.0-1.0-137.0","0","0","50952","","null","","","null","15","","","","","","","","","","","","","","","",""
"","ISI","","html-keyboard-response","104","137751","0.0-1.0-138.0","0","0","50952","","null","","","null","15","NaN","","","","","","","","","","","","","","",""
"","S2","","html-keyboard-response","105","138006","0.0-1.0-139.0","0","0","50952","","null","","","null","15","","NaN","","","","","","","","","","","","","",""
"","response","","html-keyboard-response","106","138446","0.0-1.0-140.0-0.0","0","0","50952","","438","","","68","15","","","1","15","training","adjacent","ED","5","4","M.jpg","N.jpg","1","0","0","",""
"","feedback","","html-keyboard-response","107","139452","0.0-1.0-141.0-0.0","0","0","50952","","null","","","null","15","","","","","","","","","","","","","","","",""
"","time_out","","html-keyboard-response","108","141456","0.0-1.0-143.0-0.0","0","0","50952","","null","","","null","15","","","","","","","","","","","","","","","",""
"","ITI","","html-keyboard-response","109","142468","0.0-1.0-144.0","0","0","50952","","null","","","null","15","","","","","","","","","","","","","","","NaN",""
"","S1","","html-keyboard-response","110","142721","0.0-1.0-146.0","0","0","50952","","null","","","null","16","","","","","","","","","","","","","","","",""
"","ISI","","html-keyboard-response","111","143224","0.0-1.0-147.0","0","0","50952","","null","","","null","16","NaN","","","","","","","","","","","","","","",""
"","S2","","html-keyboard-response","112","143477","0.0-1.0-148.0","0","0","50952","","null","","","null","16","","NaN","","","","","","","","","","","","","",""
"","response","","html-keyboard-response","113","143992","0.0-1.0-149.0-0.0","0","0","50952","","513","","","75","16","","","1","16","training","adjacent","BA","2","1","R.jpg","Q.jpg","0","0","1","",""
"","feedback","","html-keyboard-response","114","144996","0.0-1.0-150.0-0.0","0","0","50952","","null","","","null","16","","","","","","","","","","","","","","","",""
"","ITI","","html-keyboard-response","115","145999","0.0-1.0-153.0","0","0","50952","","null","","","null","16","","","","","","","","","","","","","","","NaN",""
"","S1","","html-keyboard-response","116","146252","0.0-1.0-155.0","0","0","50952","","null","","","null","17","","","","","","","","","","","","","","","",""
"","ISI","","html-keyboard-response","117","146756","0.0-1.0-156.0","0","0","50952","","null","","","null","17","NaN","","","","","","","","","","","","","","",""
"","S2","","html-keyboard-response","118","147011","0.0-1.0-157.0","0","0","50952","","null","","","null","17","","NaN","","","","","","","","","","","","","",""
"","response","","html-keyboard-response","119","147710","0.0-1.0-158.0-0.0","0","0","50952","","698","","","75","17","","","1","17","training","adjacent","ED","5","4","M.jpg","N.jpg","0","0","1","",""
"","feedback","","html-keyboard-response","120","148721","0.0-1.0-159.0-0.0","0","0","50952","","null","","","null","17","","","","","","","","","","","","","","","",""
"","ITI","","html-keyboard-response","121","149723","0.0-1.0-162.0","0","0","50952","","null","","","null","17","","","","","","","","","","","","","","","NaN",""
"","S1","","html-keyboard-response","122","149976","0.0-1.0-164.0","0","0","50952","","null","","","null","18","","","","","","","","","","","","","","","",""
"","ISI","","html-keyboard-response","123","150481","0.0-1.0-165.0","0","0","50952","","null","","","null","18","NaN","","","","","","","","","","","","","","",""
"","S2","","html-keyboard-response","124","150735","0.0-1.0-166.0","0","0","50952","","null","","","null","18","","NaN","","","","","","","","","","","","","",""
"","response","","html-keyboard-response","125","151179","0.0-1.0-167.0-0.0","0","0","50952","","441","","","75","18","","","1","18","training","adjacent","CB","3","2","L.jpg","R.jpg","0","0","1","",""
"","feedback","","html-keyboard-response","126","152182","0.0-1.0-168.0-0.0","0","0","50952","","null","","","null","18","","","","","","","","","","","","","","","",""
"","ITI","","html-keyboard-response","127","153185","0.0-1.0-171.0","0","0","50952","","null","","","null","18","","","","","","","","","","","","","","","NaN",""
"","S1","","html-keyboard-response","128","153438","0.0-1.0-173.0","0","0","50952","","null","","","null","19","","","","","","","","","","","","","","","",""
"","ISI","","html-keyboard-response","129","153940","0.0-1.0-174.0","0","0","50952","","null","","","null","19","NaN","","","","","","","","","","","","","","",""
"","S2","","html-keyboard-response","130","154194","0.0-1.0-175.0","0","0","50952","","null","","","null","19","","NaN","","","","","","","","","","","","","",""
"","response","","html-keyboard-response","131","154768","0.0-1.0-176.0-0.0","0","0","50952","","572","","","75","19","","","1","19","training","adjacent","DE","4","5","N.jpg","M.jpg","0","1","0","",""
"","feedback","","html-keyboard-response","132","155772","0.0-1.0-177.0-0.0","0","0","50952","","null","","","null","19","","","","","","","","","","","","","","","",""
"","time_out","","html-keyboard-response","133","157774","0.0-1.0-179.0-0.0","0","0","50952","","null","","","null","19","","","","","","","","","","","","","","","",""
"","ITI","","html-keyboard-response","134","158777","0.0-1.0-180.0","0","0","50952","","null","","","null","19","","","","","","","","","","","","","","","NaN",""
"","S1","","html-keyboard-response","135","159033","0.0-1.0-182.0","0","0","50952","","null","","","null","20","","","","","","","","","","","","","","","",""
"","ISI","","html-keyboard-response","136","159536","0.0-1.0-183.0","0","0","50952","","null","","","null","20","NaN","","","","","","","","","","","","","","",""
"","S2","","html-keyboard-response","137","159790","0.0-1.0-184.0","0","0","50952","","null","","","null","20","","NaN","","","","","","","","","","","","","",""
"","response","","html-keyboard-response","138","160495","0.0-1.0-185.0-0.0","0","0","50952","","703","","","68","20","","","1","20","training","adjacent","FG","6","7","O.jpg","P.jpg","1","1","1","",""
"","feedback","","html-keyboard-response","139","161497","0.0-1.0-186.0-0.0","0","0","50952","","null","","","null","20","","","","","","","","","","","","","","","",""
"","ITI","","html-keyboard-response","140","162499","0.0-1.0-189.0","0","0","50952","","null","","","null","20","","","","","","","","","","","","","","","NaN",""
"","S1","","html-keyboard-response","141","162753","0.0-1.0-191.0","0","0","50952","","null","","","null","21","","","","","","","","","","","","","","","",""
"","ISI","","html-keyboard-response","142","163257","0.0-1.0-192.0","0","0","50952","","null","","","null","21","NaN","","","","","","","","","","","","","","",""
"","S2","","html-keyboard-response","143","163511","0.0-1.0-193.0","0","0","50952","","null","","","null","21","","NaN","","","","","","","","","","","","","",""
"","response","","html-keyboard-response","144","164160","0.0-1.0-194.0-0.0","0","0","50952","","647","","","68","21","","","1","21","training","adjacent","EF","5","6","M.jpg","O.jpg","1","1","1","",""
"","feedback","","html-keyboard-response","145","165166","0.0-1.0-195.0-0.0","0","0","50952","","null","","","null","21","","","","","","","","","","","","","","","",""
"","ITI","","html-keyboard-response","146","166171","0.0-1.0-198.0","0","0","50952","","null","","","null","21","","","","","","","","","","","","","","","NaN",""
"","S1","","html-keyboard-response","147","166426","0.0-1.0-200.0","0","0","50952","","null","","","null","22","","","","","","","","","","","","","","","",""
"","ISI","","html-keyboard-response","148","166931","0.0-1.0-201.0","0","0","50952","","null","","","null","22","NaN","","","","","","","","","","","","","","",""
"","S2","","html-keyboard-response","149","167186","0.0-1.0-202.0","0","0","50952","","null","","","null","22","","NaN","","","","","","","","","","","","","",""
"","response","","html-keyboard-response","150","167841","0.0-1.0-203.0-0.0","0","0","50952","","651","","","68","22","","","1","22","training","adjacent","GF","7","6","P.jpg","O.jpg","1","0","0","",""
"","feedback","","html-keyboard-response","151","168847","0.0-1.0-204.0-0.0","0","0","50952","","null","","","null","22","","","","","","","","","","","","","","","",""
"","time_out","","html-keyboard-response","152","170851","0.0-1.0-206.0-0.0","0","0","50952","","null","","","null","22","","","","","","","","","","","","","","","",""
"","ITI","","html-keyboard-response","153","171856","0.0-1.0-207.0","0","0","50952","","null","","","null","22","","","","","","","","","","","","","","","NaN",""
"","S1","","html-keyboard-response","154","172110","0.0-1.0-209.0","0","0","50952","","null","","","null","23","","","","","","","","","","","","","","","",""
"","ISI","","html-keyboard-response","155","172615","0.0-1.0-210.0","0","0","50952","","null","","","null","23","NaN","","","","","","","","","","","","","","",""
"","S2","","html-keyboard-response","156","172871","0.0-1.0-211.0","0","0","50952","","null","","","null","23","","NaN","","","","","","","","","","","","","",""
"","response","","html-keyboard-response","157","173794","0.0-1.0-212.0-0.0","0","0","50952","","921","","","68","23","","","1","23","training","adjacent","DC","4","3","N.jpg","L.jpg","1","0","0","",""
"","feedback","","html-keyboard-response","158","174797","0.0-1.0-213.0-0.0","0","0","50952","","null","","","null","23","","","","","","","","","","","","","","","",""
"","time_out","","html-keyboard-response","159","176801","0.0-1.0-215.0-0.0","0","0","50952","","null","","","null","23","","","","","","","","","","","","","","","",""
"","ITI","","html-keyboard-response","160","177803","0.0-1.0-216.0","0","0","50952","","null","","","null","23","","","","","","","","","","","","","","","NaN",""
"","S1","","html-keyboard-response","161","178056","0.0-1.0-218.0","0","0","50952","","null","","","null","24","","","","","","","","","","","","","","","",""
"","ISI","","html-keyboard-response","162","178559","0.0-1.0-219.0","0","0","50952","","null","","","null","24","NaN","","","","","","","","","","","","","","",""
"","S2","","html-keyboard-response","163","178812","0.0-1.0-220.0","0","0","50952","","null","","","null","24","","NaN","","","","","","","","","","","","","",""
"","response","","html-keyboard-response","164","179549","0.0-1.0-221.0-0.0","0","0","50952","","735","","","75","24","","","1","24","training","adjacent","GF","7","6","P.jpg","O.jpg","0","0","1","",""
"","feedback","","html-keyboard-response","165","180553","0.0-1.0-222.0-0.0","0","0","50952","","null","","","null","24","","","","","","","","","","","","","","","",""
"","ITI","","html-keyboard-response","166","181567","0.0-1.0-225.0","0","0","50952","","null","","","null","24","","","","","","","","","","","","","","","NaN",""
"","S1","","html-keyboard-response","167","181820","0.0-1.0-227.0","0","0","50952","","null","","","null","25","","","","","","","","","","","","","","","",""
"","ISI","","html-keyboard-response","168","182323","0.0-1.0-228.0","0","0","50952","","null","","","null","25","NaN","","","","","","","","","","","","","","",""
"","S2","","html-keyboard-response","169","182576","0.0-1.0-229.0","0","0","50952","","null","","","null","25","","NaN","","","","","","","","","","","","","",""
"","response","","html-keyboard-response","170","182923","0.0-1.0-230.0-0.0","0","0","50952","","344","","","75","25","","","1","25","training","adjacent","CB","3","2","L.jpg","R.jpg","0","0","1","",""
"","feedback","","html-keyboard-response","171","183929","0.0-1.0-231.0-0.0","0","0","50952","","null","","","null","25","","","","","","","","","","","","","","","",""
"","ITI","","html-keyboard-response","172","184932","0.0-1.0-234.0","0","0","50952","","null","","","null","25","","","","","","","","","","","","","","","NaN",""
"","S1","","html-keyboard-response","173","185185","0.0-1.0-236.0","0","0","50952","","null","","","null","26","","","","","","","","","","","","","","","",""
"","ISI","","html-keyboard-response","174","185688","0.0-1.0-237.0","0","0","50952","","null","","","null","26","NaN","","","","","","","","","","","","","","",""
"","S2","","html-keyboard-response","175","185943","0.0-1.0-238.0","0","0","50952","","null","","","null","26","","NaN","","","","","","","","","","","","","",""
"","response","","html-keyboard-response","176","186541","0.0-1.0-239.0-0.0","0","0","50952","","595","","","75","26","","","1","26","training","adjacent","FE","6","5","O.jpg","M.jpg","0","0","1","",""
"","feedback","","html-keyboard-response","177","187543","0.0-1.0-240.0-0.0","0","0","50952","","null","","","null","26","","","","","","","","","","","","","","","",""
"","ITI","","html-keyboard-response","178","188546","0.0-1.0-243.0","0","0","50952","","null","","","null","26","","","","","","","","","","","","","","","NaN",""
"","S1","","html-keyboard-response","179","188799","0.0-1.0-245.0","0","0","50952","","null","","","null","27","","","","","","","","","","","","","","","",""
"","ISI","","html-keyboard-response","180","189301","0.0-1.0-246.0","0","0","50952","","null","","","null","27","NaN","","","","","","","","","","","","","","",""
"","S2","","html-keyboard-response","181","189555","0.0-1.0-247.0","0","0","50952","","null","","","null","27","","NaN","","","","","","","","","","","","","",""
"","response","","html-keyboard-response","182","189910","0.0-1.0-248.0-0.0","0","0","50952","","353","","","68","27","","","1","27","training","adjacent","BC","2","3","R.jpg","L.jpg","1","1","1","",""
"","feedback","","html-keyboard-response","183","190913","0.0-1.0-249.0-0.0","0","0","50952","","null","","","null","27","","","","","","","","","","","","","","","",""
"","ITI","","html-keyboard-response","184","191915","0.0-1.0-252.0","0","0","50952","","null","","","null","27","","","","","","","","","","","","","","","NaN",""
"","S1","","html-keyboard-response","185","192168","0.0-1.0-254.0","0","0","50952","","null","","","null","28","","","","","","","","","","","","","","","",""
"","ISI","","html-keyboard-response","186","192671","0.0-1.0-255.0","0","0","50952","","null","","","null","28","NaN","","","","","","","","","","","","","","",""
"","S2","","html-keyboard-response","187","192924","0.0-1.0-256.0","0","0","50952","","null","","","null","28","","NaN","","","","","","","","","","","","","",""
"","response","","html-keyboard-response","188","193354","0.0-1.0-257.0-0.0","0","0","50952","","428","","","68","28","","","1","28","training","adjacent","BC","2","3","R.jpg","L.jpg","1","1","1","",""
"","feedback","","html-keyboard-response","189","194358","0.0-1.0-258.0-0.0","0","0","50952","","null","","","null","28","","","","","","","","","","","","","","","",""
"","ITI","","html-keyboard-response","190","195362","0.0-1.0-261.0","0","0","50952","","null","","","null","28","","","","","","","","","","","","","","","NaN",""
"","S1","","html-keyboard-response","191","195617","0.0-1.0-263.0","0","0","50952","","null","","","null","29","","","","","","","","","","","","","","","",""
"","ISI","","html-keyboard-response","192","196121","0.0-1.0-264.0","0","0","50952","","null","","","null","29","NaN","","","","","","","","","","","","","","",""
"","S2","","html-keyboard-response","193","196376","0.0-1.0-265.0","0","0","50952","","null","","","null","29","","NaN","","","","","","","","","","","","","",""
"","response","","html-keyboard-response","194","196888","0.0-1.0-266.0-0.0","0","0","50952","","509","","","75","29","","","1","29","training","adjacent","BA","2","1","R.jpg","Q.jpg","0","0","1","",""
"","feedback","","html-keyboard-response","195","197894","0.0-1.0-267.0-0.0","0","0","50952","","null","","","null","29","","","","","","","","","","","","","","","",""
"","ITI","","html-keyboard-response","196","198904","0.0-1.0-270.0","0","0","50952","","null","","","null","29","","","","","","","","","","","","","","","NaN",""
"","S1","","html-keyboard-response","197","199158","0.0-1.0-272.0","0","0","50952","","null","","","null","30","","","","","","","","","","","","","","","",""
"","ISI","","html-keyboard-response","198","199663","0.0-1.0-273.0","0","0","50952","","null","","","null","30","NaN","","","","","","","","","","","","","","",""
"","S2","","html-keyboard-response","199","199919","0.0-1.0-274.0","0","0","50952","","null","","","null","30","","NaN","","","","","","","","","","","","","",""
"","response","","html-keyboard-response","200","200231","0.0-1.0-275.0-0.0","0","0","50952","","308","","","75","30","","","1","30","training","adjacent","DE","4","5","N.jpg","M.jpg","0","1","0","",""
"","feedback","","html-keyboard-response","201","201235","0.0-1.0-276.0-0.0","0","0","50952","","null","","","null","30","","","","","","","","","","","","","","","",""
"","time_out","","html-keyboard-response","202","203237","0.0-1.0-278.0-0.0","0","0","50952","","null","","","null","30","","","","","","","","","","","","","","","",""
"","ITI","","html-keyboard-response","203","204240","0.0-1.0-279.0","0","0","50952","","null","","","null","30","","","","","","","","","","","","","","","NaN",""
"","S1","","html-keyboard-response","204","204492","0.0-1.0-281.0","0","0","50952","","null","","","null","31","","","","","","","","","","","","","","","",""
"","ISI","","html-keyboard-response","205","204995","0.0-1.0-282.0","0","0","50952","","null","","","null","31","NaN","","","","","","","","","","","","","","",""
"","S2","","html-keyboard-response","206","205248","0.0-1.0-283.0","0","0","50952","","null","","","null","31","","NaN","","","","","","","","","","","","","",""
"","response","","html-keyboard-response","207","205530","0.0-1.0-284.0-0.0","0","0","50952","","280","","","68","31","","","1","31","training","adjacent","BC","2","3","R.jpg","L.jpg","1","1","1","",""
"","feedback","","html-keyboard-response","208","206532","0.0-1.0-285.0-0.0","0","0","50952","","null","","","null","31","","","","","","","","","","","","","","","",""
"","ITI","","html-keyboard-response","209","207535","0.0-1.0-288.0","0","0","50952","","null","","","null","31","","","","","","","","","","","","","","","NaN",""
"","S1","","html-keyboard-response","210","207800","0.0-1.0-290.0","0","0","50952","","null","","","null","32","","","","","","","","","","","","","","","",""
"","ISI","","html-keyboard-response","211","208304","0.0-1.0-291.0","0","0","50952","","null","","","null","32","NaN","","","","","","","","","","","","","","",""
"","S2","","html-keyboard-response","212","208557","0.0-1.0-292.0","0","0","50952","","null","","","null","32","","NaN","","","","","","","","","","","","","",""
"","response","","html-keyboard-response","213","209362","0.0-1.0-293.0-0.0","0","0","50952","","804","","","75","32","","","1","32","training","adjacent","GF","7","6","P.jpg","O.jpg","0","0","1","",""
"","feedback","","html-keyboard-response","214","210365","0.0-1.0-294.0-0.0","0","0","50952","","null","","","null","32","","","","","","","","","","","","","","","",""
"","ITI","","html-keyboard-response","215","211367","0.0-1.0-297.0","0","0","50952","","null","","","null","32","","","","","","","","","","","","","","","NaN",""
"","S1","","html-keyboard-response","216","211620","0.0-1.0-299.0","0","0","50952","","null","","","null","33","","","","","","","","","","","","","","","",""
"","ISI","","html-keyboard-response","217","212123","0.0-1.0-300.0","0","0","50952","","null","","","null","33","NaN","","","","","","","","","","","","","","",""
"","S2","","html-keyboard-response","218","212376","0.0-1.0-301.0","0","0","50952","","null","","","null","33","","NaN","","","","","","","","","","","","","",""
"","response","","html-keyboard-response","219","213058","0.0-1.0-302.0-0.0","0","0","50952","","680","","","75","33","","","1","33","training","adjacent","DC","4","3","N.jpg","L.jpg","0","0","1","",""
"","feedback","","html-keyboard-response","220","214063","0.0-1.0-303.0-0.0","0","0","50952","","null","","","null","33","","","","","","","","","","","","","","","",""
"","ITI","","html-keyboard-response","221","215067","0.0-1.0-306.0","0","0","50952","","null","","","null","33","","","","","","","","","","","","","","","NaN",""
"","S1","","html-keyboard-response","222","215321","0.0-1.0-308.0","0","0","50952","","null","","","null","34","","","","","","","","","","","","","","","",""
"","ISI","","html-keyboard-response","223","215825","0.0-1.0-309.0","0","0","50952","","null","","","null","34","NaN","","","","","","","","","","","","","","",""
"","S2","","html-keyboard-response","224","216079","0.0-1.0-310.0","0","0","50952","","null","","","null","34","","NaN","","","","","","","","","","","","","",""
"","response","","html-keyboard-response","225","216889","0.0-1.0-311.0-0.0","0","0","50952","","808","","","68","34","","","1","34","training","adjacent","FG","6","7","O.jpg","P.jpg","1","1","1","",""
"","feedback","","html-keyboard-response","226","217895","0.0-1.0-312.0-0.0","0","0","50952","","null","","","null","34","","","","","","","","","","","","","","","",""
"","ITI","","html-keyboard-response","227","218911","0.0-1.0-315.0","0","0","50952","","null","","","null","34","","","","","","","","","","","","","","","NaN",""
"","S1","","html-keyboard-response","228","219167","0.0-1.0-317.0","0","0","50952","","null","","","null","35","","","","","","","","","","","","","","","",""
"","ISI","","html-keyboard-response","229","219670","0.0-1.0-318.0","0","0","50952","","null","","","null","35","NaN","","","","","","","","","","","","","","",""
"","S2","","html-keyboard-response","230","219925","0.0-1.0-319.0","0","0","50952","","null","","","null","35","","NaN","","","","","","","","","","","","","",""
"","response","","html-keyboard-response","231","220413","0.0-1.0-320.0-0.0","0","0","50952","","486","","","75","35","","","1","35","training","adjacent","DC","4","3","N.jpg","L.jpg","0","0","1","",""
"","feedback","","html-keyboard-response","232","221416","0.0-1.0-321.0-0.0","0","0","50952","","null","","","null","35","","","","","","","","","","","","","","","",""
"","ITI","","html-keyboard-response","233","222418","0.0-1.0-324.0","0","0","50952","","null","","","null","35","","","","","","","","","","","","","","","NaN",""
"","S1","","html-keyboard-response","234","222671","0.0-1.0-326.0","0","0","50952","","null","","","null","36","","","","","","","","","","","","","","","",""
"","ISI","","html-keyboard-response","235","223172","0.0-1.0-327.0","0","0","50952","","null","","","null","36","NaN","","","","","","","","","","","","","","",""
"","S2","","html-keyboard-response","236","223425","0.0-1.0-328.0","0","0","50952","","null","","","null","36","","NaN","","","","","","","","","","","","","",""
"","response","","html-keyboard-response","237","223923","0.0-1.0-329.0-0.0","0","0","50952","","496","","","68","36","","","1","36","training","adjacent","EF","5","6","M.jpg","O.jpg","1","1","1","",""
"","feedback","","html-keyboard-response","238","224927","0.0-1.0-330.0-0.0","0","0","50952","","null","","","null","36","","","","","","","","","","","","","","","",""
"","ITI","","html-keyboard-response","239","225932","0.0-1.0-333.0","0","0","50952","","null","","","null","36","","","","","","","","","","","","","","","NaN",""
"","S1","","html-keyboard-response","240","226187","0.0-1.0-335.0","0","0","50952","","null","","","null","37","","","","","","","","","","","","","","","",""
"","ISI","","html-keyboard-response","241","226692","0.0-1.0-336.0","0","0","50952","","null","","","null","37","NaN","","","","","","","","","","","","","","",""
"","S2","","html-keyboard-response","242","226947","0.0-1.0-337.0","0","0","50952","","null","","","null","37","","NaN","","","","","","","","","","","","","",""
"","response","","html-keyboard-response","243","227580","0.0-1.0-338.0-0.0","0","0","50952","","630","","","68","37","","","1","37","training","adjacent","AB","1","2","Q.jpg","R.jpg","1","1","1","",""
"","feedback","","html-keyboard-response","244","228585","0.0-1.0-339.0-0.0","0","0","50952","","null","","","null","37","","","","","","","","","","","","","","","",""
"","ITI","","html-keyboard-response","245","229589","0.0-1.0-342.0","0","0","50952","","null","","","null","37","","","","","","","","","","","","","","","NaN",""
"","S1","","html-keyboard-response","246","229844","0.0-1.0-344.0","0","0","50952","","null","","","null","38","","","","","","","","","","","","","","","",""
"","ISI","","html-keyboard-response","247","230348","0.0-1.0-345.0","0","0","50952","","null","","","null","38","NaN","","","","","","","","","","","","","","",""
"","S2","","html-keyboard-response","248","230602","0.0-1.0-346.0","0","0","50952","","null","","","null","38","","NaN","","","","","","","","","","","","","",""
"","response","","html-keyboard-response","249","230989","0.0-1.0-347.0-0.0","0","0","50952","","383","","","75","38","","","1","38","training","adjacent","DC","4","3","N.jpg","L.jpg","0","0","1","",""
"","feedback","","html-keyboard-response","250","231994","0.0-1.0-348.0-0.0","0","0","50952","","null","","","null","38","","","","","","","","","","","","","","","",""
"","ITI","","html-keyboard-response","251","232999","0.0-1.0-351.0","0","0","50952","","null","","","null","38","","","","","","","","","","","","","","","NaN",""
"","S1","","html-keyboard-response","252","233255","0.0-1.0-353.0","0","0","50952","","null","","","null","39","","","","","","","","","","","","","","","",""
"","ISI","","html-keyboard-response","253","233764","0.0-1.0-354.0","0","0","50952","","null","","","null","39","NaN","","","","","","","","","","","","","","",""
"","S2","","html-keyboard-response","254","234020","0.0-1.0-355.0","0","0","50952","","null","","","null","39","","NaN","","","","","","","","","","","","","",""
"","response","","html-keyboard-response","255","234407","0.0-1.0-356.0-0.0","0","0","50952","","383","","","68","39","","","1","39","training","adjacent","CD","3","4","L.jpg","N.jpg","1","1","1","",""
"","feedback","","html-keyboard-response","256","235410","0.0-1.0-357.0-0.0","0","0","50952","","null","","","null","39","","","","","","","","","","","","","","","",""
"","ITI","","html-keyboard-response","257","236415","0.0-1.0-360.0","0","0","50952","","null","","","null","39","","","","","","","","","","","","","","","NaN",""
"","S1","","html-keyboard-response","258","236671","0.0-1.0-362.0","0","0","50952","","null","","","null","40","","","","","","","","","","","","","","","",""
"","ISI","","html-keyboard-response","259","237175","0.0-1.0-363.0","0","0","50952","","null","","","null","40","NaN","","","","","","","","","","","","","","",""
"","S2","","html-keyboard-response","260","237428","0.0-1.0-364.0","0","0","50952","","null","","","null","40","","NaN","","","","","","","","","","","","","",""
"","response","","html-keyboard-response","261","237977","0.0-1.0-365.0-0.0","0","0","50952","","546","","","68","40","","","1","40","training","adjacent","ED","5","4","M.jpg","N.jpg","1","0","0","",""
"","feedback","","html-keyboard-response","262","238984","0.0-1.0-366.0-0.0","0","0","50952","","null","","","null","40","","","","","","","","","","","","","","","",""
"","time_out","","html-keyboard-response","263","240988","0.0-1.0-368.0-0.0","0","0","50952","","null","","","null","40","","","","","","","","","","","","","","","",""
"","ITI","","html-keyboard-response","264","241993","0.0-1.0-369.0","0","0","50952","","null","","","null","40","","","","","","","","","","","","","","","NaN",""
"","S1","","html-keyboard-response","265","242248","0.0-1.0-371.0","0","0","50952","","null","","","null","41","","","","","","","","","","","","","","","",""
"","ISI","","html-keyboard-response","266","242753","0.0-1.0-372.0","0","0","50952","","null","","","null","41","NaN","","","","","","","","","","","","","","",""
"","S2","","html-keyboard-response","267","243008","0.0-1.0-373.0","0","0","50952","","null","","","null","41","","NaN","","","","","","","","","","","","","",""
"","response","","html-keyboard-response","268","243528","0.0-1.0-374.0-0.0","0","0","50952","","518","","","75","41","","","1","41","training","adjacent","ED","5","4","M.jpg","N.jpg","0","0","1","",""
"","feedback","","html-keyboard-response","269","244532","0.0-1.0-375.0-0.0","0","0","50952","","null","","","null","41","","","","","","","","","","","","","","","",""
"","ITI","","html-keyboard-response","270","245535","0.0-1.0-378.0","0","0","50952","","null","","","null","41","","","","","","","","","","","","","","","NaN",""
"","S1","","html-keyboard-response","271","245788","0.0-1.0-380.0","0","0","50952","","null","","","null","42","","","","","","","","","","","","","","","",""
"","ISI","","html-keyboard-response","272","246292","0.0-1.0-381.0","0","0","50952","","null","","","null","42","NaN","","","","","","","","","","","","","","",""
"","S2","","html-keyboard-response","273","246547","0.0-1.0-382.0","0","0","50952","","null","","","null","42","","NaN","","","","","","","","","","","","","",""
"","response","","html-keyboard-response","274","246858","0.0-1.0-383.0-0.0","0","0","50952","","310","","","68","42","","","1","42","training","adjacent","AB","1","2","Q.jpg","R.jpg","1","1","1","",""
"","feedback","","html-keyboard-response","275","247864","0.0-1.0-384.0-0.0","0","0","50952","","null","","","null","42","","","","","","","","","","","","","","","",""
"","ITI","","html-keyboard-response","276","248868","0.0-1.0-387.0","0","0","50952","","null","","","null","42","","","","","","","","","","","","","","","NaN",""
"","S1","","html-keyboard-response","277","249121","0.0-1.0-389.0","0","0","50952","","null","","","null","43","","","","","","","","","","","","","","","",""
"","ISI","","html-keyboard-response","278","249624","0.0-1.0-390.0","0","0","50952","","null","","","null","43","NaN","","","","","","","","","","","","","","",""
"","S2","","html-keyboard-response","279","249878","0.0-1.0-391.0","0","0","50952","","null","","","null","43","","NaN","","","","","","","","","","","","","",""
"","response","","html-keyboard-response","280","250349","0.0-1.0-392.0-0.0","0","0","50952","","467","","","68","43","","","1","43","training","adjacent","FG","6","7","O.jpg","P.jpg","1","1","1","",""
"","feedback","","html-keyboard-response","281","251354","0.0-1.0-393.0-0.0","0","0","50952","","null","","","null","43","","","","","","","","","","","","","","","",""
"","ITI","","html-keyboard-response","282","252358","0.0-1.0-396.0","0","0","50952","","null","","","null","43","","","","","","","","","","","","","","","NaN",""
"","S1","","html-keyboard-response","283","252611","0.0-1.0-398.0","0","0","50952","","null","","","null","44","","","","","","","","","","","","","","","",""
"","ISI","","html-keyboard-response","284","253115","0.0-1.0-399.0","0","0","50952","","null","","","null","44","NaN","","","","","","","","","","","","","","",""
"","S2","","html-keyboard-response","285","253370","0.0-1.0-400.0","0","0","50952","","null","","","null","44","","NaN","","","","","","","","","","","","","",""
"","response","","html-keyboard-response","286","254145","0.0-1.0-401.0-0.0","0","0","50952","","770","","","68","44","","","1","44","training","adjacent","CD","3","4","L.jpg","N.jpg","1","1","1","",""
"","feedback","","html-keyboard-response","287","255151","0.0-1.0-402.0-0.0","0","0","50952","","null","","","null","44","","","","","","","","","","","","","","","",""
"","ITI","","html-keyboard-response","288","256155","0.0-1.0-405.0","0","0","50952","","null","","","null","44","","","","","","","","","","","","","","","NaN",""
"","S1","","html-keyboard-response","289","256416","0.0-1.0-407.0","0","0","50952","","null","","","null","45","","","","","","","","","","","","","","","",""
"","ISI","","html-keyboard-response","290","256919","0.0-1.0-408.0","0","0","50952","","null","","","null","45","NaN","","","","","","","","","","","","","","",""
"","S2","","html-keyboard-response","291","257184","0.0-1.0-409.0","0","0","50952","","null","","","null","45","","NaN","","","","","","","","","","","","","",""
"","response","","html-keyboard-response","292","258116","0.0-1.0-410.0-0.0","0","0","50952","","930","","","75","45","","","1","45","training","adjacent","CB","3","2","L.jpg","R.jpg","0","0","1","",""
"","feedback","","html-keyboard-response","293","259119","0.0-1.0-411.0-0.0","0","0","50952","","null","","","null","45","","","","","","","","","","","","","","","",""
"","ITI","","html-keyboard-response","294","260122","0.0-1.0-414.0","0","0","50952","","null","","","null","45","","","","","","","","","","","","","","","NaN",""
"","S1","","html-keyboard-response","295","260375","0.0-1.0-416.0","0","0","50952","","null","","","null","46","","","","","","","","","","","","","","","",""
"","ISI","","html-keyboard-response","296","260879","0.0-1.0-417.0","0","0","50952","","null","","","null","46","NaN","","","","","","","","","","","","","","",""
"","S2","","html-keyboard-response","297","261132","0.0-1.0-418.0","0","0","50952","","null","","","null","46","","NaN","","","","","","","","","","","","","",""
"","response","","html-keyboard-response","298","261894","0.0-1.0-419.0-0.0","0","0","50952","","760","","","75","46","","","1","46","training","adjacent","DE","4","5","N.jpg","M.jpg","0","1","0","",""
"","feedback","","html-keyboard-response","299","262898","0.0-1.0-420.0-0.0","0","0","50952","","null","","","null","46","","","","","","","","","","","","","","","",""
"","time_out","","html-keyboard-response","300","264903","0.0-1.0-422.0-0.0","0","0","50952","","null","","","null","46","","","","","","","","","","","","","","","",""
"","ITI","","html-keyboard-response","301","265907","0.0-1.0-423.0","0","0","50952","","null","","","null","46","","","","","","","","","","","","","","","NaN",""
"","S1","","html-keyboard-response","302","266162","0.0-1.0-425.0","0","0","50952","","null","","","null","47","","","","","","","","","","","","","","","",""
"","ISI","","html-keyboard-response","303","266666","0.0-1.0-426.0","0","0","50952","","null","","","null","47","NaN","","","","","","","","","","","","","","",""
"","S2","","html-keyboard-response","304","266921","0.0-1.0-427.0","0","0","50952","","null","","","null","47","","NaN","","","","","","","","","","","","","",""
"","response","","html-keyboard-response","305","267340","0.0-1.0-428.0-0.0","0","0","50952","","415","","","68","47","","","1","47","training","adjacent","AB","1","2","Q.jpg","R.jpg","1","1","1","",""
"","feedback","","html-keyboard-response","306","268343","0.0-1.0-429.0-0.0","0","0","50952","","null","","","null","47","","","","","","","","","","","","","","","",""
"","ITI","","html-keyboard-response","307","269345","0.0-1.0-432.0","0","0","50952","","null","","","null","47","","","","","","","","","","","","","","","NaN",""
"","block_over","","html-keyboard-response","308","272230","0.0-1.0-433.0-0.0","0","0","50952","","2881","","","32","47","","","","","","","","","","","","","","","",""
"","S1","","html-keyboard-response","309","272482","0.0-1.0-434.0","0","0","50952","","null","","","null","48","","","","","","","","","","","","","","","",""
"","ISI","","html-keyboard-response","310","272984","0.0-1.0-435.0","0","0","50952","","null","","","null","48","NaN","","","","","","","","","","","","","","",""
"","S2","","html-keyboard-response","311","273237","0.0-1.0-436.0","0","0","50952","","null","","","null","48","","NaN","","","","","","","","","","","","","",""
"","response","","html-keyboard-response","312","274061","0.0-1.0-437.0-0.0","0","0","50952","","823","","","68","48","","","2","48","training","adjacent","EF","5","6","M.jpg","O.jpg","1","1","1","",""
"","feedback","","html-keyboard-response","313","275064","0.0-1.0-438.0-0.0","0","0","50952","","null","","","null","48","","","","","","","","","","","","","","","",""
"","ITI","","html-keyboard-response","314","276067","0.0-1.0-441.0","0","0","50952","","null","","","null","48","","","","","","","","","","","","","","","NaN",""
"","S1","","html-keyboard-response","315","276319","0.0-1.0-443.0","0","0","50952","","null","","","null","49","","","","","","","","","","","","","","","",""
"","ISI","","html-keyboard-response","316","276822","0.0-1.0-444.0","0","0","50952","","null","","","null","49","NaN","","","","","","","","","","","","","","",""
"","S2","","html-keyboard-response","317","277075","0.0-1.0-445.0","0","0","50952","","null","","","null","49","","NaN","","","","","","","","","","","","","",""
"","response","","html-keyboard-response","318","277845","0.0-1.0-446.0-0.0","0","0","50952","","767","","","68","49","","","2","49","training","adjacent","ED","5","4","M.jpg","N.jpg","1","0","0","",""
"","feedback","","html-keyboard-response","319","278850","0.0-1.0-447.0-0.0","0","0","50952","","null","","","null","49","","","","","","","","","","","","","","","",""
"","time_out","","html-keyboard-response","320","280853","0.0-1.0-449.0-0.0","0","0","50952","","null","","","null","49","","","","","","","","","","","","","","","",""
"","ITI","","html-keyboard-response","321","281856","0.0-1.0-450.0","0","0","50952","","null","","","null","49","","","","","","","","","","","","","","","NaN",""
"","S1","","html-keyboard-response","322","282124","0.0-1.0-452.0","0","0","50952","","null","","","null","50","","","","","","","","","","","","","","","",""
"","ISI","","html-keyboard-response","323","282639","0.0-1.0-453.0","0","0","50952","","null","","","null","50","NaN","","","","","","","","","","","","","","",""
"","S2","","html-keyboard-response","324","282893","0.0-1.0-454.0","0","0","50952","","null","","","null","50","","NaN","","","","","","","","","","","","","",""
"","response","","html-keyboard-response","325","283999","0.0-1.0-455.0-0.0","0","0","50952","","1104","","","75","50","","","2","50","training","adjacent","CB","3","2","L.jpg","R.jpg","0","0","1","",""
"","feedback","","html-keyboard-response","326","285002","0.0-1.0-456.0-0.0","0","0","50952","","null","","","null","50","","","","","","","","","","","","","","","",""
"","ITI","","html-keyboard-response","327","286006","0.0-1.0-459.0","0","0","50952","","null","","","null","50","","","","","","","","","","","","","","","NaN",""
"","S1","","html-keyboard-response","328","286259","0.0-1.0-461.0","0","0","50952","","null","","","null","51","","","","","","","","","","","","","","","",""
"","ISI","","html-keyboard-response","329","286763","0.0-1.0-462.0","0","0","50952","","null","","","null","51","NaN","","","","","","","","","","","","","","",""
"","S2","","html-keyboard-response","330","287015","0.0-1.0-463.0","0","0","50952","","null","","","null","51","","NaN","","","","","","","","","","","","","",""
"","response","","html-keyboard-response","331","287900","0.0-1.0-464.0-0.0","0","0","50952","","883","","","68","51","","","2","51","training","adjacent","DE","4","5","N.jpg","M.jpg","1","1","1","",""
"","feedback","","html-keyboard-response","332","288905","0.0-1.0-465.0-0.0","0","0","50952","","null","","","null","51","","","","","","","","","","","","","","","",""
"","ITI","","html-keyboard-response","333","289909","0.0-1.0-468.0","0","0","50952","","null","","","null","51","","","","","","","","","","","","","","","NaN",""
"","S1","","html-keyboard-response","334","290164","0.0-1.0-470.0","0","0","50952","","null","","","null","52","","","","","","","","","","","","","","","",""
"","ISI","","html-keyboard-response","335","290669","0.0-1.0-471.0","0","0","50952","","null","","","null","52","NaN","","","","","","","","","","","","","","",""
"","S2","","html-keyboard-response","336","290925","0.0-1.0-472.0","0","0","50952","","null","","","null","52","","NaN","","","","","","","","","","","","","",""
"","response","","html-keyboard-response","337","291296","0.0-1.0-473.0-0.0","0","0","50952","","367","","","68","52","","","2","52","training","adjacent","FG","6","7","O.jpg","P.jpg","1","1","1","",""
"","feedback","","html-keyboard-response","338","292301","0.0-1.0-474.0-0.0","0","0","50952","","null","","","null","52","","","","","","","","","","","","","","","",""
"","ITI","","html-keyboard-response","339","293307","0.0-1.0-477.0","0","0","50952","","null","","","null","52","","","","","","","","","","","","","","","NaN",""
"","S1","","html-keyboard-response","340","293562","0.0-1.0-479.0","0","0","50952","","null","","","null","53","","","","","","","","","","","","","","","",""
"","ISI","","html-keyboard-response","341","294067","0.0-1.0-480.0","0","0","50952","","null","","","null","53","NaN","","","","","","","","","","","","","","",""
"","S2","","html-keyboard-response","342","294324","0.0-1.0-481.0","0","0","50952","","null","","","null","53","","NaN","","","","","","","","","","","","","",""
"","response","","html-keyboard-response","343","294926","0.0-1.0-482.0-0.0","0","0","50952","","598","","","75","53","","","2","53","training","adjacent","GF","7","6","P.jpg","O.jpg","0","0","1","",""
"","feedback","","html-keyboard-response","344","295932","0.0-1.0-483.0-0.0","0","0","50952","","null","","","null","53","","","","","","","","","","","","","","","",""
"","ITI","","html-keyboard-response","345","296938","0.0-1.0-486.0","0","0","50952","","null","","","null","53","","","","","","","","","","","","","","","NaN",""
"","S1","","html-keyboard-response","346","297193","0.0-1.0-488.0","0","0","50952","","null","","","null","54","","","","","","","","","","","","","","","",""
"","ISI","","html-keyboard-response","347","297698","0.0-1.0-489.0","0","0","50952","","null","","","null","54","NaN","","","","","","","","","","","","","","",""
"","S2","","html-keyboard-response","348","297952","0.0-1.0-490.0","0","0","50952","","null","","","null","54","","NaN","","","","","","","","","","","","","",""
"","response","","html-keyboard-response","349","298324","0.0-1.0-491.0-0.0","0","0","50952","","368","","","68","54","","","2","54","training","adjacent","BC","2","3","R.jpg","L.jpg","1","1","1","",""
"","feedback","","html-keyboard-response","350","299330","0.0-1.0-492.0-0.0","0","0","50952","","null","","","null","54","","","","","","","","","","","","","","","",""
"","ITI","","html-keyboard-response","351","300336","0.0-1.0-495.0","0","0","50952","","null","","","null","54","","","","","","","","","","","","","","","NaN",""
"","S1","","html-keyboard-response","352","300591","0.0-1.0-497.0","0","0","50952","","null","","","null","55","","","","","","","","","","","","","","","",""
"","ISI","","html-keyboard-response","353","301096","0.0-1.0-498.0","0","0","50952","","null","","","null","55","NaN","","","","","","","","","","","","","","",""
"","S2","","html-keyboard-response","354","301351","0.0-1.0-499.0","0","0","50952","","null","","","null","55","","NaN","","","","","","","","","","","","","",""
"","response","","html-keyboard-response","355","301776","0.0-1.0-500.0-0.0","0","0","50952","","421","","","68","55","","","2","55","training","adjacent","CB","3","2","L.jpg","R.jpg","1","0","0","",""
"","feedback","","html-keyboard-response","356","302780","0.0-1.0-501.0-0.0","0","0","50952","","null","","","null","55","","","","","","","","","","","","","","","",""
"","time_out","","html-keyboard-response","357","304786","0.0-1.0-503.0-0.0","0","0","50952","","null","","","null","55","","","","","","","","","","","","","","","",""
"","ITI","","html-keyboard-response","358","305792","0.0-1.0-504.0","0","0","50952","","null","","","null","55","","","","","","","","","","","","","","","NaN",""
"","S1","","html-keyboard-response","359","306047","0.0-1.0-506.0","0","0","50952","","null","","","null","56","","","","","","","","","","","","","","","",""
"","ISI","","html-keyboard-response","360","306552","0.0-1.0-507.0","0","0","50952","","null","","","null","56","NaN","","","","","","","","","","","","","","",""
"","S2","","html-keyboard-response","361","306807","0.0-1.0-508.0","0","0","50952","","null","","","null","56","","NaN","","","","","","","","","","","","","",""
"","response","","html-keyboard-response","362","307502","0.0-1.0-509.0-0.0","0","0","50952","","691","","","75","56","","","2","56","training","adjacent","CD","3","4","L.jpg","N.jpg","0","1","0","",""
"","feedback","","html-keyboard-response","363","308510","0.0-1.0-510.0-0.0","0","0","50952","","null","","","null","56","","","","","","","","","","","","","","","",""
"","time_out","","html-keyboard-response","364","310513","0.0-1.0-512.0-0.0","0","0","50952","","null","","","null","56","","","","","","","","","","","","","","","",""
"","ITI","","html-keyboard-response","365","311518","0.0-1.0-513.0","0","0","50952","","null","","","null","56","","","","","","","","","","","","","","","NaN",""
"","S1","","html-keyboard-response","366","311775","0.0-1.0-515.0","0","0","50952","","null","","","null","57","","","","","","","","","","","","","","","",""
"","ISI","","html-keyboard-response","367","312279","0.0-1.0-516.0","0","0","50952","","null","","","null","57","NaN","","","","","","","","","","","","","","",""
"","S2","","html-keyboard-response","368","312532","0.0-1.0-517.0","0","0","50952","","null","","","null","57","","NaN","","","","","","","","","","","","","",""
"","response","","html-keyboard-response","369","313240","0.0-1.0-518.0-0.0","0","0","50952","","705","","","68","57","","","2","57","training","adjacent","CD","3","4","L.jpg","N.jpg","1","1","1","",""
"","feedback","","html-keyboard-response","370","314246","0.0-1.0-519.0-0.0","0","0","50952","","null","","","null","57","","","","","","","","","","","","","","","",""
"","ITI","","html-keyboard-response","371","315250","0.0-1.0-522.0","0","0","50952","","null","","","null","57","","","","","","","","","","","","","","","NaN",""
"","S1","","html-keyboard-response","372","315505","0.0-1.0-524.0","0","0","50952","","null","","","null","58","","","","","","","","","","","","","","","",""
"","ISI","","html-keyboard-response","373","316008","0.0-1.0-525.0","0","0","50952","","null","","","null","58","NaN","","","","","","","","","","","","","","",""
"","S2","","html-keyboard-response","374","316263","0.0-1.0-526.0","0","0","50952","","null","","","null","58","","NaN","","","","","","","","","","","","","",""
"","response","","html-keyboard-response","375","317107","0.0-1.0-527.0-0.0","0","0","50952","","840","","","75","58","","","2","58","training","adjacent","BC","2","3","R.jpg","L.jpg","0","1","0","",""
"","feedback","","html-keyboard-response","376","318111","0.0-1.0-528.0-0.0","0","0","50952","","null","","","null","58","","","","","","","","","","","","","","","",""
"","time_out","","html-keyboard-response","377","320117","0.0-1.0-530.0-0.0","0","0","50952","","null","","","null","58","","","","","","","","","","","","","","","",""
"","ITI","","html-keyboard-response","378","321121","0.0-1.0-531.0","0","0","50952","","null","","","null","58","","","","","","","","","","","","","","","NaN",""
"","S1","","html-keyboard-response","379","321377","0.0-1.0-533.0","0","0","50952","","null","","","null","59","","","","","","","","","","","","","","","",""
"","ISI","","html-keyboard-response","380","321881","0.0-1.0-534.0","0","0","50952","","null","","","null","59","NaN","","","","","","","","","","","","","","",""
"","S2","","html-keyboard-response","381","322136","0.0-1.0-535.0","0","0","50952","","null","","","null","59","","NaN","","","","","","","","","","","","","",""
"","response","","html-keyboard-response","382","322554","0.0-1.0-536.0-0.0","0","0","50952","","416","","","68","59","","","2","59","training","adjacent","FG","6","7","O.jpg","P.jpg","1","1","1","",""
"","feedback","","html-keyboard-response","383","323558","0.0-1.0-537.0-0.0","0","0","50952","","null","","","null","59","","","","","","","","","","","","","","","",""
"","ITI","","html-keyboard-response","384","324563","0.0-1.0-540.0","0","0","50952","","null","","","null","59","","","","","","","","","","","","","","","NaN",""
"","S1","","html-keyboard-response","385","324817","0.0-1.0-542.0","0","0","50952","","null","","","null","60","","","","","","","","","","","","","","","",""
"","ISI","","html-keyboard-response","386","325321","0.0-1.0-543.0","0","0","50952","","null","","","null","60","NaN","","","","","","","","","","","","","","",""
"","S2","","html-keyboard-response","387","325575","0.0-1.0-544.0","0","0","50952","","null","","","null","60","","NaN","","","","","","","","","","","","","",""
"","response","","html-keyboard-response","388","327060","0.0-1.0-545.0-0.0","0","0","50952","","1482","","","68","60","","","2","60","training","adjacent","BC","2","3","R.jpg","L.jpg","1","1","1","",""
"","feedback","","html-keyboard-response","389","328065","0.0-1.0-546.0-0.0","0","0","50952","","null","","","null","60","","","","","","","","","","","","","","","",""
"","ITI","","html-keyboard-response","390","329070","0.0-1.0-549.0","0","0","50952","","null","","","null","60","","","","","","","","","","","","","","","NaN",""
"","S1","","html-keyboard-response","391","329325","0.0-1.0-551.0","0","0","50952","","null","","","null","61","","","","","","","","","","","","","","","",""
"","ISI","","html-keyboard-response","392","329842","0.0-1.0-552.0","0","0","50952","","null","","","null","61","NaN","","","","","","","","","","","","","","",""
"","S2","","html-keyboard-response","393","330097","0.0-1.0-553.0","0","0","50952","","null","","","null","61","","NaN","","","","","","","","","","","","","",""
"","response","","html-keyboard-response","394","330434","0.0-1.0-554.0-0.0","0","0","50952","","334","","","68","61","","","2","61","training","adjacent","AB","1","2","Q.jpg","R.jpg","1","1","1","",""
"","feedback","","html-keyboard-response","395","331445","0.0-1.0-555.0-0.0","0","0","50952","","null","","","null","61","","","","","","","","","","","","","","","",""
"","ITI","","html-keyboard-response","396","332448","0.0-1.0-558.0","0","0","50952","","null","","","null","61","","","","","","","","","","","","","","","NaN",""
"","S1","","html-keyboard-response","397","332699","0.0-1.0-560.0","0","0","50952","","null","","","null","62","","","","","","","","","","","","","","","",""
"","ISI","","html-keyboard-response","398","333203","0.0-1.0-561.0","0","0","50952","","null","","","null","62","NaN","","","","","","","","","","","","","","",""
"","S2","","html-keyboard-response","399","333459","0.0-1.0-562.0","0","0","50952","","null","","","null","62","","NaN","","","","","","","","","","","","","",""
"","response","","html-keyboard-response","400","333767","0.0-1.0-563.0-0.0","0","0","50952","","304","","","68","62","","","2","62","training","adjacent","AB","1","2","Q.jpg","R.jpg","1","1","1","",""
"","feedback","","html-keyboard-response","401","334772","0.0-1.0-564.0-0.0","0","0","50952","","null","","","null","62","","","","","","","","","","","","","","","",""
"","ITI","","html-keyboard-response","402","335777","0.0-1.0-567.0","0","0","50952","","null","","","null","62","","","","","","","","","","","","","","","NaN",""
"","S1","","html-keyboard-response","403","336032","0.0-1.0-569.0","0","0","50952","","null","","","null","63","","","","","","","","","","","","","","","",""
"","ISI","","html-keyboard-response","404","336538","0.0-1.0-570.0","0","0","50952","","null","","","null","63","NaN","","","","","","","","","","","","","","",""
"","S2","","html-keyboard-response","405","336793","0.0-1.0-571.0","0","0","50952","","null","","","null","63","","NaN","","","","","","","","","","","","","",""
"","response","","html-keyboard-response","406","337304","0.0-1.0-572.0-0.0","0","0","50952","","507","","","68","63","","","2","63","training","adjacent","FG","6","7","O.jpg","P.jpg","1","1","1","",""
"","feedback","","html-keyboard-response","407","338309","0.0-1.0-573.0-0.0","0","0","50952","","null","","","null","63","","","","","","","","","","","","","","","",""
"","ITI","","html-keyboard-response","408","339314","0.0-1.0-576.0","0","0","50952","","null","","","null","63","","","","","","","","","","","","","","","NaN",""
"","S1","","html-keyboard-response","409","339569","0.0-1.0-578.0","0","0","50952","","null","","","null","64","","","","","","","","","","","","","","","",""
"","ISI","","html-keyboard-response","410","340074","0.0-1.0-579.0","0","0","50952","","null","","","null","64","NaN","","","","","","","","","","","","","","",""
"","S2","","html-keyboard-response","411","340329","0.0-1.0-580.0","0","0","50952","","null","","","null","64","","NaN","","","","","","","","","","","","","",""
"","response","","html-keyboard-response","412","341375","0.0-1.0-581.0-0.0","0","0","50952","","1042","","","75","64","","","2","64","training","adjacent","CD","3","4","L.jpg","N.jpg","0","1","0","",""
"","feedback","","html-keyboard-response","413","342382","0.0-1.0-582.0-0.0","0","0","50952","","null","","","null","64","","","","","","","","","","","","","","","",""
"","time_out","","html-keyboard-response","414","344387","0.0-1.0-584.0-0.0","0","0","50952","","null","","","null","64","","","","","","","","","","","","","","","",""
"","ITI","","html-keyboard-response","415","345392","0.0-1.0-585.0","0","0","50952","","null","","","null","64","","","","","","","","","","","","","","","NaN",""
"","S1","","html-keyboard-response","416","345648","0.0-1.0-587.0","0","0","50952","","null","","","null","65","","","","","","","","","","","","","","","",""
"","ISI","","html-keyboard-response","417","346153","0.0-1.0-588.0","0","0","50952","","null","","","null","65","NaN","","","","","","","","","","","","","","",""
"","S2","","html-keyboard-response","418","346408","0.0-1.0-589.0","0","0","50952","","null","","","null","65","","NaN","","","","","","","","","","","","","",""
"","response","","html-keyboard-response","419","346910","0.0-1.0-590.0-0.0","0","0","50952","","500","","","68","65","","","2","65","training","adjacent","ED","5","4","M.jpg","N.jpg","1","0","0","",""
"","feedback","","html-keyboard-response","420","347912","0.0-1.0-591.0-0.0","0","0","50952","","null","","","null","65","","","","","","","","","","","","","","","",""
"","time_out","","html-keyboard-response","421","349917","0.0-1.0-593.0-0.0","0","0","50952","","null","","","null","65","","","","","","","","","","","","","","","",""
"","ITI","","html-keyboard-response","422","350921","0.0-1.0-594.0","0","0","50952","","null","","","null","65","","","","","","","","","","","","","","","NaN",""
"","S1","","html-keyboard-response","423","351177","0.0-1.0-596.0","0","0","50952","","null","","","null","66","","","","","","","","","","","","","","","",""
"","ISI","","html-keyboard-response","424","351681","0.0-1.0-597.0","0","0","50952","","null","","","null","66","NaN","","","","","","","","","","","","","","",""
"","S2","","html-keyboard-response","425","351936","0.0-1.0-598.0","0","0","50952","","null","","","null","66","","NaN","","","","","","","","","","","","","",""
"","response","","html-keyboard-response","426","352227","0.0-1.0-599.0-0.0","0","0","50952","","287","","","68","66","","","2","66","training","adjacent","FG","6","7","O.jpg","P.jpg","1","1","1","",""
"","feedback","","html-keyboard-response","427","353233","0.0-1.0-600.0-0.0","0","0","50952","","null","","","null","66","","","","","","","","","","","","","","","",""
"","ITI","","html-keyboard-response","428","354239","0.0-1.0-603.0","0","0","50952","","null","","","null","66","","","","","","","","","","","","","","","NaN",""
"","S1","","html-keyboard-response","429","354495","0.0-1.0-605.0","0","0","50952","","null","","","null","67","","","","","","","","","","","","","","","",""
"","ISI","","html-keyboard-response","430","354999","0.0-1.0-606.0","0","0","50952","","null","","","null","67","NaN","","","","","","","","","","","","","","",""
"","S2","","html-keyboard-response","431","355254","0.0-1.0-607.0","0","0","50952","","null","","","null","67","","NaN","","","","","","","","","","","","","",""
"","response","","html-keyboard-response","432","356434","0.0-1.0-608.0-0.0","0","0","50952","","1177","","","68","67","","","2","67","training","adjacent","FE","6","5","O.jpg","M.jpg","1","0","0","",""
"","feedback","","html-keyboard-response","433","357440","0.0-1.0-609.0-0.0","0","0","50952","","null","","","null","67","","","","","","","","","","","","","","","",""
"","time_out","","html-keyboard-response","434","359445","0.0-1.0-611.0-0.0","0","0","50952","","null","","","null","67","","","","","","","","","","","","","","","",""
"","ITI","","html-keyboard-response","435","360465","0.0-1.0-612.0","0","0","50952","","null","","","null","67","","","","","","","","","","","","","","","NaN",""
"","S1","","html-keyboard-response","436","360724","0.0-1.0-614.0","0","0","50952","","null","","","null","68","","","","","","","","","","","","","","","",""
"","ISI","","html-keyboard-response","437","361239","0.0-1.0-615.0","0","0","50952","","null","","","null","68","NaN","","","","","","","","","","","","","","",""
"","S2","","html-keyboard-response","438","361492","0.0-1.0-616.0","0","0","50952","","null","","","null","68","","NaN","","","","","","","","","","","","","",""
"","response","","html-keyboard-response","439","361493","0.0-1.0-617.0-0.0","0","0","50952","","0","","","68","68","","","2","68","training","adjacent","AB","1","2","Q.jpg","R.jpg","1","1","1","",""
"","feedback","","html-keyboard-response","440","362497","0.0-1.0-618.0-0.0","0","0","50952","","null","","","null","68","","","","","","","","","","","","","","","",""
"","ITI","","html-keyboard-response","441","363501","0.0-1.0-621.0","0","0","50952","","null","","","null","68","","","","","","","","","","","","","","","NaN",""
"","S1","","html-keyboard-response","442","363755","0.0-1.0-623.0","0","0","50952","","null","","","null","69","","","","","","","","","","","","","","","",""
"","ISI","","html-keyboard-response","443","364261","0.0-1.0-624.0","0","0","50952","","null","","","null","69","NaN","","","","","","","","","","","","","","",""
"","S2","","html-keyboard-response","444","364516","0.0-1.0-625.0","0","0","50952","","null","","","null","69","","NaN","","","","","","","","","","","","","",""
"","response","","html-keyboard-response","445","365658","0.0-1.0-626.0-0.0","0","0","50952","","1138","","","75","69","","","2","69","training","adjacent","BA","2","1","R.jpg","Q.jpg","0","0","1","",""
"","feedback","","html-keyboard-response","446","366663","0.0-1.0-627.0-0.0","0","0","50952","","null","","","null","69","","","","","","","","","","","","","","","",""
"","ITI","","html-keyboard-response","447","367668","0.0-1.0-630.0","0","0","50952","","null","","","null","69","","","","","","","","","","","","","","","NaN",""
"","S1","","html-keyboard-response","448","367922","0.0-1.0-632.0","0","0","50952","","null","","","null","70","","","","","","","","","","","","","","","",""
"","ISI","","html-keyboard-response","449","368426","0.0-1.0-633.0","0","0","50952","","null","","","null","70","NaN","","","","","","","","","","","","","","",""
"","S2","","html-keyboard-response","450","368682","0.0-1.0-634.0","0","0","50952","","null","","","null","70","","NaN","","","","","","","","","","","","","",""
"","response","","html-keyboard-response","451","369880","0.0-1.0-635.0-0.0","0","0","50952","","1194","","","68","70","","","2","70","training","adjacent","DE","4","5","N.jpg","M.jpg","1","1","1","",""
"","feedback","","html-keyboard-response","452","370885","0.0-1.0-636.0-0.0","0","0","50952","","null","","","null","70","","","","","","","","","","","","","","","",""
"","ITI","","html-keyboard-response","453","371900","0.0-1.0-639.0","0","0","50952","","null","","","null","70","","","","","","","","","","","","","","","NaN",""
"","S1","","html-keyboard-response","454","372155","0.0-1.0-641.0","0","0","50952","","null","","","null","71","","","","","","","","","","","","","","","",""
"","ISI","","html-keyboard-response","455","372660","0.0-1.0-642.0","0","0","50952","","null","","","null","71","NaN","","","","","","","","","","","","","","",""
"","S2","","html-keyboard-response","456","372916","0.0-1.0-643.0","0","0","50952","","null","","","null","71","","NaN","","","","","","","","","","","","","",""
"","response","","html-keyboard-response","457","373648","0.0-1.0-644.0-0.0","0","0","50952","","728","","","75","71","","","2","71","training","adjacent","EF","5","6","M.jpg","O.jpg","0","1","0","",""
"","feedback","","html-keyboard-response","458","374654","0.0-1.0-645.0-0.0","0","0","50952","","null","","","null","71","","","","","","","","","","","","","","","",""
"","time_out","","html-keyboard-response","459","376658","0.0-1.0-647.0-0.0","0","0","50952","","null","","","null","71","","","","","","","","","","","","","","","",""
"","ITI","","html-keyboard-response","460","377662","0.0-1.0-648.0","0","0","50952","","null","","","null","71","","","","","","","","","","","","","","","NaN",""
"","S1","","html-keyboard-response","461","377917","0.0-1.0-650.0","0","0","50952","","null","","","null","72","","","","","","","","","","","","","","","",""
"","ISI","","html-keyboard-response","462","378434","0.0-1.0-651.0","0","0","50952","","null","","","null","72","NaN","","","","","","","","","","","","","","",""
"","S2","","html-keyboard-response","463","378687","0.0-1.0-652.0","0","0","50952","","null","","","null","72","","NaN","","","","","","","","","","","","","",""
"","response","","html-keyboard-response","464","379098","0.0-1.0-653.0-0.0","0","0","50952","","408","","","75","72","","","2","72","training","adjacent","GF","7","6","P.jpg","O.jpg","0","0","1","",""
"","feedback","","html-keyboard-response","465","380104","0.0-1.0-654.0-0.0","0","0","50952","","null","","","null","72","","","","","","","","","","","","","","","",""
"","ITI","","html-keyboard-response","466","381109","0.0-1.0-657.0","0","0","50952","","null","","","null","72","","","","","","","","","","","","","","","NaN",""
"","S1","","html-keyboard-response","467","381363","0.0-1.0-659.0","0","0","50952","","null","","","null","73","","","","","","","","","","","","","","","",""
"","ISI","","html-keyboard-response","468","381868","0.0-1.0-660.0","0","0","50952","","null","","","null","73","NaN","","","","","","","","","","","","","","",""
"","S2","","html-keyboard-response","469","382124","0.0-1.0-661.0","0","0","50952","","null","","","null","73","","NaN","","","","","","","","","","","","","",""
"","response","","html-keyboard-response","470","382361","0.0-1.0-662.0-0.0","0","0","50952","","233","","","75","73","","","2","73","training","adjacent","BA","2","1","R.jpg","Q.jpg","0","0","1","",""
"","feedback","","html-keyboard-response","471","383366","0.0-1.0-663.0-0.0","0","0","50952","","null","","","null","73","","","","","","","","","","","","","","","",""
"","ITI","","html-keyboard-response","472","384371","0.0-1.0-666.0","0","0","50952","","null","","","null","73","","","","","","","","","","","","","","","NaN",""
"","S1","","html-keyboard-response","473","384626","0.0-1.0-668.0","0","0","50952","","null","","","null","74","","","","","","","","","","","","","","","",""
"","ISI","","html-keyboard-response","474","385131","0.0-1.0-669.0","0","0","50952","","null","","","null","74","NaN","","","","","","","","","","","","","","",""
"","S2","","html-keyboard-response","475","385386","0.0-1.0-670.0","0","0","50952","","null","","","null","74","","NaN","","","","","","","","","","","","","",""
"","response","","html-keyboard-response","476","386176","0.0-1.0-671.0-0.0","0","0","50952","","787","","","68","74","","","2","74","training","adjacent","DC","4","3","N.jpg","L.jpg","1","0","0","",""
"","feedback","","html-keyboard-response","477","387179","0.0-1.0-672.0-0.0","0","0","50952","","null","","","null","74","","","","","","","","","","","","","","","",""
"","time_out","","html-keyboard-response","478","389184","0.0-1.0-674.0-0.0","0","0","50952","","null","","","null","74","","","","","","","","","","","","","","","",""
"","ITI","","html-keyboard-response","479","390189","0.0-1.0-675.0","0","0","50952","","null","","","null","74","","","","","","","","","","","","","","","NaN",""
"","S1","","html-keyboard-response","480","390444","0.0-1.0-677.0","0","0","50952","","null","","","null","75","","","","","","","","","","","","","","","",""
"","ISI","","html-keyboard-response","481","390947","0.0-1.0-678.0","0","0","50952","","null","","","null","75","NaN","","","","","","","","","","","","","","",""
"","S2","","html-keyboard-response","482","391200","0.0-1.0-679.0","0","0","50952","","null","","","null","75","","NaN","","","","","","","","","","","","","",""
"","response","","html-keyboard-response","483","391583","0.0-1.0-680.0-0.0","0","0","50952","","381","","","68","75","","","2","75","training","adjacent","FE","6","5","O.jpg","M.jpg","1","0","0","",""
"","feedback","","html-keyboard-response","484","392587","0.0-1.0-681.0-0.0","0","0","50952","","null","","","null","75","","","","","","","","","","","","","","","",""
"","time_out","","html-keyboard-response","485","394591","0.0-1.0-683.0-0.0","0","0","50952","","null","","","null","75","","","","","","","","","","","","","","","",""
"","ITI","","html-keyboard-response","486","395597","0.0-1.0-684.0","0","0","50952","","null","","","null","75","","","","","","","","","","","","","","","NaN",""
"","S1","","html-keyboard-response","487","395852","0.0-1.0-686.0","0","0","50952","","null","","","null","76","","","","","","","","","","","","","","","",""
"","ISI","","html-keyboard-response","488","396358","0.0-1.0-687.0","0","0","50952","","null","","","null","76","NaN","","","","","","","","","","","","","","",""
"","S2","","html-keyboard-response","489","396612","0.0-1.0-688.0","0","0","50952","","null","","","null","76","","NaN","","","","","","","","","","","","","",""
"","response","","html-keyboard-response","490","397362","0.0-1.0-689.0-0.0","0","0","50952","","745","","","68","76","","","2","76","training","adjacent","DC","4","3","N.jpg","L.jpg","1","0","0","",""
"","feedback","","html-keyboard-response","491","398367","0.0-1.0-690.0-0.0","0","0","50952","","null","","","null","76","","","","","","","","","","","","","","","",""
"","time_out","","html-keyboard-response","492","400372","0.0-1.0-692.0-0.0","0","0","50952","","null","","","null","76","","","","","","","","","","","","","","","",""
"","ITI","","html-keyboard-response","493","401376","0.0-1.0-693.0","0","0","50952","","null","","","null","76","","","","","","","","","","","","","","","NaN",""
"","S1","","html-keyboard-response","494","401630","0.0-1.0-695.0","0","0","50952","","null","","","null","77","","","","","","","","","","","","","","","",""
"","ISI","","html-keyboard-response","495","402134","0.0-1.0-696.0","0","0","50952","","null","","","null","77","NaN","","","","","","","","","","","","","","",""
"","S2","","html-keyboard-response","496","402397","0.0-1.0-697.0","0","0","50952","","null","","","null","77","","NaN","","","","","","","","","","","","","",""
"","response","","html-keyboard-response","497","402673","0.0-1.0-698.0-0.0","0","0","50952","","273","","","75","77","","","2","77","training","adjacent","BA","2","1","R.jpg","Q.jpg","0","0","1","",""
"","feedback","","html-keyboard-response","498","403680","0.0-1.0-699.0-0.0","0","0","50952","","null","","","null","77","","","","","","","","","","","","","","","",""
"","ITI","","html-keyboard-response","499","404686","0.0-1.0-702.0","0","0","50952","","null","","","null","77","","","","","","","","","","","","","","","NaN",""
"","S1","","html-keyboard-response","500","404941","0.0-1.0-704.0","0","0","50952","","null","","","null","78","","","","","","","","","","","","","","","",""
"","ISI","","html-keyboard-response","501","405444","0.0-1.0-705.0","0","0","50952","","null","","","null","78","NaN","","","","","","","","","","","","","","",""
"","S2","","html-keyboard-response","502","405699","0.0-1.0-706.0","0","0","50952","","null","","","null","78","","NaN","","","","","","","","","","","","","",""
"","response","","html-keyboard-response","503","405869","0.0-1.0-707.0-0.0","0","0","50952","","168","","","68","78","","","2","78","training","adjacent","AB","1","2","Q.jpg","R.jpg","1","1","1","",""
"","feedback","","html-keyboard-response","504","406873","0.0-1.0-708.0-0.0","0","0","50952","","null","","","null","78","","","","","","","","","","","","","","","",""
"","ITI","","html-keyboard-response","505","407879","0.0-1.0-711.0","0","0","50952","","null","","","null","78","","","","","","","","","","","","","","","NaN",""
"","S1","","html-keyboard-response","506","408132","0.0-1.0-713.0","0","0","50952","","null","","","null","79","","","","","","","","","","","","","","","",""
"","ISI","","html-keyboard-response","507","408637","0.0-1.0-714.0","0","0","50952","","null","","","null","79","NaN","","","","","","","","","","","","","","",""
"","S2","","html-keyboard-response","508","408891","0.0-1.0-715.0","0","0","50952","","null","","","null","79","","NaN","","","","","","","","","","","","","",""
"","response","","html-keyboard-response","509","409810","0.0-1.0-716.0-0.0","0","0","50952","","918","","","68","79","","","2","79","training","adjacent","CB","3","2","L.jpg","R.jpg","1","0","0","",""
"","feedback","","html-keyboard-response","510","410815","0.0-1.0-717.0-0.0","0","0","50952","","null","","","null","79","","","","","","","","","","","","","","","",""
"","time_out","","html-keyboard-response","511","412820","0.0-1.0-719.0-0.0","0","0","50952","","null","","","null","79","","","","","","","","","","","","","","","",""
"","ITI","","html-keyboard-response","512","413825","0.0-1.0-720.0","0","0","50952","","null","","","null","79","","","","","","","","","","","","","","","NaN",""
"","S1","","html-keyboard-response","513","414078","0.0-1.0-722.0","0","0","50952","","null","","","null","80","","","","","","","","","","","","","","","",""
"","ISI","","html-keyboard-response","514","414582","0.0-1.0-723.0","0","0","50952","","null","","","null","80","NaN","","","","","","","","","","","","","","",""
"","S2","","html-keyboard-response","515","414837","0.0-1.0-724.0","0","0","50952","","null","","","null","80","","NaN","","","","","","","","","","","","","",""
"","response","","html-keyboard-response","516","416592","0.0-1.0-725.0-0.0","0","0","50952","","null","","","null","80","","","2","80","training","adjacent","FE","6","5","O.jpg","M.jpg","NaN","0","0","",""
"","too_slow_prompt","","html-keyboard-response","517","417598","0.0-1.0-727.0-0.0","1","0","50952","","null","","","null","","","","","","","","","","","","","","","","",""
"","time_out","","html-keyboard-response","518","419602","0.0-1.0-728.0-0.0","0","0","50952","","null","","","null","80","","","","","","","","","","","","","","","",""
"","ITI","","html-keyboard-response","519","420606","0.0-1.0-729.0","0","0","50952","","null","","","null","80","","","","","","","","","","","","","","","NaN",""
"","S1","","html-keyboard-response","520","420862","0.0-1.0-731.0","0","0","50952","","null","","","null","81","","","","","","","","","","","","","","","",""
"","ISI","","html-keyboard-response","521","421367","0.0-1.0-732.0","0","0","50952","","null","","","null","81","NaN","","","","","","","","","","","","","","",""
"","S2","","html-keyboard-response","522","421622","0.0-1.0-733.0","0","0","50952","","null","","","null","81","","NaN","","","","","","","","","","","","","",""
"","response","","html-keyboard-response","523","422195","0.0-1.0-734.0-0.0","0","0","50952","","569","","","75","81","","","2","81","training","adjacent","DE","4","5","N.jpg","M.jpg","0","1","0","",""
"","feedback","","html-keyboard-response","524","423201","0.0-1.0-735.0-0.0","0","0","50952","","null","","","null","81","","","","","","","","","","","","","","","",""
"","time_out","","html-keyboard-response","525","425207","0.0-1.0-737.0-0.0","0","0","50952","","null","","","null","81","","","","","","","","","","","","","","","",""
"","ITI","","html-keyboard-response","526","426212","0.0-1.0-738.0","0","0","50952","","null","","","null","81","","","","","","","","","","","","","","","NaN",""
"","S1","","html-keyboard-response","527","426467","0.0-1.0-740.0","0","0","50952","","null","","","null","82","","","","","","","","","","","","","","","",""
"","ISI","","html-keyboard-response","528","426971","0.0-1.0-741.0","0","0","50952","","null","","","null","82","NaN","","","","","","","","","","","","","","",""
"","S2","","html-keyboard-response","529","427226","0.0-1.0-742.0","0","0","50952","","null","","","null","82","","NaN","","","","","","","","","","","","","",""
"","response","","html-keyboard-response","530","427691","0.0-1.0-743.0-0.0","0","0","50952","","461","","","68","82","","","2","82","training","adjacent","BC","2","3","R.jpg","L.jpg","1","1","1","",""
"","feedback","","html-keyboard-response","531","428696","0.0-1.0-744.0-0.0","0","0","50952","","null","","","null","82","","","","","","","","","","","","","","","",""
"","ITI","","html-keyboard-response","532","429701","0.0-1.0-747.0","0","0","50952","","null","","","null","82","","","","","","","","","","","","","","","NaN",""
"","S1","","html-keyboard-response","533","429957","0.0-1.0-749.0","0","0","50952","","null","","","null","83","","","","","","","","","","","","","","","",""
"","ISI","","html-keyboard-response","534","430462","0.0-1.0-750.0","0","0","50952","","null","","","null","83","NaN","","","","","","","","","","","","","","",""
"","S2","","html-keyboard-response","535","430715","0.0-1.0-751.0","0","0","50952","","null","","","null","83","","NaN","","","","","","","","","","","","","",""
"","response","","html-keyboard-response","536","431127","0.0-1.0-752.0-0.0","0","0","50952","","411","","","75","83","","","2","83","training","adjacent","GF","7","6","P.jpg","O.jpg","0","0","1","",""
"","feedback","","html-keyboard-response","537","432130","0.0-1.0-753.0-0.0","0","0","50952","","null","","","null","83","","","","","","","","","","","","","","","",""
"","ITI","","html-keyboard-response","538","433133","0.0-1.0-756.0","0","0","50952","","null","","","null","83","","","","","","","","","","","","","","","NaN",""
"","S1","","html-keyboard-response","539","433398","0.0-1.0-758.0","0","0","50952","","null","","","null","84","","","","","","","","","","","","","","","",""
"","ISI","","html-keyboard-response","540","433903","0.0-1.0-759.0","0","0","50952","","null","","","null","84","NaN","","","","","","","","","","","","","","",""
"","S2","","html-keyboard-response","541","434159","0.0-1.0-760.0","0","0","50952","","null","","","null","84","","NaN","","","","","","","","","","","","","",""
"","response","","html-keyboard-response","542","434396","0.0-1.0-761.0-0.0","0","0","50952","","233","","","75","84","","","2","84","training","adjacent","BA","2","1","R.jpg","Q.jpg","0","0","1","",""
"","feedback","","html-keyboard-response","543","435402","0.0-1.0-762.0-0.0","0","0","50952","","null","","","null","84","","","","","","","","","","","","","","","",""
"","ITI","","html-keyboard-response","544","436407","0.0-1.0-765.0","0","0","50952","","null","","","null","84","","","","","","","","","","","","","","","NaN",""
"","S1","","html-keyboard-response","545","436662","0.0-1.0-767.0","0","0","50952","","null","","","null","85","","","","","","","","","","","","","","","",""
"","ISI","","html-keyboard-response","546","437166","0.0-1.0-768.0","0","0","50952","","null","","","null","85","NaN","","","","","","","","","","","","","","",""
"","S2","","html-keyboard-response","547","437419","0.0-1.0-769.0","0","0","50952","","null","","","null","85","","NaN","","","","","","","","","","","","","",""
"","response","","html-keyboard-response","548","437756","0.0-1.0-770.0-0.0","0","0","50952","","333","","","75","85","","","2","85","training","adjacent","GF","7","6","P.jpg","O.jpg","0","0","1","",""
"","feedback","","html-keyboard-response","549","438761","0.0-1.0-771.0-0.0","0","0","50952","","null","","","null","85","","","","","","","","","","","","","","","",""
"","ITI","","html-keyboard-response","550","439767","0.0-1.0-774.0","0","0","50952","","null","","","null","85","","","","","","","","","","","","","","","NaN",""
"","S1","","html-keyboard-response","551","440022","0.0-1.0-776.0","0","0","50952","","null","","","null","86","","","","","","","","","","","","","","","",""
"","ISI","","html-keyboard-response","552","440525","0.0-1.0-777.0","0","0","50952","","null","","","null","86","NaN","","","","","","","","","","","","","","",""
"","S2","","html-keyboard-response","553","440783","0.0-1.0-778.0","0","0","50952","","null","","","null","86","","NaN","","","","","","","","","","","","","",""
"","response","","html-keyboard-response","554","441204","0.0-1.0-779.0-0.0","0","0","50952","","419","","","68","86","","","2","86","training","adjacent","DC","4","3","N.jpg","L.jpg","1","0","0","",""
"","feedback","","html-keyboard-response","555","442209","0.0-1.0-780.0-0.0","0","0","50952","","null","","","null","86","","","","","","","","","","","","","","","",""
"","time_out","","html-keyboard-response","556","444214","0.0-1.0-782.0-0.0","0","0","50952","","null","","","null","86","","","","","","","","","","","","","","","",""
"","ITI","","html-keyboard-response","557","445218","0.0-1.0-783.0","0","0","50952","","null","","","null","86","","","","","","","","","","","","","","","NaN",""
"","S1","","html-keyboard-response","558","445472","0.0-1.0-785.0","0","0","50952","","null","","","null","87","","","","","","","","","","","","","","","",""
"","ISI","","html-keyboard-response","559","445977","0.0-1.0-786.0","0","0","50952","","null","","","null","87","NaN","","","","","","","","","","","","","","",""
"","S2","","html-keyboard-response","560","446233","0.0-1.0-787.0","0","0","50952","","null","","","null","87","","NaN","","","","","","","","","","","","","",""
"","response","","html-keyboard-response","561","446709","0.0-1.0-788.0-0.0","0","0","50952","","473","","","68","87","","","2","87","training","adjacent","CB","3","2","L.jpg","R.jpg","1","0","0","",""
"","feedback","","html-keyboard-response","562","447713","0.0-1.0-789.0-0.0","0","0","50952","","null","","","null","87","","","","","","","","","","","","","","","",""
"","time_out","","html-keyboard-response","563","449715","0.0-1.0-791.0-0.0","0","0","50952","","null","","","null","87","","","","","","","","","","","","","","","",""
"","ITI","","html-keyboard-response","564","450718","0.0-1.0-792.0","0","0","50952","","null","","","null","87","","","","","","","","","","","","","","","NaN",""
"","S1","","html-keyboard-response","565","450970","0.0-1.0-794.0","0","0","50952","","null","","","null","88","","","","","","","","","","","","","","","",""
"","ISI","","html-keyboard-response","566","451474","0.0-1.0-795.0","0","0","50952","","null","","","null","88","NaN","","","","","","","","","","","","","","",""
"","S2","","html-keyboard-response","567","451729","0.0-1.0-796.0","0","0","50952","","null","","","null","88","","NaN","","","","","","","","","","","","","",""
"","response","","html-keyboard-response","568","452052","0.0-1.0-797.0-0.0","0","0","50952","","321","","","75","88","","","2","88","training","adjacent","EF","5","6","M.jpg","O.jpg","0","1","0","",""
"","feedback","","html-keyboard-response","569","453057","0.0-1.0-798.0-0.0","0","0","50952","","null","","","null","88","","","","","","","","","","","","","","","",""
"","time_out","","html-keyboard-response","570","455063","0.0-1.0-800.0-0.0","0","0","50952","","null","","","null","88","","","","","","","","","","","","","","","",""
"","ITI","","html-keyboard-response","571","456069","0.0-1.0-801.0","0","0","50952","","null","","","null","88","","","","","","","","","","","","","","","NaN",""
"","S1","","html-keyboard-response","572","456325","0.0-1.0-803.0","0","0","50952","","null","","","null","89","","","","","","","","","","","","","","","",""
"","ISI","","html-keyboard-response","573","456829","0.0-1.0-804.0","0","0","50952","","null","","","null","89","NaN","","","","","","","","","","","","","","",""
"","S2","","html-keyboard-response","574","457084","0.0-1.0-805.0","0","0","50952","","null","","","null","89","","NaN","","","","","","","","","","","","","",""
"","response","","html-keyboard-response","575","457613","0.0-1.0-806.0-0.0","0","0","50952","","525","","","75","89","","","2","89","training","adjacent","DE","4","5","N.jpg","M.jpg","0","1","0","",""
"","feedback","","html-keyboard-response","576","458617","0.0-1.0-807.0-0.0","0","0","50952","","null","","","null","89","","","","","","","","","","","","","","","",""
"","time_out","","html-keyboard-response","577","460621","0.0-1.0-809.0-0.0","0","0","50952","","null","","","null","89","","","","","","","","","","","","","","","",""
"","ITI","","html-keyboard-response","578","461624","0.0-1.0-810.0","0","0","50952","","null","","","null","89","","","","","","","","","","","","","","","NaN",""
"","S1","","html-keyboard-response","579","461876","0.0-1.0-812.0","0","0","50952","","null","","","null","90","","","","","","","","","","","","","","","",""
"","ISI","","html-keyboard-response","580","462378","0.0-1.0-813.0","0","0","50952","","null","","","null","90","NaN","","","","","","","","","","","","","","",""
"","S2","","html-keyboard-response","581","462630","0.0-1.0-814.0","0","0","50952","","null","","","null","90","","NaN","","","","","","","","","","","","","",""
