"success","ttype","start_time","trial_type","trial_index","time_elapsed","internal_node_id","warning","missed_checkup","PID","view_history","rt","responses","repeat_instructions","key_press","index","keypress_isi","keypress_S2","block","trial_num","phase","group_type","pair_type","S1_stim","S2_stim","S1_img","S2_img","S1_chosen","S1_higher","accuracy","keypress_iti","total_bonus_tally"
"true","full_screen","d04152023hr1330","fullscreen","0","16480","0.0-0.0","0","0","11382","","","","","","","","","","","","","","","","","","","","","",""
"","instructions","","instructions","1","57750","0.0-1.0-0.0-0.0","0","0","11382","[{""page_index"":0,""viewing_time"":4604},{""page_index"":1,""viewing_time"":20680},{""page_index"":2,""viewing_time"":14448},{""page_index"":3,""viewing_time"":1536}]","41268","","","","","","","","","","","","","","","","","","","",""
"","comprehension_check","","survey-multi-choice","2","83710","0.0-1.0-0.0-1.0","0","0","11382","","25957","{""Q0"":""False"",""Q1"":""D"",""Q2"":""Once the second image appears and while the screen 'MAKE A CHOICE' is shown"",""Q3"":""Green mark"",""Q4"":""either D or K""}","1","","","","","","","","","","","","","","","","","",""
"","missed_instruction_checkup","","html-keyboard-response","3","86414","0.0-1.0-0.0-2.0-0.0","0","1","11382","","2701","","","32","","","","","","","","","","","","","","","","",""
"","instructions","","instructions","4","91958","0.0-1.0-0.1-0.1","0","0","11382","[{""page_index"":0,""viewing_time"":3358},{""page_index"":1,""viewing_time"":488},{""page_index"":2,""viewing_time"":896},{""page_index"":3,""viewing_time"":800}]","5542","","","","","","","","","","","","","","","","","","","",""
"","comprehension_check","","survey-multi-choice","5","106190","0.0-1.0-0.1-1.1","0","0","11382","","14229","{""Q0"":""True"",""Q1"":""D"",""Q2"":""Once the second image appears and while the screen 'MAKE A CHOICE' is shown"",""Q3"":""Green mark"",""Q4"":""either D or K""}","0","","","","","","","","","","","","","","","","","",""
"","start_exp","","html-keyboard-response","6","108086","0.0-1.0-1.0","0","0","11382","","1895","","","32","","","","","","","","","","","","","","","","",""
"","S1","","html-keyboard-response","7","108339","0.0-1.0-2.0","0","0","11382","","null","","","null","0","","","","","","","","","","","","","","","",""
"","ISI","","html-keyboard-response","8","109341","0.0-1.0-3.0","0","0","11382","","null","","","null","0","NaN","","","","","","","","","","","","","","",""
"","S2","","html-keyboard-response","9","109594","0.0-1.0-4.0","0","0","11382","","null","","","null","0","","NaN","","","","","","","","","","","","","",""
"","response","","html-keyboard-response","10","111346","0.0-1.0-5.0-0.0","0","0","11382","","null","","","null","0","","","1","0","training","adjacent","FG","6","7","L.jpg","O.jpg","NaN","1","0","",""
"","too_slow_prompt","","html-keyboard-response","11","112348","0.0-1.0-7.0-0.0","1","0","11382","","null","","","null","","","","","","","","","","","","","","","","",""
"","time_out","","html-keyboard-response","12","114350","0.0-1.0-8.0-0.0","0","0","11382","","null","","","null","0","","","","","","","","","","","","","","","",""
"","ITI","","html-keyboard-response","13","115351","0.0-1.0-9.0","0","0","11382","","null","","","null","0","","","","","","","","","","","","","","","NaN",""
"","S1","","html-keyboard-response","14","115604","0.0-1.0-11.0","0","0","11382","","null","","","null","1","","","","","","","","","","","","","","","",""
"","ISI","","html-keyboard-response","15","116606","0.0-1.0-12.0","0","0","11382","","null","","","null","1","NaN","","","","","","","","","","","","","","",""
"","S2","","html-keyboard-response","16","116859","0.0-1.0-13.0","0","0","11382","","null","","","null","1","","NaN","","","","","","","","","","","","","",""
"","response","","html-keyboard-response","17","117598","0.0-1.0-14.0-0.0","0","0","11382","","738","","","68","1","","","1","1","training","adjacent","DE","4","5","R.jpg","M.jpg","1","1","1","",""
"","feedback","","html-keyboard-response","18","118600","0.0-1.0-15.0-0.0","0","0","11382","","null","","","null","1","","","","","","","","","","","","","","","",""
"","ITI","","html-keyboard-response","19","119603","0.0-1.0-18.0","0","0","11382","","null","","","null","1","","","","","","","","","","","","","","","NaN",""
"","S1","","html-keyboard-response","20","119855","0.0-1.0-20.0","0","0","11382","","null","","","null","2","","","","","","","","","","","","","","","",""
"","ISI","","html-keyboard-response","21","120858","0.0-1.0-21.0","0","0","11382","","null","","","null","2","NaN","","","","","","","","","","","","","","",""
"","S2","","html-keyboard-response","22","121110","0.0-1.0-22.0","0","0","11382","","null","","","null","2","","NaN","","","","","","","","","","","","","",""
"","response","","html-keyboard-response","23","121678","0.0-1.0-23.0-0.0","0","0","11382","","567","","","75","2","","","1","2","training","adjacent","DE","4","5","R.jpg","M.jpg","0","1","0","",""
"","feedback","","html-keyboard-response","24","122679","0.0-1.0-24.0-0.0","0","0","11382","","null","","","null","2","","","","","","","","","","","","","","","",""
"","time_out","","html-keyboard-response","25","124681","0.0-1.0-26.0-0.0","0","0","11382","","null","","","null","2","","","","","","","","","","","","","","","",""
"","ITI","","html-keyboard-response","26","125684","0.0-1.0-27.0","0","0","11382","","null","","","null","2","","","","","","","","","","","","","","","NaN",""
"","S1","","html-keyboard-response","27","125936","0.0-1.0-29.0","0","0","11382","","null","","","null","3","","","","","","","","","","","","","","","",""
"","ISI","","html-keyboard-response","28","126938","0.0-1.0-30.0","0","0","11382","","null","","","null","3","NaN","","","","","","","","","","","","","","",""
"","S2","","html-keyboard-response","29","127191","0.0-1.0-31.0","0","0","11382","","null","","","null","3","","NaN","","","","","","","","","","","","","",""
"","response","","html-keyboard-response","30","127966","0.0-1.0-32.0-0.0","0","0","11382","","774","","","68","3","","","1","3","training","adjacent","GF","7","6","O.jpg","L.jpg","1","0","0","",""
"","feedback","","html-keyboard-response","31","128975","0.0-1.0-33.0-0.0","0","0","11382","","null","","","null","3","","","","","","","","","","","","","","","",""
"","time_out","","html-keyboard-response","32","130976","0.0-1.0-35.0-0.0","0","0","11382","","null","","","null","3","","","","","","","","","","","","","","","",""
"","ITI","","html-keyboard-response","33","131978","0.0-1.0-36.0","0","0","11382","","null","","","null","3","","","","","","","","","","","","","","","NaN",""
"","S1","","html-keyboard-response","34","132231","0.0-1.0-38.0","0","0","11382","","null","","","null","4","","","","","","","","","","","","","","","",""
"","ISI","","html-keyboard-response","35","133233","0.0-1.0-39.0","0","0","11382","","null","","","null","4","NaN","","","","","","","","","","","","","","",""
"","S2","","html-keyboard-response","36","133486","0.0-1.0-40.0","0","0","11382","","null","","","null","4","","NaN","","","","","","","","","","","","","",""
"","response","","html-keyboard-response","37","134142","0.0-1.0-41.0-0.0","0","0","11382","","655","","","68","4","","","1","4","training","adjacent","ED","5","4","M.jpg","R.jpg","1","0","0","",""
"","feedback","","html-keyboard-response","38","135144","0.0-1.0-42.0-0.0","0","0","11382","","null","","","null","4","","","","","","","","","","","","","","","",""
"","time_out","","html-keyboard-response","39","137146","0.0-1.0-44.0-0.0","0","0","11382","","null","","","null","4","","","","","","","","","","","","","","","",""
"","ITI","","html-keyboard-response","40","138149","0.0-1.0-45.0","0","0","11382","","null","","","null","4","","","","","","","","","","","","","","","NaN",""
"","S1","","html-keyboard-response","41","138401","0.0-1.0-47.0","0","0","11382","","null","","","null","5","","","","","","","","","","","","","","","",""
"","ISI","","html-keyboard-response","42","139404","0.0-1.0-48.0","0","0","11382","","null","","","null","5","NaN","","","","","","","","","","","","","","",""
"","S2","","html-keyboard-response","43","139656","0.0-1.0-49.0","0","0","11382","","null","","","null","5","","NaN","","","","","","","","","","","","","",""
"","response","","html-keyboard-response","44","140142","0.0-1.0-50.0-0.0","0","0","11382","","485","","","75","5","","","1","5","training","adjacent","FE","6","5","L.jpg","M.jpg","0","0","1","",""
"","feedback","","html-keyboard-response","45","141144","0.0-1.0-51.0-0.0","0","0","11382","","null","","","null","5","","","","","","","","","","","","","","","",""
"","ITI","","html-keyboard-response","46","142146","0.0-1.0-54.0","0","0","11382","","null","","","null","5","","","","","","","","","","","","","","","NaN",""
"","S1","","html-keyboard-response","47","142399","0.0-1.0-56.0","0","0","11382","","null","","","null","6","","","","","","","","","","","","","","","",""
"","ISI","","html-keyboard-response","48","143401","0.0-1.0-57.0","0","0","11382","","null","","","null","6","NaN","","","","","","","","","","","","","","",""
"","S2","","html-keyboard-response","49","143654","0.0-1.0-58.0","0","0","11382","","null","","","null","6","","NaN","","","","","","","","","","","","","",""
"","response","","html-keyboard-response","50","144141","0.0-1.0-59.0-0.0","0","0","11382","","486","","","75","6","","","1","6","training","adjacent","BC","2","3","P.jpg","Q.jpg","0","1","0","",""
"","feedback","","html-keyboard-response","51","145143","0.0-1.0-60.0-0.0","0","0","11382","","null","","","null","6","","","","","","","","","","","","","","","",""
"","time_out","","html-keyboard-response","52","147145","0.0-1.0-62.0-0.0","0","0","11382","","null","","","null","6","","","","","","","","","","","","","","","",""
"","ITI","","html-keyboard-response","53","148148","0.0-1.0-63.0","0","0","11382","","null","","","null","6","","","","","","","","","","","","","","","NaN",""
"","S1","","html-keyboard-response","54","148399","0.0-1.0-65.0","0","0","11382","","null","","","null","7","","","","","","","","","","","","","","","",""
"","ISI","","html-keyboard-response","55","149401","0.0-1.0-66.0","0","0","11382","","null","","","null","7","NaN","","","","","","","","","","","","","","",""
"","S2","","html-keyboard-response","56","149653","0.0-1.0-67.0","0","0","11382","","null","","","null","7","","NaN","","","","","","","","","","","","","",""
"","response","","html-keyboard-response","57","150046","0.0-1.0-68.0-0.0","0","0","11382","","391","","","68","7","","","1","7","training","adjacent","BC","2","3","P.jpg","Q.jpg","1","1","1","",""
"","feedback","","html-keyboard-response","58","151048","0.0-1.0-69.0-0.0","0","0","11382","","null","","","null","7","","","","","","","","","","","","","","","",""
"","ITI","","html-keyboard-response","59","152050","0.0-1.0-72.0","0","0","11382","","null","","","null","7","","","","","","","","","","","","","","","NaN",""
"","S1","","html-keyboard-response","60","152301","0.0-1.0-74.0","0","0","11382","","null","","","null","8","","","","","","","","","","","","","","","",""
"","ISI","","html-keyboard-response","61","153303","0.0-1.0-75.0","0","0","11382","","null","","","null","8","NaN","","","","","","","","","","","","","","",""
"","S2","","html-keyboard-response","62","153556","0.0-1.0-76.0","0","0","11382","","null","","","null","8","","NaN","","","","","","","","","","","","","",""
"","response","","html-keyboard-response","63","154166","0.0-1.0-77.0-0.0","0","0","11382","","609","","","75","8","","","1","8","training","adjacent","DC","4","3","R.jpg","Q.jpg","0","0","1","",""
"","feedback","","html-keyboard-response","64","155169","0.0-1.0-78.0-0.0","0","0","11382","","null","","","null","8","","","","","","","","","","","","","","","",""
"","ITI","","html-keyboard-response","65","156171","0.0-1.0-81.0","0","0","11382","","null","","","null","8","","","","","","","","","","","","","","","NaN",""
"","S1","","html-keyboard-response","66","156423","0.0-1.0-83.0","0","0","11382","","null","","","null","9","","","","","","","","","","","","","","","",""
"","ISI","","html-keyboard-response","67","157426","0.0-1.0-84.0","0","0","11382","","null","","","null","9","NaN","","","","","","","","","","","","","","",""
"","S2","","html-keyboard-response","68","157678","0.0-1.0-85.0","0","0","11382","","null","","","null","9","","NaN","","","","","","","","","","","","","",""
"","response","","html-keyboard-response","69","158053","0.0-1.0-86.0-0.0","0","0","11382","","375","","","75","9","","","1","9","training","adjacent","DC","4","3","R.jpg","Q.jpg","0","0","1","",""
"","feedback","","html-keyboard-response","70","159056","0.0-1.0-87.0-0.0","0","0","11382","","null","","","null","9","","","","","","","","","","","","","","","",""
"","ITI","","html-keyboard-response","71","160057","0.0-1.0-90.0","0","0","11382","","null","","","null","9","","","","","","","","","","","","","","","NaN",""
"","S1","","html-keyboard-response","72","160310","0.0-1.0-92.0","0","0","11382","","null","","","null","10","","","","","","","","","","","","","","","",""
"","ISI","","html-keyboard-response","73","161319","0.0-1.0-93.0","0","0","11382","","null","","","null","10","NaN","","","","","","","","","","","","","","",""
"","S2","","html-keyboard-response","74","161572","0.0-1.0-94.0","0","0","11382","","null","","","null","10","","NaN","","","","","","","","","","","","","",""
"","response","","html-keyboard-response","75","161605","0.0-1.0-95.0-0.0","0","0","11382","","33","","","75","10","","","1","10","training","adjacent","EF","5","6","M.jpg","L.jpg","0","1","0","",""
"","feedback","","html-keyboard-response","76","162609","0.0-1.0-96.0-0.0","0","0","11382","","null","","","null","10","","","","","","","","","","","","","","","",""
"","time_out","","html-keyboard-response","77","164610","0.0-1.0-98.0-0.0","0","0","11382","","null","","","null","10","","","","","","","","","","","","","","","",""
"","ITI","","html-keyboard-response","78","165612","0.0-1.0-99.0","0","0","11382","","null","","","null","10","","","","","","","","","","","","","","","NaN",""
"","S1","","html-keyboard-response","79","165865","0.0-1.0-101.0","0","0","11382","","null","","","null","11","","","","","","","","","","","","","","","",""
"","ISI","","html-keyboard-response","80","166866","0.0-1.0-102.0","0","0","11382","","null","","","null","11","NaN","","","","","","","","","","","","","","",""
"","S2","","html-keyboard-response","81","167118","0.0-1.0-103.0","0","0","11382","","null","","","null","11","","NaN","","","","","","","","","","","","","",""
"","response","","html-keyboard-response","82","167198","0.0-1.0-104.0-0.0","0","0","11382","","78","","","68","11","","","1","11","training","adjacent","CB","3","2","Q.jpg","P.jpg","1","0","0","",""
"","feedback","","html-keyboard-response","83","168200","0.0-1.0-105.0-0.0","0","0","11382","","null","","","null","11","","","","","","","","","","","","","","","",""
"","time_out","","html-keyboard-response","84","170201","0.0-1.0-107.0-0.0","0","0","11382","","null","","","null","11","","","","","","","","","","","","","","","",""
"","ITI","","html-keyboard-response","85","171203","0.0-1.0-108.0","0","0","11382","","null","","","null","11","","","","","","","","","","","","","","","NaN",""
"","S1","","html-keyboard-response","86","171456","0.0-1.0-110.0","0","0","11382","","null","","","null","12","","","","","","","","","","","","","","","",""
"","ISI","","html-keyboard-response","87","172458","0.0-1.0-111.0","0","0","11382","","null","","","null","12","NaN","","","","","","","","","","","","","","",""
"","S2","","html-keyboard-response","88","172710","0.0-1.0-112.0","0","0","11382","","null","","","null","12","","NaN","","","","","","","","","","","","","",""
"","response","","html-keyboard-response","89","173254","0.0-1.0-113.0-0.0","0","0","11382","","543","","","68","12","","","1","12","training","adjacent","EF","5","6","M.jpg","L.jpg","1","1","1","",""
"","feedback","","html-keyboard-response","90","174271","0.0-1.0-114.0-0.0","0","0","11382","","null","","","null","12","","","","","","","","","","","","","","","",""
"","ITI","","html-keyboard-response","91","175272","0.0-1.0-117.0","0","0","11382","","null","","","null","12","","","","","","","","","","","","","","","NaN",""
"","S1","","html-keyboard-response","92","175525","0.0-1.0-119.0","0","0","11382","","null","","","null","13","","","","","","","","","","","","","","","",""
"","ISI","","html-keyboard-response","93","176527","0.0-1.0-120.0","0","0","11382","","null","","","null","13","NaN","","","","","","","","","","","","","","",""
"","S2","","html-keyboard-response","94","176779","0.0-1.0-121.0","0","0","11382","","null","","","null","13","","NaN","","","","","","","","","","","","","",""
"","response","","html-keyboard-response","95","177158","0.0-1.0-122.0-0.0","0","0","11382","","378","","","75","13","","","1","13","training","adjacent","AB","1","2","N.jpg","P.jpg","0","1","0","",""
"","feedback","","html-keyboard-response","96","178160","0.0-1.0-123.0-0.0","0","0","11382","","null","","","null","13","","","","","","","","","","","","","","","",""
"","time_out","","html-keyboard-response","97","180162","0.0-1.0-125.0-0.0","0","0","11382","","null","","","null","13","","","","","","","","","","","","","","","",""
"","ITI","","html-keyboard-response","98","181163","0.0-1.0-126.0","0","0","11382","","null","","","null","13","","","","","","","","","","","","","","","NaN",""
"","S1","","html-keyboard-response","99","181415","0.0-1.0-128.0","0","0","11382","","null","","","null","14","","","","","","","","","","","","","","","",""
"","ISI","","html-keyboard-response","100","182418","0.0-1.0-129.0","0","0","11382","","null","","","null","14","NaN","","","","","","","","","","","","","","",""
"","S2","","html-keyboard-response","101","182670","0.0-1.0-130.0","0","0","11382","","null","","","null","14","","NaN","","","","","","","","","","","","","",""
"","response","","html-keyboard-response","102","182966","0.0-1.0-131.0-0.0","0","0","11382","","295","","","68","14","","","1","14","training","adjacent","DE","4","5","R.jpg","M.jpg","1","1","1","",""
"","feedback","","html-keyboard-response","103","183967","0.0-1.0-132.0-0.0","0","0","11382","","null","","","null","14","","","","","","","","","","","","","","","",""
"","ITI","","html-keyboard-response","104","184970","0.0-1.0-135.0","0","0","11382","","null","","","null","14","","","","","","","","","","","","","","","NaN",""
"","S1","","html-keyboard-response","105","185233","0.0-1.0-137.0","0","0","11382","","null","","","null","15","","","","","","","","","","","","","","","",""
"","ISI","","html-keyboard-response","106","186235","0.0-1.0-138.0","0","0","11382","","null","","","null","15","NaN","","","","","","","","","","","","","","",""
"","S2","","html-keyboard-response","107","186488","0.0-1.0-139.0","0","0","11382","","null","","","null","15","","NaN","","","","","","","","","","","","","",""
"","response","","html-keyboard-response","108","186926","0.0-1.0-140.0-0.0","0","0","11382","","437","","","68","15","","","1","15","training","adjacent","ED","5","4","M.jpg","R.jpg","1","0","0","",""
"","feedback","","html-keyboard-response","109","187928","0.0-1.0-141.0-0.0","0","0","11382","","null","","","null","15","","","","","","","","","","","","","","","",""
"","time_out","","html-keyboard-response","110","189931","0.0-1.0-143.0-0.0","0","0","11382","","null","","","null","15","","","","","","","","","","","","","","","",""
"","ITI","","html-keyboard-response","111","190933","0.0-1.0-144.0","0","0","11382","","null","","","null","15","","","","","","","","","","","","","","","NaN",""
"","S1","","html-keyboard-response","112","191185","0.0-1.0-146.0","0","0","11382","","null","","","null","16","","","","","","","","","","","","","","","",""
"","ISI","","html-keyboard-response","113","192187","0.0-1.0-147.0","0","0","11382","","null","","","null","16","NaN","","","","","","","","","","","","","","",""
"","S2","","html-keyboard-response","114","192439","0.0-1.0-148.0","0","0","11382","","null","","","null","16","","NaN","","","","","","","","","","","","","",""
"","response","","html-keyboard-response","115","192901","0.0-1.0-149.0-0.0","0","0","11382","","460","","","68","16","","","1","16","training","adjacent","DC","4","3","R.jpg","Q.jpg","1","0","0","",""
"","feedback","","html-keyboard-response","116","193903","0.0-1.0-150.0-0.0","0","0","11382","","null","","","null","16","","","","","","","","","","","","","","","",""
"","time_out","","html-keyboard-response","117","195905","0.0-1.0-152.0-0.0","0","0","11382","","null","","","null","16","","","","","","","","","","","","","","","",""
"","ITI","","html-keyboard-response","118","196907","0.0-1.0-153.0","0","0","11382","","null","","","null","16","","","","","","","","","","","","","","","NaN",""
"","S1","","html-keyboard-response","119","197160","0.0-1.0-155.0","0","0","11382","","null","","","null","17","","","","","","","","","","","","","","","",""
"","ISI","","html-keyboard-response","120","198162","0.0-1.0-156.0","0","0","11382","","null","","","null","17","NaN","","","","","","","","","","","","","","",""
"","S2","","html-keyboard-response","121","198413","0.0-1.0-157.0","0","0","11382","","null","","","null","17","","NaN","","","","","","","","","","","","","",""
"","response","","html-keyboard-response","122","198773","0.0-1.0-158.0-0.0","0","0","11382","","359","","","68","17","","","1","17","training","adjacent","CD","3","4","Q.jpg","R.jpg","1","1","1","",""
"","feedback","","html-keyboard-response","123","199775","0.0-1.0-159.0-0.0","0","0","11382","","null","","","null","17","","","","","","","","","","","","","","","",""
"","ITI","","html-keyboard-response","124","200778","0.0-1.0-162.0","0","0","11382","","null","","","null","17","","","","","","","","","","","","","","","NaN",""
"","S1","","html-keyboard-response","125","201030","0.0-1.0-164.0","0","0","11382","","null","","","null","18","","","","","","","","","","","","","","","",""
"","ISI","","html-keyboard-response","126","202032","0.0-1.0-165.0","0","0","11382","","null","","","null","18","NaN","","","","","","","","","","","","","","",""
"","S2","","html-keyboard-response","127","202284","0.0-1.0-166.0","0","0","11382","","null","","","null","18","","NaN","","","","","","","","","","","","","",""
"","response","","html-keyboard-response","128","202398","0.0-1.0-167.0-0.0","0","0","11382","","112","","","75","18","","","1","18","training","adjacent","FG","6","7","L.jpg","O.jpg","0","1","0","",""
"","feedback","","html-keyboard-response","129","203400","0.0-1.0-168.0-0.0","0","0","11382","","null","","","null","18","","","","","","","","","","","","","","","",""
"","time_out","","html-keyboard-response","130","205402","0.0-1.0-170.0-0.0","0","0","11382","","null","","","null","18","","","","","","","","","","","","","","","",""
"","ITI","","html-keyboard-response","131","206403","0.0-1.0-171.0","0","0","11382","","null","","","null","18","","","","","","","","","","","","","","","NaN",""
"","S1","","html-keyboard-response","132","206656","0.0-1.0-173.0","0","0","11382","","null","","","null","19","","","","","","","","","","","","","","","",""
"","ISI","","html-keyboard-response","133","207658","0.0-1.0-174.0","0","0","11382","","null","","","null","19","NaN","","","","","","","","","","","","","","",""
"","S2","","html-keyboard-response","134","207911","0.0-1.0-175.0","0","0","11382","","null","","","null","19","","NaN","","","","","","","","","","","","","",""
"","response","","html-keyboard-response","135","208093","0.0-1.0-176.0-0.0","0","0","11382","","181","","","75","19","","","1","19","training","adjacent","AB","1","2","N.jpg","P.jpg","0","1","0","",""
"","feedback","","html-keyboard-response","136","209096","0.0-1.0-177.0-0.0","0","0","11382","","null","","","null","19","","","","","","","","","","","","","","","",""
"","time_out","","html-keyboard-response","137","211098","0.0-1.0-179.0-0.0","0","0","11382","","null","","","null","19","","","","","","","","","","","","","","","",""
"","ITI","","html-keyboard-response","138","212100","0.0-1.0-180.0","0","0","11382","","null","","","null","19","","","","","","","","","","","","","","","NaN",""
"","S1","","html-keyboard-response","139","212352","0.0-1.0-182.0","0","0","11382","","null","","","null","20","","","","","","","","","","","","","","","",""
"","ISI","","html-keyboard-response","140","213355","0.0-1.0-183.0","0","0","11382","","null","","","null","20","NaN","","","","","","","","","","","","","","",""
"","S2","","html-keyboard-response","141","213607","0.0-1.0-184.0","0","0","11382","","null","","","null","20","","NaN","","","","","","","","","","","","","",""
"","response","","html-keyboard-response","142","213734","0.0-1.0-185.0-0.0","0","0","11382","","125","","","68","20","","","1","20","training","adjacent","GF","7","6","O.jpg","L.jpg","1","0","0","",""
"","feedback","","html-keyboard-response","143","214736","0.0-1.0-186.0-0.0","0","0","11382","","null","","","null","20","","","","","","","","","","","","","","","",""
"","time_out","","html-keyboard-response","144","216739","0.0-1.0-188.0-0.0","0","0","11382","","null","","","null","20","","","","","","","","","","","","","","","",""
"","ITI","","html-keyboard-response","145","217740","0.0-1.0-189.0","0","0","11382","","null","","","null","20","","","","","","","","","","","","","","","NaN",""
"","S1","","html-keyboard-response","146","217992","0.0-1.0-191.0","0","0","11382","","null","","","null","21","","","","","","","","","","","","","","","",""
"","ISI","","html-keyboard-response","147","218994","0.0-1.0-192.0","0","0","11382","","null","","","null","21","NaN","","","","","","","","","","","","","","",""
"","S2","","html-keyboard-response","148","219247","0.0-1.0-193.0","0","0","11382","","null","","","null","21","","NaN","","","","","","","","","","","","","",""
"","response","","html-keyboard-response","149","219813","0.0-1.0-194.0-0.0","0","0","11382","","565","","","75","21","","","1","21","training","adjacent","BA","2","1","P.jpg","N.jpg","0","0","1","",""
"","feedback","","html-keyboard-response","150","220815","0.0-1.0-195.0-0.0","0","0","11382","","null","","","null","21","","","","","","","","","","","","","","","",""
"","ITI","","html-keyboard-response","151","221816","0.0-1.0-198.0","0","0","11382","","null","","","null","21","","","","","","","","","","","","","","","NaN",""
"","S1","","html-keyboard-response","152","222075","0.0-1.0-200.0","0","0","11382","","null","","","null","22","","","","","","","","","","","","","","","",""
"","ISI","","html-keyboard-response","153","223077","0.0-1.0-201.0","0","0","11382","","null","","","null","22","NaN","","","","","","","","","","","","","","",""
"","S2","","html-keyboard-response","154","223330","0.0-1.0-202.0","0","0","11382","","null","","","null","22","","NaN","","","","","","","","","","","","","",""
"","response","","html-keyboard-response","155","223725","0.0-1.0-203.0-0.0","0","0","11382","","395","","","68","22","","","1","22","training","adjacent","CB","3","2","Q.jpg","P.jpg","1","0","0","",""
"","feedback","","html-keyboard-response","156","224727","0.0-1.0-204.0-0.0","0","0","11382","","null","","","null","22","","","","","","","","","","","","","","","",""
"","time_out","","html-keyboard-response","157","226730","0.0-1.0-206.0-0.0","0","0","11382","","null","","","null","22","","","","","","","","","","","","","","","",""
"","ITI","","html-keyboard-response","158","227732","0.0-1.0-207.0","0","0","11382","","null","","","null","22","","","","","","","","","","","","","","","NaN",""
"","S1","","html-keyboard-response","159","227984","0.0-1.0-209.0","0","0","11382","","null","","","null","23","","","","","","","","","","","","","","","",""
"","ISI","","html-keyboard-response","160","228987","0.0-1.0-210.0","0","0","11382","","null","","","null","23","NaN","","","","","","","","","","","","","","",""
"","S2","","html-keyboard-response","161","229238","0.0-1.0-211.0","0","0","11382","","null","","","null","23","","NaN","","","","","","","","","","","","","",""
"","response","","html-keyboard-response","162","229821","0.0-1.0-212.0-0.0","0","0","11382","","581","","","75","23","","","1","23","training","adjacent","DC","4","3","R.jpg","Q.jpg","0","0","1","",""
"","feedback","","html-keyboard-response","163","230823","0.0-1.0-213.0-0.0","0","0","11382","","null","","","null","23","","","","","","","","","","","","","","","",""
"","ITI","","html-keyboard-response","164","231826","0.0-1.0-216.0","0","0","11382","","null","","","null","23","","","","","","","","","","","","","","","NaN",""
"","S1","","html-keyboard-response","165","232079","0.0-1.0-218.0","0","0","11382","","null","","","null","24","","","","","","","","","","","","","","","",""
"","ISI","","html-keyboard-response","166","233080","0.0-1.0-219.0","0","0","11382","","null","","","null","24","NaN","","","","","","","","","","","","","","",""
"","S2","","html-keyboard-response","167","233332","0.0-1.0-220.0","0","0","11382","","null","","","null","24","","NaN","","","","","","","","","","","","","",""
"","response","","html-keyboard-response","168","233861","0.0-1.0-221.0-0.0","0","0","11382","","529","","","75","24","","","1","24","training","adjacent","ED","5","4","M.jpg","R.jpg","0","0","1","",""
"","feedback","","html-keyboard-response","169","234864","0.0-1.0-222.0-0.0","0","0","11382","","null","","","null","24","","","","","","","","","","","","","","","",""
"","ITI","","html-keyboard-response","170","235866","0.0-1.0-225.0","0","0","11382","","null","","","null","24","","","","","","","","","","","","","","","NaN",""
"","S1","","html-keyboard-response","171","236125","0.0-1.0-227.0","0","0","11382","","null","","","null","25","","","","","","","","","","","","","","","",""
"","ISI","","html-keyboard-response","172","237127","0.0-1.0-228.0","0","0","11382","","null","","","null","25","NaN","","","","","","","","","","","","","","",""
"","S2","","html-keyboard-response","173","237380","0.0-1.0-229.0","0","0","11382","","null","","","null","25","","NaN","","","","","","","","","","","","","",""
"","response","","html-keyboard-response","174","237589","0.0-1.0-230.0-0.0","0","0","11382","","208","","","75","25","","","1","25","training","adjacent","FE","6","5","L.jpg","M.jpg","0","0","1","",""
"","feedback","","html-keyboard-response","175","238592","0.0-1.0-231.0-0.0","0","0","11382","","null","","","null","25","","","","","","","","","","","","","","","",""
"","ITI","","html-keyboard-response","176","239593","0.0-1.0-234.0","0","0","11382","","null","","","null","25","","","","","","","","","","","","","","","NaN",""
"","S1","","html-keyboard-response","177","239845","0.0-1.0-236.0","0","0","11382","","null","","","null","26","","","","","","","","","","","","","","","",""
"","ISI","","html-keyboard-response","178","240848","0.0-1.0-237.0","0","0","11382","","null","","","null","26","NaN","","","","","","","","","","","","","","",""
"","S2","","html-keyboard-response","179","241100","0.0-1.0-238.0","0","0","11382","","null","","","null","26","","NaN","","","","","","","","","","","","","",""
"","response","","html-keyboard-response","180","241430","0.0-1.0-239.0-0.0","0","0","11382","","329","","","75","26","","","1","26","training","adjacent","DE","4","5","R.jpg","M.jpg","0","1","0","",""
"","feedback","","html-keyboard-response","181","242432","0.0-1.0-240.0-0.0","0","0","11382","","null","","","null","26","","","","","","","","","","","","","","","",""
"","time_out","","html-keyboard-response","182","244434","0.0-1.0-242.0-0.0","0","0","11382","","null","","","null","26","","","","","","","","","","","","","","","",""
"","ITI","","html-keyboard-response","183","245436","0.0-1.0-243.0","0","0","11382","","null","","","null","26","","","","","","","","","","","","","","","NaN",""
"","S1","","html-keyboard-response","184","245687","0.0-1.0-245.0","0","0","11382","","null","","","null","27","","","","","","","","","","","","","","","",""
"","ISI","","html-keyboard-response","185","246690","0.0-1.0-246.0","0","0","11382","","null","","","null","27","NaN","","","","","","","","","","","","","","",""
"","S2","","html-keyboard-response","186","246942","0.0-1.0-247.0","0","0","11382","","null","","","null","27","","NaN","","","","","","","","","","","","","",""
"","response","","html-keyboard-response","187","247118","0.0-1.0-248.0-0.0","0","0","11382","","174","","","75","27","","","1","27","training","adjacent","GF","7","6","O.jpg","L.jpg","0","0","1","",""
"","feedback","","html-keyboard-response","188","248119","0.0-1.0-249.0-0.0","0","0","11382","","null","","","null","27","","","","","","","","","","","","","","","",""
"","ITI","","html-keyboard-response","189","249121","0.0-1.0-252.0","0","0","11382","","null","","","null","27","","","","","","","","","","","","","","","NaN",""
"","S1","","html-keyboard-response","190","249373","0.0-1.0-254.0","0","0","11382","","null","","","null","28","","","","","","","","","","","","","","","",""
"","ISI","","html-keyboard-response","191","250376","0.0-1.0-255.0","0","0","11382","","null","","","null","28","NaN","","","","","","","","","","","","","","",""
"","S2","","html-keyboard-response","192","250637","0.0-1.0-256.0","0","0","11382","","null","","","null","28","","NaN","","","","","","","","","","","","","",""
"","response","","html-keyboard-response","193","250965","0.0-1.0-257.0-0.0","0","0","11382","","328","","","75","28","","","1","28","training","adjacent","EF","5","6","M.jpg","L.jpg","0","1","0","",""
"","feedback","","html-keyboard-response","194","251967","0.0-1.0-258.0-0.0","0","0","11382","","null","","","null","28","","","","","","","","","","","","","","","",""
"","time_out","","html-keyboard-response","195","253969","0.0-1.0-260.0-0.0","0","0","11382","","null","","","null","28","","","","","","","","","","","","","","","",""
"","ITI","","html-keyboard-response","196","254971","0.0-1.0-261.0","0","0","11382","","null","","","null","28","","","","","","","","","","","","","","","NaN",""
"","S1","","html-keyboard-response","197","255223","0.0-1.0-263.0","0","0","11382","","null","","","null","29","","","","","","","","","","","","","","","",""
"","ISI","","html-keyboard-response","198","256225","0.0-1.0-264.0","0","0","11382","","null","","","null","29","NaN","","","","","","","","","","","","","","",""
"","S2","","html-keyboard-response","199","256476","0.0-1.0-265.0","0","0","11382","","null","","","null","29","","NaN","","","","","","","","","","","","","",""
"","response","","html-keyboard-response","200","256789","0.0-1.0-266.0-0.0","0","0","11382","","312","","","75","29","","","1","29","training","adjacent","BA","2","1","P.jpg","N.jpg","0","0","1","",""
"","feedback","","html-keyboard-response","201","257792","0.0-1.0-267.0-0.0","0","0","11382","","null","","","null","29","","","","","","","","","","","","","","","",""
"","ITI","","html-keyboard-response","202","258806","0.0-1.0-270.0","0","0","11382","","null","","","null","29","","","","","","","","","","","","","","","NaN",""
"","S1","","html-keyboard-response","203","259058","0.0-1.0-272.0","0","0","11382","","null","","","null","30","","","","","","","","","","","","","","","",""
"","ISI","","html-keyboard-response","204","260060","0.0-1.0-273.0","0","0","11382","","null","","","null","30","NaN","","","","","","","","","","","","","","",""
"","S2","","html-keyboard-response","205","260313","0.0-1.0-274.0","0","0","11382","","null","","","null","30","","NaN","","","","","","","","","","","","","",""
"","response","","html-keyboard-response","206","260726","0.0-1.0-275.0-0.0","0","0","11382","","410","","","68","30","","","1","30","training","adjacent","EF","5","6","M.jpg","L.jpg","1","1","1","",""
"","feedback","","html-keyboard-response","207","261728","0.0-1.0-276.0-0.0","0","0","11382","","null","","","null","30","","","","","","","","","","","","","","","",""
"","ITI","","html-keyboard-response","208","262731","0.0-1.0-279.0","0","0","11382","","null","","","null","30","","","","","","","","","","","","","","","NaN",""
"","S1","","html-keyboard-response","209","262983","0.0-1.0-281.0","0","0","11382","","null","","","null","31","","","","","","","","","","","","","","","",""
"","ISI","","html-keyboard-response","210","263984","0.0-1.0-282.0","0","0","11382","","null","","","null","31","NaN","","","","","","","","","","","","","","",""
"","S2","","html-keyboard-response","211","264237","0.0-1.0-283.0","0","0","11382","","null","","","null","31","","NaN","","","","","","","","","","","","","",""
"","response","","html-keyboard-response","212","264422","0.0-1.0-284.0-0.0","0","0","11382","","184","","","68","31","","","1","31","training","adjacent","AB","1","2","N.jpg","P.jpg","1","1","1","",""
"","feedback","","html-keyboard-response","213","265424","0.0-1.0-285.0-0.0","0","0","11382","","null","","","null","31","","","","","","","","","","","","","","","",""
"","ITI","","html-keyboard-response","214","266426","0.0-1.0-288.0","0","0","11382","","null","","","null","31","","","","","","","","","","","","","","","NaN",""
"","S1","","html-keyboard-response","215","266678","0.0-1.0-290.0","0","0","11382","","null","","","null","32","","","","","","","","","","","","","","","",""
"","ISI","","html-keyboard-response","216","267680","0.0-1.0-291.0","0","0","11382","","null","","","null","32","NaN","","","","","","","","","","","","","","",""
"","S2","","html-keyboard-response","217","267932","0.0-1.0-292.0","0","0","11382","","null","","","null","32","","NaN","","","","","","","","","","","","","",""
"","response","","html-keyboard-response","218","267942","0.0-1.0-293.0-0.0","0","0","11382","","9","","","75","32","","","1","32","training","adjacent","AB","1","2","N.jpg","P.jpg","0","1","0","",""
"","feedback","","html-keyboard-response","219","268944","0.0-1.0-294.0-0.0","0","0","11382","","null","","","null","32","","","","","","","","","","","","","","","",""
"","time_out","","html-keyboard-response","220","270947","0.0-1.0-296.0-0.0","0","0","11382","","null","","","null","32","","","","","","","","","","","","","","","",""
"","ITI","","html-keyboard-response","221","271949","0.0-1.0-297.0","0","0","11382","","null","","","null","32","","","","","","","","","","","","","","","NaN",""
"","S1","","html-keyboard-response","222","272200","0.0-1.0-299.0","0","0","11382","","null","","","null","33","","","","","","","","","","","","","","","",""
"","ISI","","html-keyboard-response","223","273202","0.0-1.0-300.0","0","0","11382","","null","","","null","33","NaN","","","","","","","","","","","","","","",""
"","S2","","html-keyboard-response","224","273454","0.0-1.0-301.0","0","0","11382","","null","","","null","33","","NaN","","","","","","","","","","","","","",""
"","response","","html-keyboard-response","225","273558","0.0-1.0-302.0-0.0","0","0","11382","","103","","","68","33","","","1","33","training","adjacent","FE","6","5","L.jpg","M.jpg","1","0","0","",""
"","feedback","","html-keyboard-response","226","274560","0.0-1.0-303.0-0.0","0","0","11382","","null","","","null","33","","","","","","","","","","","","","","","",""
"","time_out","","html-keyboard-response","227","276562","0.0-1.0-305.0-0.0","0","0","11382","","null","","","null","33","","","","","","","","","","","","","","","",""
"","ITI","","html-keyboard-response","228","277564","0.0-1.0-306.0","0","0","11382","","null","","","null","33","","","","","","","","","","","","","","","NaN",""
"","S1","","html-keyboard-response","229","277815","0.0-1.0-308.0","0","0","11382","","null","","","null","34","","","","","","","","","","","","","","","",""
"","ISI","","html-keyboard-response","230","278817","0.0-1.0-309.0","0","0","11382","","null","","","null","34","NaN","","","","","","","","","","","","","","",""
"","S2","","html-keyboard-response","231","279070","0.0-1.0-310.0","0","0","11382","","null","","","null","34","","NaN","","","","","","","","","","","","","",""
"","response","","html-keyboard-response","232","279134","0.0-1.0-311.0-0.0","0","0","11382","","63","","","75","34","","","1","34","training","adjacent","BC","2","3","P.jpg","Q.jpg","0","1","0","",""
"","feedback","","html-keyboard-response","233","280136","0.0-1.0-312.0-0.0","0","0","11382","","null","","","null","34","","","","","","","","","","","","","","","",""
"","time_out","","html-keyboard-response","234","282138","0.0-1.0-314.0-0.0","0","0","11382","","null","","","null","34","","","","","","","","","","","","","","","",""
"","ITI","","html-keyboard-response","235","283141","0.0-1.0-315.0","0","0","11382","","null","","","null","34","","","","","","","","","","","","","","","NaN",""
"","S1","","html-keyboard-response","236","283393","0.0-1.0-317.0","0","0","11382","","null","","","null","35","","","","","","","","","","","","","","","",""
"","ISI","","html-keyboard-response","237","284396","0.0-1.0-318.0","0","0","11382","","null","","","null","35","NaN","","","","","","","","","","","","","","",""
"","S2","","html-keyboard-response","238","284661","0.0-1.0-319.0","0","0","11382","","null","","","null","35","","NaN","","","","","","","","","","","","","",""
"","response","","html-keyboard-response","239","284694","0.0-1.0-320.0-0.0","0","0","11382","","32","","","68","35","","","1","35","training","adjacent","BA","2","1","P.jpg","N.jpg","1","0","0","",""
"","feedback","","html-keyboard-response","240","285695","0.0-1.0-321.0-0.0","0","0","11382","","null","","","null","35","","","","","","","","","","","","","","","",""
"","time_out","","html-keyboard-response","241","287697","0.0-1.0-323.0-0.0","0","0","11382","","null","","","null","35","","","","","","","","","","","","","","","",""
"","ITI","","html-keyboard-response","242","288700","0.0-1.0-324.0","0","0","11382","","null","","","null","35","","","","","","","","","","","","","","","NaN",""
"","S1","","html-keyboard-response","243","288952","0.0-1.0-326.0","0","0","11382","","null","","","null","36","","","","","","","","","","","","","","","",""
"","ISI","","html-keyboard-response","244","289954","0.0-1.0-327.0","0","0","11382","","null","","","null","36","NaN","","","","","","","","","","","","","","",""
"","S2","","html-keyboard-response","245","290206","0.0-1.0-328.0","0","0","11382","","null","","","null","36","","NaN","","","","","","","","","","","","","",""
"","response","","html-keyboard-response","246","290246","0.0-1.0-329.0-0.0","0","0","11382","","39","","","75","36","","","1","36","training","adjacent","FG","6","7","L.jpg","O.jpg","0","1","0","",""
"","feedback","","html-keyboard-response","247","291248","0.0-1.0-330.0-0.0","0","0","11382","","null","","","null","36","","","","","","","","","","","","","","","",""
"","time_out","","html-keyboard-response","248","293249","0.0-1.0-332.0-0.0","0","0","11382","","null","","","null","36","","","","","","","","","","","","","","","",""
"","ITI","","html-keyboard-response","249","294251","0.0-1.0-333.0","0","0","11382","","null","","","null","36","","","","","","","","","","","","","","","NaN",""
"","S1","","html-keyboard-response","250","294503","0.0-1.0-335.0","0","0","11382","","null","","","null","37","","","","","","","","","","","","","","","",""
"","ISI","","html-keyboard-response","251","295505","0.0-1.0-336.0","0","0","11382","","null","","","null","37","NaN","","","","","","","","","","","","","","",""
"","S2","","html-keyboard-response","252","295757","0.0-1.0-337.0","0","0","11382","","null","","","null","37","","NaN","","","","","","","","","","","","","",""
"","response","","html-keyboard-response","253","296078","0.0-1.0-338.0-0.0","0","0","11382","","320","","","75","37","","","1","37","training","adjacent","BA","2","1","P.jpg","N.jpg","0","0","1","",""
"","feedback","","html-keyboard-response","254","297083","0.0-1.0-339.0-0.0","0","0","11382","","null","","","null","37","","","","","","","","","","","","","","","",""
"","ITI","","html-keyboard-response","255","298085","0.0-1.0-342.0","0","0","11382","","null","","","null","37","","","","","","","","","","","","","","","NaN",""
"","S1","","html-keyboard-response","256","298339","0.0-1.0-344.0","0","0","11382","","null","","","null","38","","","","","","","","","","","","","","","",""
"","ISI","","html-keyboard-response","257","299341","0.0-1.0-345.0","0","0","11382","","null","","","null","38","NaN","","","","","","","","","","","","","","",""
"","S2","","html-keyboard-response","258","299593","0.0-1.0-346.0","0","0","11382","","null","","","null","38","","NaN","","","","","","","","","","","","","",""
"","response","","html-keyboard-response","259","299598","0.0-1.0-347.0-0.0","0","0","11382","","4","","","68","38","","","1","38","training","adjacent","ED","5","4","M.jpg","R.jpg","1","0","0","",""
"","feedback","","html-keyboard-response","260","300600","0.0-1.0-348.0-0.0","0","0","11382","","null","","","null","38","","","","","","","","","","","","","","","",""
"","time_out","","html-keyboard-response","261","302609","0.0-1.0-350.0-0.0","0","0","11382","","null","","","null","38","","","","","","","","","","","","","","","",""
"","ITI","","html-keyboard-response","262","303611","0.0-1.0-351.0","0","0","11382","","null","","","null","38","","","","","","","","","","","","","","","NaN",""
"","S1","","html-keyboard-response","263","303863","0.0-1.0-353.0","0","0","11382","","null","","","null","39","","","","","","","","","","","","","","","",""
"","ISI","","html-keyboard-response","264","304865","0.0-1.0-354.0","0","0","11382","","null","","","null","39","NaN","","","","","","","","","","","","","","",""
"","S2","","html-keyboard-response","265","305118","0.0-1.0-355.0","0","0","11382","","null","","","null","39","","NaN","","","","","","","","","","","","","",""
"","response","","html-keyboard-response","266","305438","0.0-1.0-356.0-0.0","0","0","11382","","319","","","75","39","","","1","39","training","adjacent","CB","3","2","Q.jpg","P.jpg","0","0","1","",""
"","feedback","","html-keyboard-response","267","306441","0.0-1.0-357.0-0.0","0","0","11382","","null","","","null","39","","","","","","","","","","","","","","","",""
"","ITI","","html-keyboard-response","268","307443","0.0-1.0-360.0","0","0","11382","","null","","","null","39","","","","","","","","","","","","","","","NaN",""
"","S1","","html-keyboard-response","269","307696","0.0-1.0-362.0","0","0","11382","","null","","","null","40","","","","","","","","","","","","","","","",""
"","ISI","","html-keyboard-response","270","308698","0.0-1.0-363.0","0","0","11382","","null","","","null","40","NaN","","","","","","","","","","","","","","",""
"","S2","","html-keyboard-response","271","308950","0.0-1.0-364.0","0","0","11382","","null","","","null","40","","NaN","","","","","","","","","","","","","",""
"","response","","html-keyboard-response","272","309390","0.0-1.0-365.0-0.0","0","0","11382","","439","","","68","40","","","1","40","training","adjacent","CB","3","2","Q.jpg","P.jpg","1","0","0","",""
"","feedback","","html-keyboard-response","273","310392","0.0-1.0-366.0-0.0","0","0","11382","","null","","","null","40","","","","","","","","","","","","","","","",""
"","time_out","","html-keyboard-response","274","312394","0.0-1.0-368.0-0.0","0","0","11382","","null","","","null","40","","","","","","","","","","","","","","","",""
"","ITI","","html-keyboard-response","275","313396","0.0-1.0-369.0","0","0","11382","","null","","","null","40","","","","","","","","","","","","","","","NaN",""
"","S1","","html-keyboard-response","276","313648","0.0-1.0-371.0","0","0","11382","","null","","","null","41","","","","","","","","","","","","","","","",""
"","ISI","","html-keyboard-response","277","314663","0.0-1.0-372.0","0","0","11382","","null","","","null","41","NaN","","","","","","","","","","","","","","",""
"","S2","","html-keyboard-response","278","314916","0.0-1.0-373.0","0","0","11382","","null","","","null","41","","NaN","","","","","","","","","","","","","",""
"","response","","html-keyboard-response","279","315134","0.0-1.0-374.0-0.0","0","0","11382","","217","","","68","41","","","1","41","training","adjacent","CD","3","4","Q.jpg","R.jpg","1","1","1","",""
"","feedback","","html-keyboard-response","280","316136","0.0-1.0-375.0-0.0","0","0","11382","","null","","","null","41","","","","","","","","","","","","","","","",""
"","ITI","","html-keyboard-response","281","317147","0.0-1.0-378.0","0","0","11382","","null","","","null","41","","","","","","","","","","","","","","","NaN",""
"","S1","","html-keyboard-response","282","317400","0.0-1.0-380.0","0","0","11382","","null","","","null","42","","","","","","","","","","","","","","","",""
"","ISI","","html-keyboard-response","283","318402","0.0-1.0-381.0","0","0","11382","","null","","","null","42","NaN","","","","","","","","","","","","","","",""
"","S2","","html-keyboard-response","284","318614","0.0-1.0-382.0","0","0","11382","","211","","","75","42","","k","1","42","training","adjacent","CD","3","4","Q.jpg","R.jpg","0","1","0","",""
"","feedback","","html-keyboard-response","285","319616","0.0-1.0-384.0-0.0","0","0","11382","","null","","","null","42","","","","","","","","","","","","","","","",""
"","time_out","","html-keyboard-response","286","321619","0.0-1.0-386.0-0.0","0","0","11382","","null","","","null","42","","","","","","","","","","","","","","","",""
"","ITI","","html-keyboard-response","287","322621","0.0-1.0-387.0","0","0","11382","","null","","","null","42","","","","","","","","","","","","","","","NaN",""
"","S1","","html-keyboard-response","288","322873","0.0-1.0-389.0","0","0","11382","","null","","","null","43","","","","","","","","","","","","","","","",""
"","ISI","","html-keyboard-response","289","323875","0.0-1.0-390.0","0","0","11382","","null","","","null","43","NaN","","","","","","","","","","","","","","",""
"","S2","","html-keyboard-response","290","324126","0.0-1.0-391.0","0","0","11382","","249","","","68","43","","d","1","43","training","adjacent","FG","6","7","L.jpg","O.jpg","1","1","1","",""
"","feedback","","html-keyboard-response","291","325129","0.0-1.0-393.0-0.0","0","0","11382","","null","","","null","43","","","","","","","","","","","","","","","",""
"","ITI","","html-keyboard-response","292","326131","0.0-1.0-396.0","0","0","11382","","null","","","null","43","","","","","","","","","","","","","","","NaN",""
"","S1","","html-keyboard-response","293","326383","0.0-1.0-398.0","0","0","11382","","null","","","null","44","","","","","","","","","","","","","","","",""
"","ISI","","html-keyboard-response","294","327385","0.0-1.0-399.0","0","0","11382","","null","","","null","44","NaN","","","","","","","","","","","","","","",""
"","S2","","html-keyboard-response","295","327638","0.0-1.0-400.0","0","0","11382","","null","","","null","44","","NaN","","","","","","","","","","","","","",""
"","response","","html-keyboard-response","296","327790","0.0-1.0-401.0-0.0","0","0","11382","","151","","","68","44","","","1","44","training","adjacent","CD","3","4","Q.jpg","R.jpg","1","1","1","",""
"","feedback","","html-keyboard-response","297","328791","0.0-1.0-402.0-0.0","0","0","11382","","null","","","null","44","","","","","","","","","","","","","","","",""
"","ITI","","html-keyboard-response","298","329793","0.0-1.0-405.0","0","0","11382","","null","","","null","44","","","","","","","","","","","","","","","NaN",""
"","S1","","html-keyboard-response","299","330046","0.0-1.0-407.0","0","0","11382","","null","","","null","45","","","","","","","","","","","","","","","",""
"","ISI","","html-keyboard-response","300","331047","0.0-1.0-408.0","0","0","11382","","null","","","null","45","NaN","","","","","","","","","","","","","","",""
"","S2","","html-keyboard-response","301","331312","0.0-1.0-409.0","0","0","11382","","null","","","null","45","","NaN","","","","","","","","","","","","","",""
"","response","","html-keyboard-response","302","331342","0.0-1.0-410.0-0.0","0","0","11382","","29","","","75","45","","","1","45","training","adjacent","GF","7","6","O.jpg","L.jpg","0","0","1","",""
"","feedback","","html-keyboard-response","303","332344","0.0-1.0-411.0-0.0","0","0","11382","","null","","","null","45","","","","","","","","","","","","","","","",""
"","ITI","","html-keyboard-response","304","333346","0.0-1.0-414.0","0","0","11382","","null","","","null","45","","","","","","","","","","","","","","","NaN",""
"","S1","","html-keyboard-response","305","333606","0.0-1.0-416.0","0","0","11382","","null","","","null","46","","","","","","","","","","","","","","","",""
"","ISI","","html-keyboard-response","306","334607","0.0-1.0-417.0","0","0","11382","","null","","","null","46","NaN","","","","","","","","","","","","","","",""
"","S2","","html-keyboard-response","307","334860","0.0-1.0-418.0","0","0","11382","","null","","","null","46","","NaN","","","","","","","","","","","","","",""
"","response","","html-keyboard-response","308","334950","0.0-1.0-419.0-0.0","0","0","11382","","89","","","75","46","","","1","46","training","adjacent","BC","2","3","P.jpg","Q.jpg","0","1","0","",""
"","feedback","","html-keyboard-response","309","335952","0.0-1.0-420.0-0.0","0","0","11382","","null","","","null","46","","","","","","","","","","","","","","","",""
"","time_out","","html-keyboard-response","310","337965","0.0-1.0-422.0-0.0","0","0","11382","","null","","","null","46","","","","","","","","","","","","","","","",""
"","ITI","","html-keyboard-response","311","338967","0.0-1.0-423.0","0","0","11382","","null","","","null","46","","","","","","","","","","","","","","","NaN",""
"","S1","","html-keyboard-response","312","339219","0.0-1.0-425.0","0","0","11382","","null","","","null","47","","","","","","","","","","","","","","","",""
"","ISI","","html-keyboard-response","313","340221","0.0-1.0-426.0","0","0","11382","","null","","","null","47","NaN","","","","","","","","","","","","","","",""
"","S2","","html-keyboard-response","314","340473","0.0-1.0-427.0","0","0","11382","","null","","","null","47","","NaN","","","","","","","","","","","","","",""
"","response","","html-keyboard-response","315","340662","0.0-1.0-428.0-0.0","0","0","11382","","188","","","68","47","","","1","47","training","adjacent","FE","6","5","L.jpg","M.jpg","1","0","0","",""
"","feedback","","html-keyboard-response","316","341665","0.0-1.0-429.0-0.0","0","0","11382","","null","","","null","47","","","","","","","","","","","","","","","",""
"","time_out","","html-keyboard-response","317","343667","0.0-1.0-431.0-0.0","0","0","11382","","null","","","null","47","","","","","","","","","","","","","","","",""
"","ITI","","html-keyboard-response","318","344669","0.0-1.0-432.0","0","0","11382","","null","","","null","47","","","","","","","","","","","","","","","NaN",""
"","block_over","","html-keyboard-response","319","349702","0.0-1.0-433.0-0.0","0","0","11382","","5032","","","32","47","","","","","","","","","","","","","","","",""
"","S1","","html-keyboard-response","320","349954","0.0-1.0-434.0","0","0","11382","","null","","","null","48","","","","","","","","","","","","","","","",""
"","ISI","","html-keyboard-response","321","350957","0.0-1.0-435.0","0","0","11382","","null","","","null","48","NaN","","","","","","","","","","","","","","",""
"","S2","","html-keyboard-response","322","351209","0.0-1.0-436.0","0","0","11382","","null","","","null","48","","NaN","","","","","","","","","","","","","",""
"","response","","html-keyboard-response","323","351374","0.0-1.0-437.0-0.0","0","0","11382","","163","","","75","48","","","2","48","training","adjacent","BC","2","3","P.jpg","Q.jpg","0","1","0","",""
"","feedback","","html-keyboard-response","324","352376","0.0-1.0-438.0-0.0","0","0","11382","","null","","","null","48","","","","","","","","","","","","","","","",""
"","time_out","","html-keyboard-response","325","354378","0.0-1.0-440.0-0.0","0","0","11382","","null","","","null","48","","","","","","","","","","","","","","","",""
"","ITI","","html-keyboard-response","326","355380","0.0-1.0-441.0","0","0","11382","","null","","","null","48","","","","","","","","","","","","","","","NaN",""
"","S1","","html-keyboard-response","327","355632","0.0-1.0-443.0","0","0","11382","","null","","","null","49","","","","","","","","","","","","","","","",""
"","ISI","","html-keyboard-response","328","356634","0.0-1.0-444.0","0","0","11382","","null","","","null","49","NaN","","","","","","","","","","","","","","",""
"","S2","","html-keyboard-response","329","356886","0.0-1.0-445.0","0","0","11382","","null","","","null","49","","NaN","","","","","","","","","","","","","",""
"","response","","html-keyboard-response","330","357646","0.0-1.0-446.0-0.0","0","0","11382","","759","","","75","49","","","2","49","training","adjacent","DC","4","3","R.jpg","Q.jpg","0","0","1","",""
"","feedback","","html-keyboard-response","331","358648","0.0-1.0-447.0-0.0","0","0","11382","","null","","","null","49","","","","","","","","","","","","","","","",""
"","ITI","","html-keyboard-response","332","359650","0.0-1.0-450.0","0","0","11382","","null","","","null","49","","","","","","","","","","","","","","","NaN",""
"","S1","","html-keyboard-response","333","359902","0.0-1.0-452.0","0","0","11382","","null","","","null","50","","","","","","","","","","","","","","","",""
"","ISI","","html-keyboard-response","334","360905","0.0-1.0-453.0","0","0","11382","","null","","","null","50","NaN","","","","","","","","","","","","","","",""
"","S2","","html-keyboard-response","335","361157","0.0-1.0-454.0","0","0","11382","","null","","","null","50","","NaN","","","","","","","","","","","","","",""
"","response","","html-keyboard-response","336","361582","0.0-1.0-455.0-0.0","0","0","11382","","424","","","75","50","","","2","50","training","adjacent","ED","5","4","M.jpg","R.jpg","0","0","1","",""
"","feedback","","html-keyboard-response","337","362585","0.0-1.0-456.0-0.0","0","0","11382","","null","","","null","50","","","","","","","","","","","","","","","",""
"","ITI","","html-keyboard-response","338","363587","0.0-1.0-459.0","0","0","11382","","null","","","null","50","","","","","","","","","","","","","","","NaN",""
"","S1","","html-keyboard-response","339","363853","0.0-1.0-461.0","0","0","11382","","null","","","null","51","","","","","","","","","","","","","","","",""
"","ISI","","html-keyboard-response","340","364855","0.0-1.0-462.0","0","0","11382","","null","","","null","51","NaN","","","","","","","","","","","","","","",""
"","S2","","html-keyboard-response","341","365107","0.0-1.0-463.0","0","0","11382","","null","","","null","51","","NaN","","","","","","","","","","","","","",""
"","response","","html-keyboard-response","342","365534","0.0-1.0-464.0-0.0","0","0","11382","","426","","","68","51","","","2","51","training","adjacent","AB","1","2","N.jpg","P.jpg","1","1","1","",""
"","feedback","","html-keyboard-response","343","366536","0.0-1.0-465.0-0.0","0","0","11382","","null","","","null","51","","","","","","","","","","","","","","","",""
"","ITI","","html-keyboard-response","344","367538","0.0-1.0-468.0","0","0","11382","","null","","","null","51","","","","","","","","","","","","","","","NaN",""
"","S1","","html-keyboard-response","345","367790","0.0-1.0-470.0","0","0","11382","","null","","","null","52","","","","","","","","","","","","","","","",""
"","ISI","","html-keyboard-response","346","368792","0.0-1.0-471.0","0","0","11382","","null","","","null","52","NaN","","","","","","","","","","","","","","",""
"","S2","","html-keyboard-response","347","369044","0.0-1.0-472.0","0","0","11382","","null","","","null","52","","NaN","","","","","","","","","","","","","",""
"","response","","html-keyboard-response","348","369518","0.0-1.0-473.0-0.0","0","0","11382","","473","","","75","52","","","2","52","training","adjacent","GF","7","6","O.jpg","L.jpg","0","0","1","",""
"","feedback","","html-keyboard-response","349","370521","0.0-1.0-474.0-0.0","0","0","11382","","null","","","null","52","","","","","","","","","","","","","","","",""
"","ITI","","html-keyboard-response","350","371523","0.0-1.0-477.0","0","0","11382","","null","","","null","52","","","","","","","","","","","","","","","NaN",""
"","S1","","html-keyboard-response","351","371776","0.0-1.0-479.0","0","0","11382","","null","","","null","53","","","","","","","","","","","","","","","",""
"","ISI","","html-keyboard-response","352","372790","0.0-1.0-480.0","0","0","11382","","null","","","null","53","NaN","","","","","","","","","","","","","","",""
"","S2","","html-keyboard-response","353","373043","0.0-1.0-481.0","0","0","11382","","null","","","null","53","","NaN","","","","","","","","","","","","","",""
"","response","","html-keyboard-response","354","373174","0.0-1.0-482.0-0.0","0","0","11382","","130","","","68","53","","","2","53","training","adjacent","FE","6","5","L.jpg","M.jpg","1","0","0","",""
"","feedback","","html-keyboard-response","355","374177","0.0-1.0-483.0-0.0","0","0","11382","","null","","","null","53","","","","","","","","","","","","","","","",""
"","time_out","","html-keyboard-response","356","376179","0.0-1.0-485.0-0.0","0","0","11382","","null","","","null","53","","","","","","","","","","","","","","","",""
"","ITI","","html-keyboard-response","357","377181","0.0-1.0-486.0","0","0","11382","","null","","","null","53","","","","","","","","","","","","","","","NaN",""
"","S1","","html-keyboard-response","358","377433","0.0-1.0-488.0","0","0","11382","","null","","","null","54","","","","","","","","","","","","","","","",""
"","ISI","","html-keyboard-response","359","378435","0.0-1.0-489.0","0","0","11382","","null","","","null","54","NaN","","","","","","","","","","","","","","",""
"","S2","","html-keyboard-response","360","378687","0.0-1.0-490.0","0","0","11382","","null","","","null","54","","NaN","","","","","","","","","","","","","",""
"","response","","html-keyboard-response","361","378998","0.0-1.0-491.0-0.0","0","0","11382","","309","","","75","54","","","2","54","training","adjacent","BC","2","3","P.jpg","Q.jpg","0","1","0","",""
"","feedback","","html-keyboard-response","362","380007","0.0-1.0-492.0-0.0","0","0","11382","","null","","","null","54","","","","","","","","","","","","","","","",""
"","time_out","","html-keyboard-response","363","382008","0.0-1.0-494.0-0.0","0","0","11382","","null","","","null","54","","","","","","","","","","","","","","","",""
"","ITI","","html-keyboard-response","364","383009","0.0-1.0-495.0","0","0","11382","","null","","","null","54","","","","","","","","","","","","","","","NaN",""
"","S1","","html-keyboard-response","365","383262","0.0-1.0-497.0","0","0","11382","","null","","","null","55","","","","","","","","","","","","","","","",""
"","ISI","","html-keyboard-response","366","384263","0.0-1.0-498.0","0","0","11382","","null","","","null","55","NaN","","","","","","","","","","","","","","",""
"","S2","","html-keyboard-response","367","384515","0.0-1.0-499.0","0","0","11382","","null","","","null","55","","NaN","","","","","","","","","","","","","",""
"","response","","html-keyboard-response","368","384877","0.0-1.0-500.0-0.0","0","0","11382","","361","","","75","55","","","2","55","training","adjacent","FE","6","5","L.jpg","M.jpg","0","0","1","",""
"","feedback","","html-keyboard-response","369","385888","0.0-1.0-501.0-0.0","0","0","11382","","null","","","null","55","","","","","","","","","","","","","","","",""
"","ITI","","html-keyboard-response","370","386890","0.0-1.0-504.0","0","0","11382","","null","","","null","55","","","","","","","","","","","","","","","NaN",""
"","S1","","html-keyboard-response","371","387143","0.0-1.0-506.0","0","0","11382","","null","","","null","56","","","","","","","","","","","","","","","",""
"","ISI","","html-keyboard-response","372","388144","0.0-1.0-507.0","0","0","11382","","null","","","null","56","NaN","","","","","","","","","","","","","","",""
"","S2","","html-keyboard-response","373","388396","0.0-1.0-508.0","0","0","11382","","null","","","null","56","","NaN","","","","","","","","","","","","","",""
"","response","","html-keyboard-response","374","388541","0.0-1.0-509.0-0.0","0","0","11382","","145","","","68","56","","","2","56","training","adjacent","BA","2","1","P.jpg","N.jpg","1","0","0","",""
"","feedback","","html-keyboard-response","375","389544","0.0-1.0-510.0-0.0","0","0","11382","","null","","","null","56","","","","","","","","","","","","","","","",""
"","time_out","","html-keyboard-response","376","391547","0.0-1.0-512.0-0.0","0","0","11382","","null","","","null","56","","","","","","","","","","","","","","","",""
"","ITI","","html-keyboard-response","377","392549","0.0-1.0-513.0","0","0","11382","","null","","","null","56","","","","","","","","","","","","","","","NaN",""
"","S1","","html-keyboard-response","378","392801","0.0-1.0-515.0","0","0","11382","","null","","","null","57","","","","","","","","","","","","","","","",""
"","ISI","","html-keyboard-response","379","393803","0.0-1.0-516.0","0","0","11382","","null","","","null","57","NaN","","","","","","","","","","","","","","",""
"","S2","","html-keyboard-response","380","394055","0.0-1.0-517.0","0","0","11382","","null","","","null","57","","NaN","","","","","","","","","","","","","",""
"","response","","html-keyboard-response","381","394086","0.0-1.0-518.0-0.0","0","0","11382","","29","","","75","57","","","2","57","training","adjacent","CD","3","4","Q.jpg","R.jpg","0","1","0","",""
"","feedback","","html-keyboard-response","382","395087","0.0-1.0-519.0-0.0","0","0","11382","","null","","","null","57","","","","","","","","","","","","","","","",""
"","time_out","","html-keyboard-response","383","397090","0.0-1.0-521.0-0.0","0","0","11382","","null","","","null","57","","","","","","","","","","","","","","","",""
"","ITI","","html-keyboard-response","384","398092","0.0-1.0-522.0","0","0","11382","","null","","","null","57","","","","","","","","","","","","","","","NaN",""
"","S1","","html-keyboard-response","385","398344","0.0-1.0-524.0","0","0","11382","","null","","","null","58","","","","","","","","","","","","","","","",""
"","ISI","","html-keyboard-response","386","399347","0.0-1.0-525.0","0","0","11382","","null","","","null","58","NaN","","","","","","","","","","","","","","",""
"","S2","","html-keyboard-response","387","399599","0.0-1.0-526.0","0","0","11382","","null","","","null","58","","NaN","","","","","","","","","","","","","",""
"","response","","html-keyboard-response","388","399654","0.0-1.0-527.0-0.0","0","0","11382","","54","","","68","58","","","2","58","training","adjacent","BC","2","3","P.jpg","Q.jpg","1","1","1","",""
"","feedback","","html-keyboard-response","389","400656","0.0-1.0-528.0-0.0","0","0","11382","","null","","","null","58","","","","","","","","","","","","","","","",""
"","ITI","","html-keyboard-response","390","401658","0.0-1.0-531.0","0","0","11382","","null","","","null","58","","","","","","","","","","","","","","","NaN",""
"","S1","","html-keyboard-response","391","401910","0.0-1.0-533.0","0","0","11382","","null","","","null","59","","","","","","","","","","","","","","","",""
"","ISI","","html-keyboard-response","392","402912","0.0-1.0-534.0","0","0","11382","","null","","","null","59","NaN","","","","","","","","","","","","","","",""
"","S2","","html-keyboard-response","393","403168","0.0-1.0-535.0","0","0","11382","","null","","","null","59","","NaN","","","","","","","","","","","","","",""
"","response","","html-keyboard-response","394","404920","0.0-1.0-536.0-0.0","0","0","11382","","null","","","null","59","","","2","59","training","adjacent","FE","6","5","L.jpg","M.jpg","NaN","0","0","",""
"","too_slow_prompt","","html-keyboard-response","395","405922","0.0-1.0-538.0-0.0","1","0","11382","","null","","","null","","","","","","","","","","","","","","","","",""
"","time_out","","html-keyboard-response","396","407924","0.0-1.0-539.0-0.0","0","0","11382","","null","","","null","59","","","","","","","","","","","","","","","",""
"","ITI","","html-keyboard-response","397","408939","0.0-1.0-540.0","0","0","11382","","null","","","null","59","","","","","","","","","","","","","","","NaN",""
"","S1","","html-keyboard-response","398","409191","0.0-1.0-542.0","0","0","11382","","null","","","null","60","","","","","","","","","","","","","","","",""
"","ISI","","html-keyboard-response","399","410193","0.0-1.0-543.0","0","0","11382","","null","","","null","60","NaN","","","","","","","","","","","","","","",""
"","S2","","html-keyboard-response","400","410445","0.0-1.0-544.0","0","0","11382","","null","","","null","60","","NaN","","","","","","","","","","","","","",""
"","response","","html-keyboard-response","401","410654","0.0-1.0-545.0-0.0","0","0","11382","","208","","","75","60","","","2","60","training","adjacent","DE","4","5","R.jpg","M.jpg","0","1","0","",""
"","feedback","","html-keyboard-response","402","411656","0.0-1.0-546.0-0.0","0","0","11382","","null","","","null","60","","","","","","","","","","","","","","","",""
"","time_out","","html-keyboard-response","403","413658","0.0-1.0-548.0-0.0","0","0","11382","","null","","","null","60","","","","","","","","","","","","","","","",""
"","ITI","","html-keyboard-response","404","414661","0.0-1.0-549.0","0","0","11382","","null","","","null","60","","","","","","","","","","","","","","","NaN",""
"","S1","","html-keyboard-response","405","414912","0.0-1.0-551.0","0","0","11382","","null","","","null","61","","","","","","","","","","","","","","","",""
"","ISI","","html-keyboard-response","406","415915","0.0-1.0-552.0","0","0","11382","","null","","","null","61","NaN","","","","","","","","","","","","","","",""
"","S2","","html-keyboard-response","407","416166","0.0-1.0-553.0","0","0","11382","","null","","","null","61","","NaN","","","","","","","","","","","","","",""
"","response","","html-keyboard-response","408","417206","0.0-1.0-554.0-0.0","0","0","11382","","1038","","","68","61","","","2","61","training","adjacent","FE","6","5","L.jpg","M.jpg","1","0","0","",""
"","feedback","","html-keyboard-response","409","418208","0.0-1.0-555.0-0.0","0","0","11382","","null","","","null","61","","","","","","","","","","","","","","","",""
"","time_out","","html-keyboard-response","410","420210","0.0-1.0-557.0-0.0","0","0","11382","","null","","","null","61","","","","","","","","","","","","","","","",""
"","ITI","","html-keyboard-response","411","421212","0.0-1.0-558.0","0","0","11382","","null","","","null","61","","","","","","","","","","","","","","","NaN",""
"","S1","","html-keyboard-response","412","421465","0.0-1.0-560.0","0","0","11382","","null","","","null","62","","","","","","","","","","","","","","","",""
"","ISI","","html-keyboard-response","413","422468","0.0-1.0-561.0","0","0","11382","","null","","","null","62","NaN","","","","","","","","","","","","","","",""
"","S2","","html-keyboard-response","414","422720","0.0-1.0-562.0","0","0","11382","","null","","","null","62","","NaN","","","","","","","","","","","","","",""
"","response","","html-keyboard-response","415","423181","0.0-1.0-563.0-0.0","0","0","11382","","460","","","75","62","","","2","62","training","adjacent","DC","4","3","R.jpg","Q.jpg","0","0","1","",""
"","feedback","","html-keyboard-response","416","424184","0.0-1.0-564.0-0.0","0","0","11382","","null","","","null","62","","","","","","","","","","","","","","","",""
"","ITI","","html-keyboard-response","417","425187","0.0-1.0-567.0","0","0","11382","","null","","","null","62","","","","","","","","","","","","","","","NaN",""
"","S1","","html-keyboard-response","418","425439","0.0-1.0-569.0","0","0","11382","","null","","","null","63","","","","","","","","","","","","","","","",""
"","ISI","","html-keyboard-response","419","426442","0.0-1.0-570.0","0","0","11382","","null","","","null","63","NaN","","","","","","","","","","","","","","",""
"","S2","","html-keyboard-response","420","426694","0.0-1.0-571.0","0","0","11382","","null","","","null","63","","NaN","","","","","","","","","","","","","",""
"","response","","html-keyboard-response","421","428446","0.0-1.0-572.0-0.0","0","0","11382","","null","","","null","63","","","2","63","training","adjacent","EF","5","6","M.jpg","L.jpg","NaN","1","0","",""
"","too_slow_prompt","","html-keyboard-response","422","429449","0.0-1.0-574.0-0.0","1","0","11382","","null","","","null","","","","","","","","","","","","","","","","",""
"","time_out","","html-keyboard-response","423","431451","0.0-1.0-575.0-0.0","0","0","11382","","null","","","null","63","","","","","","","","","","","","","","","",""
"","ITI","","html-keyboard-response","424","432452","0.0-1.0-576.0","0","0","11382","","null","","","null","63","","","","","","","","","","","","","","","NaN",""
"","S1","","html-keyboard-response","425","432705","0.0-1.0-578.0","0","0","11382","","null","","","null","64","","","","","","","","","","","","","","","",""
"","ISI","","html-keyboard-response","426","433707","0.0-1.0-579.0","0","0","11382","","null","","","null","64","NaN","","","","","","","","","","","","","","",""
"","S2","","html-keyboard-response","427","433959","0.0-1.0-580.0","0","0","11382","","null","","","null","64","","NaN","","","","","","","","","","","","","",""
"","response","","html-keyboard-response","428","435711","0.0-1.0-581.0-0.0","0","0","11382","","null","","","null","64","","","2","64","training","adjacent","FG","6","7","L.jpg","O.jpg","NaN","1","0","",""
"","too_slow_prompt","","html-keyboard-response","429","436714","0.0-1.0-583.0-0.0","1","0","11382","","null","","","null","","","","","","","","","","","","","","","","",""
"","time_out","","html-keyboard-response","430","438716","0.0-1.0-584.0-0.0","0","0","11382","","null","","","null","64","","","","","","","","","","","","","","","",""
"","ITI","","html-keyboard-response","431","439718","0.0-1.0-585.0","0","0","11382","","null","","","null","64","","","","","","","","","","","","","","","NaN",""
"","S1","","html-keyboard-response","432","439970","0.0-1.0-587.0","0","0","11382","","null","","","null","65","","","","","","","","","","","","","","","",""
"","ISI","","html-keyboard-response","433","440972","0.0-1.0-588.0","0","0","11382","","null","","","null","65","NaN","","","","","","","","","","","","","","",""
"","S2","","html-keyboard-response","434","441224","0.0-1.0-589.0","0","0","11382","","null","","","null","65","","NaN","","","","","","","","","","","","","",""
"","response","","html-keyboard-response","435","442976","0.0-1.0-590.0-0.0","0","0","11382","","null","","","null","65","","","2","65","training","adjacent","DC","4","3","R.jpg","Q.jpg","NaN","0","0","",""
"","too_slow_prompt","","html-keyboard-response","436","443979","0.0-1.0-592.0-0.0","1","0","11382","","null","","","null","","","","","","","","","","","","","","","","",""
"","time_out","","html-keyboard-response","437","445981","0.0-1.0-593.0-0.0","0","0","11382","","null","","","null","65","","","","","","","","","","","","","","","",""
"","ITI","","html-keyboard-response","438","446984","0.0-1.0-594.0","0","0","11382","","null","","","null","65","","","","","","","","","","","","","","","NaN",""
"","S1","","html-keyboard-response","439","447236","0.0-1.0-596.0","0","0","11382","","null","","","null","66","","","","","","","","","","","","","","","",""
"","ISI","","html-keyboard-response","440","448239","0.0-1.0-597.0","0","0","11382","","314","","","68","66","d","","","","","","","","","","","","","","",""
"","S2","","html-keyboard-response","441","448478","0.0-1.0-598.0","0","0","11382","","238","","","68","66","","d","2","66","training","adjacent","EF","5","6","M.jpg","L.jpg","1","1","1","",""
"","feedback","","html-keyboard-response","442","449481","0.0-1.0-600.0-0.0","0","0","11382","","null","","","null","66","","","","","","","","","","","","","","","",""
"","ITI","","html-keyboard-response","443","450483","0.0-1.0-603.0","0","0","11382","","null","","","null","66","","","","","","","","","","","","","","","NaN",""
"","S1","","html-keyboard-response","444","450734","0.0-1.0-605.0","0","0","11382","","null","","","null","67","","","","","","","","","","","","","","","",""
"","ISI","","html-keyboard-response","445","451736","0.0-1.0-606.0","0","0","11382","","null","","","null","67","NaN","","","","","","","","","","","","","","",""
"","S2","","html-keyboard-response","446","451991","0.0-1.0-607.0","0","0","11382","","null","","","null","67","","NaN","","","","","","","","","","","","","",""
"","response","","html-keyboard-response","447","452679","0.0-1.0-608.0-0.0","0","0","11382","","687","","","75","67","","","2","67","training","adjacent","AB","1","2","N.jpg","P.jpg","0","1","0","",""
"","feedback","","html-keyboard-response","448","453681","0.0-1.0-609.0-0.0","0","0","11382","","null","","","null","67","","","","","","","","","","","","","","","",""
"","time_out","","html-keyboard-response","449","455683","0.0-1.0-611.0-0.0","0","0","11382","","null","","","null","67","","","","","","","","","","","","","","","",""
"","ITI","","html-keyboard-response","450","456686","0.0-1.0-612.0","0","0","11382","","null","","","null","67","","","","","","","","","","","","","","","NaN",""
"","S1","","html-keyboard-response","451","456938","0.0-1.0-614.0","0","0","11382","","null","","","null","68","","","","","","","","","","","","","","","",""
"","ISI","","html-keyboard-response","452","457953","0.0-1.0-615.0","0","0","11382","","null","","","null","68","NaN","","","","","","","","","","","","","","",""
"","S2","","html-keyboard-response","453","458205","0.0-1.0-616.0","0","0","11382","","null","","","null","68","","NaN","","","","","","","","","","","","","",""
"","response","","html-keyboard-response","454","458422","0.0-1.0-617.0-0.0","0","0","11382","","216","","","75","68","","","2","68","training","adjacent","DE","4","5","R.jpg","M.jpg","0","1","0","",""
"","feedback","","html-keyboard-response","455","459424","0.0-1.0-618.0-0.0","0","0","11382","","null","","","null","68","","","","","","","","","","","","","","","",""
"","time_out","","html-keyboard-response","456","461426","0.0-1.0-620.0-0.0","0","0","11382","","null","","","null","68","","","","","","","","","","","","","","","",""
"","ITI","","html-keyboard-response","457","462429","0.0-1.0-621.0","0","0","11382","","null","","","null","68","","","","","","","","","","","","","","","NaN",""
"","S1","","html-keyboard-response","458","462681","0.0-1.0-623.0","0","0","11382","","null","","","null","69","","","","","","","","","","","","","","","",""
"","ISI","","html-keyboard-response","459","463684","0.0-1.0-624.0","0","0","11382","","null","","","null","69","NaN","","","","","","","","","","","","","","",""
"","S2","","html-keyboard-response","460","463936","0.0-1.0-625.0","0","0","11382","","null","","","null","69","","NaN","","","","","","","","","","","","","",""
"","response","","html-keyboard-response","461","464022","0.0-1.0-626.0-0.0","0","0","11382","","85","","","75","69","","","2","69","training","adjacent","AB","1","2","N.jpg","P.jpg","0","1","0","",""
"","feedback","","html-keyboard-response","462","465024","0.0-1.0-627.0-0.0","0","0","11382","","null","","","null","69","","","","","","","","","","","","","","","",""
"","time_out","","html-keyboard-response","463","467025","0.0-1.0-629.0-0.0","0","0","11382","","null","","","null","69","","","","","","","","","","","","","","","",""
"","ITI","","html-keyboard-response","464","468028","0.0-1.0-630.0","0","0","11382","","null","","","null","69","","","","","","","","","","","","","","","NaN",""
"","S1","","html-keyboard-response","465","468289","0.0-1.0-632.0","0","0","11382","","null","","","null","70","","","","","","","","","","","","","","","",""
"","ISI","","html-keyboard-response","466","469291","0.0-1.0-633.0","0","0","11382","","null","","","null","70","NaN","","","","","","","","","","","","","","",""
"","S2","","html-keyboard-response","467","469543","0.0-1.0-634.0","0","0","11382","","null","","","null","70","","NaN","","","","","","","","","","","","","",""
"","response","","html-keyboard-response","468","469918","0.0-1.0-635.0-0.0","0","0","11382","","373","","","75","70","","","2","70","training","adjacent","AB","1","2","N.jpg","P.jpg","0","1","0","",""
"","feedback","","html-keyboard-response","469","470921","0.0-1.0-636.0-0.0","0","0","11382","","null","","","null","70","","","","","","","","","","","","","","","",""
"","time_out","","html-keyboard-response","470","472922","0.0-1.0-638.0-0.0","0","0","11382","","null","","","null","70","","","","","","","","","","","","","","","",""
"","ITI","","html-keyboard-response","471","473925","0.0-1.0-639.0","0","0","11382","","null","","","null","70","","","","","","","","","","","","","","","NaN",""
"","S1","","html-keyboard-response","472","474177","0.0-1.0-641.0","0","0","11382","","null","","","null","71","","","","","","","","","","","","","","","",""
"","ISI","","html-keyboard-response","473","475178","0.0-1.0-642.0","0","0","11382","","null","","","null","71","NaN","","","","","","","","","","","","","","",""
"","S2","","html-keyboard-response","474","475431","0.0-1.0-643.0","0","0","11382","","null","","","null","71","","NaN","","","","","","","","","","","","","",""
"","response","","html-keyboard-response","475","475966","0.0-1.0-644.0-0.0","0","0","11382","","534","","","75","71","","","2","71","training","adjacent","DC","4","3","R.jpg","Q.jpg","0","0","1","",""
"","feedback","","html-keyboard-response","476","476969","0.0-1.0-645.0-0.0","0","0","11382","","null","","","null","71","","","","","","","","","","","","","","","",""
"","ITI","","html-keyboard-response","477","477972","0.0-1.0-648.0","0","0","11382","","null","","","null","71","","","","","","","","","","","","","","","NaN",""
"","S1","","html-keyboard-response","478","478224","0.0-1.0-650.0","0","0","11382","","null","","","null","72","","","","","","","","","","","","","","","",""
"","ISI","","html-keyboard-response","479","479226","0.0-1.0-651.0","0","0","11382","","null","","","null","72","NaN","","","","","","","","","","","","","","",""
"","S2","","html-keyboard-response","480","479479","0.0-1.0-652.0","0","0","11382","","null","","","null","72","","NaN","","","","","","","","","","","","","",""
"","response","","html-keyboard-response","481","481231","0.0-1.0-653.0-0.0","0","0","11382","","null","","","null","72","","","2","72","training","adjacent","DE","4","5","R.jpg","M.jpg","NaN","1","0","",""
"","too_slow_prompt","","html-keyboard-response","482","482234","0.0-1.0-655.0-0.0","1","0","11382","","null","","","null","","","","","","","","","","","","","","","","",""
"","time_out","","html-keyboard-response","483","484236","0.0-1.0-656.0-0.0","0","0","11382","","null","","","null","72","","","","","","","","","","","","","","","",""
"","ITI","","html-keyboard-response","484","485238","0.0-1.0-657.0","0","0","11382","","null","","","null","72","","","","","","","","","","","","","","","NaN",""
"","S1","","html-keyboard-response","485","485491","0.0-1.0-659.0","0","0","11382","","null","","","null","73","","","","","","","","","","","","","","","",""
"","ISI","","html-keyboard-response","486","486492","0.0-1.0-660.0","0","0","11382","","null","","","null","73","NaN","","","","","","","","","","","","","","",""
"","S2","","html-keyboard-response","487","486744","0.0-1.0-661.0","0","0","11382","","null","","","null","73","","NaN","","","","","","","","","","","","","",""
"","response","","html-keyboard-response","488","487086","0.0-1.0-662.0-0.0","0","0","11382","","340","","","75","73","","","2","73","training","adjacent","BA","2","1","P.jpg","N.jpg","0","0","1","",""
"","feedback","","html-keyboard-response","489","488087","0.0-1.0-663.0-0.0","0","0","11382","","null","","","null","73","","","","","","","","","","","","","","","",""
"","ITI","","html-keyboard-response","490","489089","0.0-1.0-666.0","0","0","11382","","null","","","null","73","","","","","","","","","","","","","","","NaN",""
"","S1","","html-keyboard-response","491","489341","0.0-1.0-668.0","0","0","11382","","null","","","null","74","","","","","","","","","","","","","","","",""
"","ISI","","html-keyboard-response","492","490343","0.0-1.0-669.0","0","0","11382","","null","","","null","74","NaN","","","","","","","","","","","","","","",""
"","S2","","html-keyboard-response","493","490595","0.0-1.0-670.0","0","0","11382","","null","","","null","74","","NaN","","","","","","","","","","","","","",""
"","response","","html-keyboard-response","494","491134","0.0-1.0-671.0-0.0","0","0","11382","","537","","","75","74","","","2","74","training","adjacent","CB","3","2","Q.jpg","P.jpg","0","0","1","",""
"","feedback","","html-keyboard-response","495","492137","0.0-1.0-672.0-0.0","0","0","11382","","null","","","null","74","","","","","","","","","","","","","","","",""
"","ITI","","html-keyboard-response","496","493139","0.0-1.0-675.0","0","0","11382","","null","","","null","74","","","","","","","","","","","","","","","NaN",""
"","S1","","html-keyboard-response","497","493391","0.0-1.0-677.0","0","0","11382","","null","","","null","75","","","","","","","","","","","","","","","",""
"","ISI","","html-keyboard-response","498","494393","0.0-1.0-678.0","0","0","11382","","null","","","null","75","NaN","","","","","","","","","","","","","","",""
"","S2","","html-keyboard-response","499","494645","0.0-1.0-679.0","0","0","11382","","null","","","null","75","","NaN","","","","","","","","","","","","","",""
"","response","","html-keyboard-response","500","495062","0.0-1.0-680.0-0.0","0","0","11382","","415","","","75","75","","","2","75","training","adjacent","ED","5","4","M.jpg","R.jpg","0","0","1","",""
"","feedback","","html-keyboard-response","501","496064","0.0-1.0-681.0-0.0","0","0","11382","","null","","","null","75","","","","","","","","","","","","","","","",""
"","ITI","","html-keyboard-response","502","497067","0.0-1.0-684.0","0","0","11382","","null","","","null","75","","","","","","","","","","","","","","","NaN",""
"","S1","","html-keyboard-response","503","497321","0.0-1.0-686.0","0","0","11382","","null","","","null","76","","","","","","","","","","","","","","","",""
"","ISI","","html-keyboard-response","504","498323","0.0-1.0-687.0","0","0","11382","","null","","","null","76","NaN","","","","","","","","","","","","","","",""
"","S2","","html-keyboard-response","505","498575","0.0-1.0-688.0","0","0","11382","","null","","","null","76","","NaN","","","","","","","","","","","","","",""
"","response","","html-keyboard-response","506","498870","0.0-1.0-689.0-0.0","0","0","11382","","294","","","75","76","","","2","76","training","adjacent","EF","5","6","M.jpg","L.jpg","0","1","0","",""
"","feedback","","html-keyboard-response","507","499872","0.0-1.0-690.0-0.0","0","0","11382","","null","","","null","76","","","","","","","","","","","","","","","",""
"","time_out","","html-keyboard-response","508","501874","0.0-1.0-692.0-0.0","0","0","11382","","null","","","null","76","","","","","","","","","","","","","","","",""
"","ITI","","html-keyboard-response","509","502876","0.0-1.0-693.0","0","0","11382","","null","","","null","76","","","","","","","","","","","","","","","NaN",""
"","S1","","html-keyboard-response","510","503128","0.0-1.0-695.0","0","0","11382","","null","","","null","77","","","","","","","","","","","","","","","",""
"","ISI","","html-keyboard-response","511","504130","0.0-1.0-696.0","0","0","11382","","125","","","68","77","d","","","","","","","","","","","","","","",""
"","S2","","html-keyboard-response","512","504382","0.0-1.0-697.0","0","0","11382","","null","","","null","77","","NaN","","","","","","","","","","","","","",""
"","response","","html-keyboard-response","513","504398","0.0-1.0-698.0-0.0","0","0","11382","","15","","","68","77","","","2","77","training","adjacent","DE","4","5","R.jpg","M.jpg","1","1","1","",""
"","feedback","","html-keyboard-response","514","505400","0.0-1.0-699.0-0.0","0","0","11382","","null","","","null","77","","","","","","","","","","","","","","","",""
"","ITI","","html-keyboard-response","515","506402","0.0-1.0-702.0","0","0","11382","","null","","","null","77","","","","","","","","","","","","","","","NaN",""
"","S1","","html-keyboard-response","516","506654","0.0-1.0-704.0","0","0","11382","","null","","","null","78","","","","","","","","","","","","","","","",""
"","ISI","","html-keyboard-response","517","507655","0.0-1.0-705.0","0","0","11382","","null","","","null","78","NaN","","","","","","","","","","","","","","",""
"","S2","","html-keyboard-response","518","507908","0.0-1.0-706.0","0","0","11382","","null","","","null","78","","NaN","","","","","","","","","","","","","",""
"","response","","html-keyboard-response","519","508014","0.0-1.0-707.0-0.0","0","0","11382","","105","","","68","78","","","2","78","training","adjacent","CB","3","2","Q.jpg","P.jpg","1","0","0","",""
"","feedback","","html-keyboard-response","520","509017","0.0-1.0-708.0-0.0","0","0","11382","","null","","","null","78","","","","","","","","","","","","","","","",""
"","time_out","","html-keyboard-response","521","511019","0.0-1.0-710.0-0.0","0","0","11382","","null","","","null","78","","","","","","","","","","","","","","","",""
"","ITI","","html-keyboard-response","522","512022","0.0-1.0-711.0","0","0","11382","","null","","","null","78","","","","","","","","","","","","","","","NaN",""
"","S1","","html-keyboard-response","523","512274","0.0-1.0-713.0","0","0","11382","","null","","","null","79","","","","","","","","","","","","","","","",""
"","ISI","","html-keyboard-response","524","513277","0.0-1.0-714.0","0","0","11382","","null","","","null","79","NaN","","","","","","","","","","","","","","",""
"","S2","","html-keyboard-response","525","513529","0.0-1.0-715.0","0","0","11382","","null","","","null","79","","NaN","","","","","","","","","","","","","",""
"","response","","html-keyboard-response","526","513662","0.0-1.0-716.0-0.0","0","0","11382","","131","","","68","79","","","2","79","training","adjacent","CB","3","2","Q.jpg","P.jpg","1","0","0","",""
"","feedback","","html-keyboard-response","527","514664","0.0-1.0-717.0-0.0","0","0","11382","","null","","","null","79","","","","","","","","","","","","","","","",""
"","time_out","","html-keyboard-response","528","516666","0.0-1.0-719.0-0.0","0","0","11382","","null","","","null","79","","","","","","","","","","","","","","","",""
"","ITI","","html-keyboard-response","529","517669","0.0-1.0-720.0","0","0","11382","","null","","","null","79","","","","","","","","","","","","","","","NaN",""
"","S1","","html-keyboard-response","530","517921","0.0-1.0-722.0","0","0","11382","","null","","","null","80","","","","","","","","","","","","","","","",""
"","ISI","","html-keyboard-response","531","518923","0.0-1.0-723.0","0","0","11382","","null","","","null","80","NaN","","","","","","","","","","","","","","",""
"","S2","","html-keyboard-response","532","519175","0.0-1.0-724.0","0","0","11382","","null","","","null","80","","NaN","","","","","","","","","","","","","",""
"","response","","html-keyboard-response","533","520927","0.0-1.0-725.0-0.0","0","0","11382","","null","","","null","80","","","2","80","training","adjacent","BC","2","3","P.jpg","Q.jpg","NaN","1","0","",""
"","too_slow_prompt","","html-keyboard-response","534","521930","0.0-1.0-727.0-0.0","1","0","11382","","null","","","null","","","","","","","","","","","","","","","","",""
"","time_out","","html-keyboard-response","535","523931","0.0-1.0-728.0-0.0","0","0","11382","","null","","","null","80","","","","","","","","","","","","","","","",""
"","ITI","","html-keyboard-response","536","524933","0.0-1.0-729.0","0","0","11382","","null","","","null","80","","","","","","","","","","","","","","","NaN",""
"","S1","","html-keyboard-response","537","525185","0.0-1.0-731.0","0","0","11382","","null","","","null","81","","","","","","","","","","","","","","","",""
"","ISI","","html-keyboard-response","538","526188","0.0-1.0-732.0","0","0","11382","","156","","","75","81","k","","","","","","","","","","","","","","",""
"","S2","","html-keyboard-response","539","526430","0.0-1.0-733.0","0","0","11382","","242","","","75","81","","k","2","81","training","adjacent","BA","2","1","P.jpg","N.jpg","0","0","1","",""
"","feedback","","html-keyboard-response","540","527433","0.0-1.0-735.0-0.0","0","0","11382","","null","","","null","81","","","","","","","","","","","","","","","",""
"","ITI","","html-keyboard-response","541","528435","0.0-1.0-738.0","0","0","11382","","null","","","null","81","","","","","","","","","","","","","","","NaN",""
"","S1","","html-keyboard-response","542","528687","0.0-1.0-740.0","0","0","11382","","null","","","null","82","","","","","","","","","","","","","","","",""
"","ISI","","html-keyboard-response","543","529689","0.0-1.0-741.0","0","0","11382","","null","","","null","82","NaN","","","","","","","","","","","","","","",""
"","S2","","html-keyboard-response","544","529942","0.0-1.0-742.0","0","0","11382","","null","","","null","82","","NaN","","","","","","","","","","","","","",""
"","response","","html-keyboard-response","545","530622","0.0-1.0-743.0-0.0","0","0","11382","","678","","","75","82","","","2","82","training","adjacent","ED","5","4","M.jpg","R.jpg","0","0","1","",""
"","feedback","","html-keyboard-response","546","531623","0.0-1.0-744.0-0.0","0","0","11382","","null","","","null","82","","","","","","","","","","","","","","","",""
"","ITI","","html-keyboard-response","547","532625","0.0-1.0-747.0","0","0","11382","","null","","","null","82","","","","","","","","","","","","","","","NaN",""
"","S1","","html-keyboard-response","548","532877","0.0-1.0-749.0","0","0","11382","","null","","","null","83","","","","","","","","","","","","","","","",""
"","ISI","","html-keyboard-response","549","533889","0.0-1.0-750.0","0","0","11382","","null","","","null","83","NaN","","","","","","","","","","","","","","",""
"","S2","","html-keyboard-response","550","534142","0.0-1.0-751.0","0","0","11382","","null","","","null","83","","NaN","","","","","","","","","","","","","",""
"","response","","html-keyboard-response","551","534550","0.0-1.0-752.0-0.0","0","0","11382","","407","","","75","83","","","2","83","training","adjacent","BA","2","1","P.jpg","N.jpg","0","0","1","",""
"","feedback","","html-keyboard-response","552","535551","0.0-1.0-753.0-0.0","0","0","11382","","null","","","null","83","","","","","","","","","","","","","","","",""
"","ITI","","html-keyboard-response","553","536553","0.0-1.0-756.0","0","0","11382","","null","","","null","83","","","","","","","","","","","","","","","NaN",""
"","S1","","html-keyboard-response","554","536806","0.0-1.0-758.0","0","0","11382","","null","","","null","84","","","","","","","","","","","","","","","",""
"","ISI","","html-keyboard-response","555","537808","0.0-1.0-759.0","0","0","11382","","912","","","75","84","k","","","","","","","","","","","","","","",""
"","S2","","html-keyboard-response","556","538060","0.0-1.0-760.0","0","0","11382","","null","","","null","84","","NaN","","","","","","","","","","","","","",""
"","response","","html-keyboard-response","557","539486","0.0-1.0-761.0-0.0","0","0","11382","","1425","","","75","84","","","2","84","training","adjacent","FG","6","7","L.jpg","O.jpg","0","1","0","",""
"","feedback","","html-keyboard-response","558","540488","0.0-1.0-762.0-0.0","0","0","11382","","null","","","null","84","","","","","","","","","","","","","","","",""
"","time_out","","html-keyboard-response","559","542490","0.0-1.0-764.0-0.0","0","0","11382","","null","","","null","84","","","","","","","","","","","","","","","",""
"","ITI","","html-keyboard-response","560","543491","0.0-1.0-765.0","0","0","11382","","null","","","null","84","","","","","","","","","","","","","","","NaN",""
"","S1","","html-keyboard-response","561","543744","0.0-1.0-767.0","0","0","11382","","null","","","null","85","","","","","","","","","","","","","","","",""
"","ISI","","html-keyboard-response","562","544747","0.0-1.0-768.0","0","0","11382","","null","","","null","85","NaN","","","","","","","","","","","","","","",""
"","S2","","html-keyboard-response","563","545006","0.0-1.0-769.0","0","0","11382","","258","","","68","85","","d","2","85","training","adjacent","CD","3","4","Q.jpg","R.jpg","1","1","1","",""
"","feedback","","html-keyboard-response","564","546008","0.0-1.0-771.0-0.0","0","0","11382","","null","","","null","85","","","","","","","","","","","","","","","",""
"","ITI","","html-keyboard-response","565","547011","0.0-1.0-774.0","0","0","11382","","null","","","null","85","","","","","","","","","","","","","","","NaN",""
"","S1","","html-keyboard-response","566","547263","0.0-1.0-776.0","0","0","11382","","null","","","null","86","","","","","","","","","","","","","","","",""
"","ISI","","html-keyboard-response","567","548265","0.0-1.0-777.0","0","0","11382","","null","","","null","86","NaN","","","","","","","","","","","","","","",""
"","S2","","html-keyboard-response","568","548486","0.0-1.0-778.0","0","0","11382","","220","","","75","86","","k","2","86","training","adjacent","FG","6","7","L.jpg","O.jpg","0","1","0","",""
"","feedback","","html-keyboard-response","569","549489","0.0-1.0-780.0-0.0","0","0","11382","","null","","","null","86","","","","","","","","","","","","","","","",""
"","time_out","","html-keyboard-response","570","551493","0.0-1.0-782.0-0.0","0","0","11382","","null","","","null","86","","","","","","","","","","","","","","","",""
"","ITI","","html-keyboard-response","571","552495","0.0-1.0-783.0","0","0","11382","","null","","","null","86","","","","","","","","","","","","","","","NaN",""
"","S1","","html-keyboard-response","572","552748","0.0-1.0-785.0","0","0","11382","","null","","","null","87","","","","","","","","","","","","","","","",""
"","ISI","","html-keyboard-response","573","553751","0.0-1.0-786.0","0","0","11382","","null","","","null","87","NaN","","","","","","","","","","","","","","",""
"","S2","","html-keyboard-response","574","554003","0.0-1.0-787.0","0","0","11382","","null","","","null","87","","NaN","","","","","","","","","","","","","",""
"","response","","html-keyboard-response","575","554014","0.0-1.0-788.0-0.0","0","0","11382","","9","","","68","87","","","2","87","training","adjacent","FG","6","7","L.jpg","O.jpg","1","1","1","",""
"","feedback","","html-keyboard-response","576","555016","0.0-1.0-789.0-0.0","0","0","11382","","null","","","null","87","","","","","","","","","","","","","","","",""
"","ITI","","html-keyboard-response","577","556019","0.0-1.0-792.0","0","0","11382","","null","","","null","87","","","","","","","","","","","","","","","NaN",""
"","S1","","html-keyboard-response","578","556271","0.0-1.0-794.0","0","0","11382","","null","","","null","88","","","","","","","","","","","","","","","",""
"","ISI","","html-keyboard-response","579","557273","0.0-1.0-795.0","0","0","11382","","null","","","null","88","NaN","","","","","","","","","","","","","","",""
"","S2","","html-keyboard-response","580","557525","0.0-1.0-796.0","0","0","11382","","null","","","null","88","","NaN","","","","","","","","","","","","","",""
