"success","ttype","start_time","trial_type","trial_index","time_elapsed","internal_node_id","warning","missed_checkup","PID","view_history","rt","responses","repeat_instructions","key_press","index","keypress_isi","keypress_S2","block","trial_num","phase","group_type","pair_type","S1_stim","S2_stim","S1_img","S2_img","S1_chosen","S1_higher","accuracy","keypress_iti","total_bonus_tally"
"true","full_screen","d08052022hr1256","fullscreen","0","27269","0.0-0.0","0","0","13216","","","","","","","","","","","","","","","","","","","","","",""
"","instructions","","instructions","1","84860","0.0-1.0-0.0-0.0","0","0","13216","[{""page_index"":0,""viewing_time"":6861},{""page_index"":1,""viewing_time"":25387},{""page_index"":2,""viewing_time"":22493},{""page_index"":3,""viewing_time"":2840}]","57582","","","","","","","","","","","","","","","","","","","",""
"","comprehension_check","","survey-multi-choice","2","107851","0.0-1.0-0.0-1.0","0","0","13216","","22978","{""Q0"":""True"",""Q1"":""D"",""Q2"":""Only when the screen 'MAKE A CHOICE' is shown"",""Q3"":""Green mark"",""Q4"":""either D or K""}","1","","","","","","","","","","","","","","","","","",""
"","missed_instruction_checkup","","html-keyboard-response","3","110728","0.0-1.0-0.0-2.0-0.0","0","1","13216","","2857","","","32","","","","","","","","","","","","","","","","",""
"","instructions","","instructions","4","122383","0.0-1.0-0.1-0.1","0","0","13216","[{""page_index"":0,""viewing_time"":2026},{""page_index"":1,""viewing_time"":5856},{""page_index"":2,""viewing_time"":2597},{""page_index"":3,""viewing_time"":1170}]","11649","","","","","","","","","","","","","","","","","","","",""
"","comprehension_check","","survey-multi-choice","5","159505","0.0-1.0-0.1-1.1","0","0","13216","","37108","{""Q0"":""True"",""Q1"":""D"",""Q2"":""Only when the screen 'MAKE A CHOICE' is shown"",""Q3"":""Green mark"",""Q4"":""either D or K""}","1","","","","","","","","","","","","","","","","","",""
"","missed_instruction_checkup","","html-keyboard-response","6","161334","0.0-1.0-0.1-2.1-0.1","0","1","13216","","1818","","","32","","","","","","","","","","","","","","","","",""
"","instructions","","instructions","7","178892","0.0-1.0-0.2-0.2","0","0","13216","[{""page_index"":0,""viewing_time"":3939},{""page_index"":1,""viewing_time"":11851},{""page_index"":2,""viewing_time"":796},{""page_index"":3,""viewing_time"":961}]","17549","","","","","","","","","","","","","","","","","","","",""
"","comprehension_check","","survey-multi-choice","8","189080","0.0-1.0-0.2-1.2","0","0","13216","","10171","{""Q0"":""True"",""Q1"":""D"",""Q2"":""Once the second image appears and while the screen 'MAKE A CHOICE' is shown"",""Q3"":""Green mark"",""Q4"":""either D or K""}","0","","","","","","","","","","","","","","","","","",""
"","start_exp","","html-keyboard-response","9","190625","0.0-1.0-1.0","0","0","13216","","1537","","","32","","","","","","","","","","","","","","","","",""
"","S1","","html-keyboard-response","10","190883","0.0-1.0-2.0","0","0","13216","","null","","","null","0","","","","","","","","","","","","","","","",""
"","ISI","","html-keyboard-response","11","192891","0.0-1.0-3.0","0","0","13216","","null","","","null","0","NaN","","","","","","","","","","","","","","",""
"","S2","","html-keyboard-response","12","193151","0.0-1.0-4.0","0","0","13216","","null","","","null","0","","NaN","","","","","","","","","","","","","",""
"","response","","html-keyboard-response","13","194207","0.0-1.0-5.0-0.0","0","0","13216","","1042","","","68","0","","","1","0","training","adjacent","FE","6","5","O.jpg","Q.jpg","1","0","0","",""
"","feedback","","html-keyboard-response","14","195217","0.0-1.0-6.0-0.0","0","0","13216","","null","","","null","0","","","","","","","","","","","","","","","",""
"","time_out","","html-keyboard-response","15","197228","0.0-1.0-8.0-0.0","0","0","13216","","null","","","null","0","","","","","","","","","","","","","","","",""
"","ITI","","html-keyboard-response","16","198240","0.0-1.0-9.0","0","0","13216","","null","","","null","0","","","","","","","","","","","","","","","NaN",""
"","S1","","html-keyboard-response","17","198499","0.0-1.0-11.0","0","0","13216","","null","","","null","1","","","","","","","","","","","","","","","",""
"","ISI","","html-keyboard-response","18","200509","0.0-1.0-12.0","0","0","13216","","null","","","null","1","NaN","","","","","","","","","","","","","","",""
"","S2","","html-keyboard-response","19","200767","0.0-1.0-13.0","0","0","13216","","null","","","null","1","","NaN","","","","","","","","","","","","","",""
"","response","","html-keyboard-response","20","201327","0.0-1.0-14.0-0.0","0","0","13216","","547","","","68","1","","","1","1","training","adjacent","ED","5","4","Q.jpg","P.jpg","1","0","0","",""
"","feedback","","html-keyboard-response","21","202339","0.0-1.0-15.0-0.0","0","0","13216","","null","","","null","1","","","","","","","","","","","","","","","",""
"","time_out","","html-keyboard-response","22","204351","0.0-1.0-17.0-0.0","0","0","13216","","null","","","null","1","","","","","","","","","","","","","","","",""
"","ITI","","html-keyboard-response","23","205360","0.0-1.0-18.0","0","0","13216","","null","","","null","1","","","","","","","","","","","","","","","NaN",""
"","S1","","html-keyboard-response","24","205621","0.0-1.0-20.0","0","0","13216","","null","","","null","2","","","","","","","","","","","","","","","",""
"","ISI","","html-keyboard-response","25","207629","0.0-1.0-21.0","0","0","13216","","null","","","null","2","NaN","","","","","","","","","","","","","","",""
"","S2","","html-keyboard-response","26","207887","0.0-1.0-22.0","0","0","13216","","null","","","null","2","","NaN","","","","","","","","","","","","","",""
"","response","","html-keyboard-response","27","207990","0.0-1.0-23.0-0.0","0","0","13216","","94","","","68","2","","","1","2","training","adjacent","CD","3","4","R.jpg","P.jpg","1","1","1","",""
"","feedback","","html-keyboard-response","28","208997","0.0-1.0-24.0-0.0","0","0","13216","","null","","","null","2","","","","","","","","","","","","","","","",""
"","ITI","","html-keyboard-response","29","210006","0.0-1.0-27.0","0","0","13216","","null","","","null","2","","","","","","","","","","","","","","","NaN",""
"","S1","","html-keyboard-response","30","210264","0.0-1.0-29.0","0","0","13216","","null","","","null","3","","","","","","","","","","","","","","","",""
"","ISI","","html-keyboard-response","31","212274","0.0-1.0-30.0","0","0","13216","","null","","","null","3","NaN","","","","","","","","","","","","","","",""
"","S2","","html-keyboard-response","32","212536","0.0-1.0-31.0","0","0","13216","","null","","","null","3","","NaN","","","","","","","","","","","","","",""
"","response","","html-keyboard-response","33","212771","0.0-1.0-32.0-0.0","0","0","13216","","226","","","75","3","","","1","3","training","adjacent","BC","2","3","M.jpg","R.jpg","0","1","0","",""
"","feedback","","html-keyboard-response","34","213779","0.0-1.0-33.0-0.0","0","0","13216","","null","","","null","3","","","","","","","","","","","","","","","",""
"","time_out","","html-keyboard-response","35","215790","0.0-1.0-35.0-0.0","0","0","13216","","null","","","null","3","","","","","","","","","","","","","","","",""
"","ITI","","html-keyboard-response","36","216802","0.0-1.0-36.0","0","0","13216","","null","","","null","3","","","","","","","","","","","","","","","NaN",""
"","S1","","html-keyboard-response","37","217060","0.0-1.0-38.0","0","0","13216","","null","","","null","4","","","","","","","","","","","","","","","",""
"","ISI","","html-keyboard-response","38","219072","0.0-1.0-39.0","0","0","13216","","null","","","null","4","NaN","","","","","","","","","","","","","","",""
"","S2","","html-keyboard-response","39","219332","0.0-1.0-40.0","0","0","13216","","null","","","null","4","","NaN","","","","","","","","","","","","","",""
"","response","","html-keyboard-response","40","219590","0.0-1.0-41.0-0.0","0","0","13216","","246","","","68","4","","","1","4","training","adjacent","GF","7","6","L.jpg","O.jpg","1","0","0","",""
"","feedback","","html-keyboard-response","41","220599","0.0-1.0-42.0-0.0","0","0","13216","","null","","","null","4","","","","","","","","","","","","","","","",""
"","time_out","","html-keyboard-response","42","222610","0.0-1.0-44.0-0.0","0","0","13216","","null","","","null","4","","","","","","","","","","","","","","","",""
"","ITI","","html-keyboard-response","43","223622","0.0-1.0-45.0","0","0","13216","","null","","","null","4","","","","","","","","","","","","","","","NaN",""
"","S1","","html-keyboard-response","44","223881","0.0-1.0-47.0","0","0","13216","","null","","","null","5","","","","","","","","","","","","","","","",""
"","ISI","","html-keyboard-response","45","225891","0.0-1.0-48.0","0","0","13216","","null","","","null","5","NaN","","","","","","","","","","","","","","",""
"","S2","","html-keyboard-response","46","226147","0.0-1.0-49.0","0","0","13216","","null","","","null","5","","NaN","","","","","","","","","","","","","",""
"","response","","html-keyboard-response","47","226964","0.0-1.0-50.0-0.0","0","0","13216","","811","","","68","5","","","1","5","training","adjacent","CD","3","4","R.jpg","P.jpg","1","1","1","",""
"","feedback","","html-keyboard-response","48","227975","0.0-1.0-51.0-0.0","0","0","13216","","null","","","null","5","","","","","","","","","","","","","","","",""
"","ITI","","html-keyboard-response","49","228985","0.0-1.0-54.0","0","0","13216","","null","","","null","5","","","","","","","","","","","","","","","NaN",""
"","S1","","html-keyboard-response","50","229242","0.0-1.0-56.0","0","0","13216","","null","","","null","6","","","","","","","","","","","","","","","",""
"","ISI","","html-keyboard-response","51","231253","0.0-1.0-57.0","0","0","13216","","null","","","null","6","NaN","","","","","","","","","","","","","","",""
"","S2","","html-keyboard-response","52","231513","0.0-1.0-58.0","0","0","13216","","null","","","null","6","","NaN","","","","","","","","","","","","","",""
"","response","","html-keyboard-response","53","231774","0.0-1.0-59.0-0.0","0","0","13216","","253","","","75","6","","","1","6","training","adjacent","BC","2","3","M.jpg","R.jpg","0","1","0","",""
"","feedback","","html-keyboard-response","54","232785","0.0-1.0-60.0-0.0","0","0","13216","","null","","","null","6","","","","","","","","","","","","","","","",""
"","time_out","","html-keyboard-response","55","234794","0.0-1.0-62.0-0.0","0","0","13216","","null","","","null","6","","","","","","","","","","","","","","","",""
"","ITI","","html-keyboard-response","56","235806","0.0-1.0-63.0","0","0","13216","","null","","","null","6","","","","","","","","","","","","","","","NaN",""
"","S1","","html-keyboard-response","57","236062","0.0-1.0-65.0","0","0","13216","","null","","","null","7","","","","","","","","","","","","","","","",""
"","ISI","","html-keyboard-response","58","238072","0.0-1.0-66.0","0","0","13216","","null","","","null","7","NaN","","","","","","","","","","","","","","",""
"","S2","","html-keyboard-response","59","238331","0.0-1.0-67.0","0","0","13216","","null","","","null","7","","NaN","","","","","","","","","","","","","",""
"","response","","html-keyboard-response","60","238529","0.0-1.0-68.0-0.0","0","0","13216","","191","","","68","7","","","1","7","training","adjacent","BC","2","3","M.jpg","R.jpg","1","1","1","",""
"","feedback","","html-keyboard-response","61","239541","0.0-1.0-69.0-0.0","0","0","13216","","null","","","null","7","","","","","","","","","","","","","","","",""
"","ITI","","html-keyboard-response","62","240553","0.0-1.0-72.0","0","0","13216","","null","","","null","7","","","","","","","","","","","","","","","NaN",""
"","S1","","html-keyboard-response","63","240810","0.0-1.0-74.0","0","0","13216","","null","","","null","8","","","","","","","","","","","","","","","",""
"","ISI","","html-keyboard-response","64","242821","0.0-1.0-75.0","0","0","13216","","null","","","null","8","NaN","","","","","","","","","","","","","","",""
"","S2","","html-keyboard-response","65","243081","0.0-1.0-76.0","0","0","13216","","null","","","null","8","","NaN","","","","","","","","","","","","","",""
"","response","","html-keyboard-response","66","243348","0.0-1.0-77.0-0.0","0","0","13216","","257","","","75","8","","","1","8","training","adjacent","FG","6","7","O.jpg","L.jpg","0","1","0","",""
"","feedback","","html-keyboard-response","67","244357","0.0-1.0-78.0-0.0","0","0","13216","","null","","","null","8","","","","","","","","","","","","","","","",""
"","time_out","","html-keyboard-response","68","246364","0.0-1.0-80.0-0.0","0","0","13216","","null","","","null","8","","","","","","","","","","","","","","","",""
"","ITI","","html-keyboard-response","69","247371","0.0-1.0-81.0","0","0","13216","","null","","","null","8","","","","","","","","","","","","","","","NaN",""
"","S1","","html-keyboard-response","70","247626","0.0-1.0-83.0","0","0","13216","","null","","","null","9","","","","","","","","","","","","","","","",""
"","ISI","","html-keyboard-response","71","249636","0.0-1.0-84.0","0","0","13216","","null","","","null","9","NaN","","","","","","","","","","","","","","",""
"","S2","","html-keyboard-response","72","249895","0.0-1.0-85.0","0","0","13216","","null","","","null","9","","NaN","","","","","","","","","","","","","",""
"","response","","html-keyboard-response","73","250444","0.0-1.0-86.0-0.0","0","0","13216","","542","","","75","9","","","1","9","training","adjacent","BC","2","3","M.jpg","R.jpg","0","1","0","",""
"","feedback","","html-keyboard-response","74","251454","0.0-1.0-87.0-0.0","0","0","13216","","null","","","null","9","","","","","","","","","","","","","","","",""
"","time_out","","html-keyboard-response","75","253460","0.0-1.0-89.0-0.0","0","0","13216","","null","","","null","9","","","","","","","","","","","","","","","",""
"","ITI","","html-keyboard-response","76","254467","0.0-1.0-90.0","0","0","13216","","null","","","null","9","","","","","","","","","","","","","","","NaN",""
"","S1","","html-keyboard-response","77","254725","0.0-1.0-92.0","0","0","13216","","null","","","null","10","","","","","","","","","","","","","","","",""
"","ISI","","html-keyboard-response","78","256730","0.0-1.0-93.0","0","0","13216","","null","","","null","10","NaN","","","","","","","","","","","","","","",""
"","S2","","html-keyboard-response","79","256990","0.0-1.0-94.0","0","0","13216","","null","","","null","10","","NaN","","","","","","","","","","","","","",""
"","response","","html-keyboard-response","80","257627","0.0-1.0-95.0-0.0","0","0","13216","","629","","","68","10","","","1","10","training","adjacent","GF","7","6","L.jpg","O.jpg","1","0","0","",""
"","feedback","","html-keyboard-response","81","258635","0.0-1.0-96.0-0.0","0","0","13216","","null","","","null","10","","","","","","","","","","","","","","","",""
"","time_out","","html-keyboard-response","82","260642","0.0-1.0-98.0-0.0","0","0","13216","","null","","","null","10","","","","","","","","","","","","","","","",""
"","ITI","","html-keyboard-response","83","261650","0.0-1.0-99.0","0","0","13216","","null","","","null","10","","","","","","","","","","","","","","","NaN",""
"","S1","","html-keyboard-response","84","261907","0.0-1.0-101.0","0","0","13216","","null","","","null","11","","","","","","","","","","","","","","","",""
"","ISI","","html-keyboard-response","85","263913","0.0-1.0-102.0","0","0","13216","","null","","","null","11","NaN","","","","","","","","","","","","","","",""
"","S2","","html-keyboard-response","86","264172","0.0-1.0-103.0","0","0","13216","","null","","","null","11","","NaN","","","","","","","","","","","","","",""
"","response","","html-keyboard-response","87","264671","0.0-1.0-104.0-0.0","0","0","13216","","490","","","75","11","","","1","11","training","adjacent","DC","4","3","P.jpg","R.jpg","0","0","1","",""
"","feedback","","html-keyboard-response","88","265676","0.0-1.0-105.0-0.0","0","0","13216","","null","","","null","11","","","","","","","","","","","","","","","",""
"","ITI","","html-keyboard-response","89","266684","0.0-1.0-108.0","0","0","13216","","null","","","null","11","","","","","","","","","","","","","","","NaN",""
"","S1","","html-keyboard-response","90","266940","0.0-1.0-110.0","0","0","13216","","null","","","null","12","","","","","","","","","","","","","","","",""
"","ISI","","html-keyboard-response","91","268944","0.0-1.0-111.0","0","0","13216","","null","","","null","12","NaN","","","","","","","","","","","","","","",""
"","S2","","html-keyboard-response","92","269204","0.0-1.0-112.0","0","0","13216","","null","","","null","12","","NaN","","","","","","","","","","","","","",""
"","response","","html-keyboard-response","93","269773","0.0-1.0-113.0-0.0","0","0","13216","","562","","","68","12","","","1","12","training","adjacent","BA","2","1","M.jpg","N.jpg","1","0","0","",""
"","feedback","","html-keyboard-response","94","270784","0.0-1.0-114.0-0.0","0","0","13216","","null","","","null","12","","","","","","","","","","","","","","","",""
"","time_out","","html-keyboard-response","95","272793","0.0-1.0-116.0-0.0","0","0","13216","","null","","","null","12","","","","","","","","","","","","","","","",""
"","ITI","","html-keyboard-response","96","273803","0.0-1.0-117.0","0","0","13216","","null","","","null","12","","","","","","","","","","","","","","","NaN",""
"","S1","","html-keyboard-response","97","274061","0.0-1.0-119.0","0","0","13216","","null","","","null","13","","","","","","","","","","","","","","","",""
"","ISI","","html-keyboard-response","98","276073","0.0-1.0-120.0","0","0","13216","","null","","","null","13","NaN","","","","","","","","","","","","","","",""
"","S2","","html-keyboard-response","99","276329","0.0-1.0-121.0","0","0","13216","","null","","","null","13","","NaN","","","","","","","","","","","","","",""
"","response","","html-keyboard-response","100","277022","0.0-1.0-122.0-0.0","0","0","13216","","686","","","68","13","","","1","13","training","adjacent","CD","3","4","R.jpg","P.jpg","1","1","1","",""
"","feedback","","html-keyboard-response","101","278033","0.0-1.0-123.0-0.0","0","0","13216","","null","","","null","13","","","","","","","","","","","","","","","",""
"","ITI","","html-keyboard-response","102","279040","0.0-1.0-126.0","0","0","13216","","null","","","null","13","","","","","","","","","","","","","","","NaN",""
"","S1","","html-keyboard-response","103","279301","0.0-1.0-128.0","0","0","13216","","null","","","null","14","","","","","","","","","","","","","","","",""
"","ISI","","html-keyboard-response","104","281306","0.0-1.0-129.0","0","0","13216","","null","","","null","14","NaN","","","","","","","","","","","","","","",""
"","S2","","html-keyboard-response","105","281568","0.0-1.0-130.0","0","0","13216","","null","","","null","14","","NaN","","","","","","","","","","","","","",""
"","response","","html-keyboard-response","106","282402","0.0-1.0-131.0-0.0","0","0","13216","","828","","","75","14","","","1","14","training","adjacent","FE","6","5","O.jpg","Q.jpg","0","0","1","",""
"","feedback","","html-keyboard-response","107","283410","0.0-1.0-132.0-0.0","0","0","13216","","null","","","null","14","","","","","","","","","","","","","","","",""
"","ITI","","html-keyboard-response","108","284421","0.0-1.0-135.0","0","0","13216","","null","","","null","14","","","","","","","","","","","","","","","NaN",""
"","S1","","html-keyboard-response","109","284683","0.0-1.0-137.0","0","0","13216","","null","","","null","15","","","","","","","","","","","","","","","",""
"","ISI","","html-keyboard-response","110","286692","0.0-1.0-138.0","0","0","13216","","null","","","null","15","NaN","","","","","","","","","","","","","","",""
"","S2","","html-keyboard-response","111","286953","0.0-1.0-139.0","0","0","13216","","null","","","null","15","","NaN","","","","","","","","","","","","","",""
"","response","","html-keyboard-response","112","287234","0.0-1.0-140.0-0.0","0","0","13216","","274","","","75","15","","","1","15","training","adjacent","DE","4","5","P.jpg","Q.jpg","0","1","0","",""
"","feedback","","html-keyboard-response","113","288242","0.0-1.0-141.0-0.0","0","0","13216","","null","","","null","15","","","","","","","","","","","","","","","",""
"","time_out","","html-keyboard-response","114","290253","0.0-1.0-143.0-0.0","0","0","13216","","null","","","null","15","","","","","","","","","","","","","","","",""
"","ITI","","html-keyboard-response","115","291261","0.0-1.0-144.0","0","0","13216","","null","","","null","15","","","","","","","","","","","","","","","NaN",""
"","S1","","html-keyboard-response","116","291521","0.0-1.0-146.0","0","0","13216","","null","","","null","16","","","","","","","","","","","","","","","",""
"","ISI","","html-keyboard-response","117","293529","0.0-1.0-147.0","0","0","13216","","null","","","null","16","NaN","","","","","","","","","","","","","","",""
"","S2","","html-keyboard-response","118","293787","0.0-1.0-148.0","0","0","13216","","null","","","null","16","","NaN","","","","","","","","","","","","","",""
"","response","","html-keyboard-response","119","294280","0.0-1.0-149.0-0.0","0","0","13216","","487","","","68","16","","","1","16","training","adjacent","AB","1","2","N.jpg","M.jpg","1","1","1","",""
"","feedback","","html-keyboard-response","120","295289","0.0-1.0-150.0-0.0","0","0","13216","","null","","","null","16","","","","","","","","","","","","","","","",""
"","ITI","","html-keyboard-response","121","296303","0.0-1.0-153.0","0","0","13216","","null","","","null","16","","","","","","","","","","","","","","","NaN",""
"","S1","","html-keyboard-response","122","296560","0.0-1.0-155.0","0","0","13216","","null","","","null","17","","","","","","","","","","","","","","","",""
"","ISI","","html-keyboard-response","123","298569","0.0-1.0-156.0","0","0","13216","","null","","","null","17","NaN","","","","","","","","","","","","","","",""
"","S2","","html-keyboard-response","124","298826","0.0-1.0-157.0","0","0","13216","","null","","","null","17","","NaN","","","","","","","","","","","","","",""
"","response","","html-keyboard-response","125","299406","0.0-1.0-158.0-0.0","0","0","13216","","573","","","68","17","","","1","17","training","adjacent","FG","6","7","O.jpg","L.jpg","1","1","1","",""
"","feedback","","html-keyboard-response","126","300417","0.0-1.0-159.0-0.0","0","0","13216","","null","","","null","17","","","","","","","","","","","","","","","",""
"","ITI","","html-keyboard-response","127","301425","0.0-1.0-162.0","0","0","13216","","null","","","null","17","","","","","","","","","","","","","","","NaN",""
"","S1","","html-keyboard-response","128","301682","0.0-1.0-164.0","0","0","13216","","null","","","null","18","","","","","","","","","","","","","","","",""
"","ISI","","html-keyboard-response","129","303687","0.0-1.0-165.0","0","0","13216","","null","","","null","18","NaN","","","","","","","","","","","","","","",""
"","S2","","html-keyboard-response","130","303945","0.0-1.0-166.0","0","0","13216","","null","","","null","18","","NaN","","","","","","","","","","","","","",""
"","response","","html-keyboard-response","131","304269","0.0-1.0-167.0-0.0","0","0","13216","","312","","","68","18","","","1","18","training","adjacent","CD","3","4","R.jpg","P.jpg","1","1","1","",""
"","feedback","","html-keyboard-response","132","305279","0.0-1.0-168.0-0.0","0","0","13216","","null","","","null","18","","","","","","","","","","","","","","","",""
"","ITI","","html-keyboard-response","133","306290","0.0-1.0-171.0","0","0","13216","","null","","","null","18","","","","","","","","","","","","","","","NaN",""
"","S1","","html-keyboard-response","134","306551","0.0-1.0-173.0","0","0","13216","","null","","","null","19","","","","","","","","","","","","","","","",""
"","ISI","","html-keyboard-response","135","308559","0.0-1.0-174.0","0","0","13216","","null","","","null","19","NaN","","","","","","","","","","","","","","",""
"","S2","","html-keyboard-response","136","308817","0.0-1.0-175.0","0","0","13216","","null","","","null","19","","NaN","","","","","","","","","","","","","",""
"","response","","html-keyboard-response","137","309276","0.0-1.0-176.0-0.0","0","0","13216","","453","","","75","19","","","1","19","training","adjacent","AB","1","2","N.jpg","M.jpg","0","1","0","",""
"","feedback","","html-keyboard-response","138","310286","0.0-1.0-177.0-0.0","0","0","13216","","null","","","null","19","","","","","","","","","","","","","","","",""
"","time_out","","html-keyboard-response","139","312294","0.0-1.0-179.0-0.0","0","0","13216","","null","","","null","19","","","","","","","","","","","","","","","",""
"","ITI","","html-keyboard-response","140","313304","0.0-1.0-180.0","0","0","13216","","null","","","null","19","","","","","","","","","","","","","","","NaN",""
"","S1","","html-keyboard-response","141","313562","0.0-1.0-182.0","0","0","13216","","null","","","null","20","","","","","","","","","","","","","","","",""
"","ISI","","html-keyboard-response","142","315572","0.0-1.0-183.0","0","0","13216","","null","","","null","20","NaN","","","","","","","","","","","","","","",""
"","S2","","html-keyboard-response","143","315834","0.0-1.0-184.0","0","0","13216","","null","","","null","20","","NaN","","","","","","","","","","","","","",""
"","response","","html-keyboard-response","144","316069","0.0-1.0-185.0-0.0","0","0","13216","","228","","","75","20","","","1","20","training","adjacent","DC","4","3","P.jpg","R.jpg","0","0","1","",""
"","feedback","","html-keyboard-response","145","317078","0.0-1.0-186.0-0.0","0","0","13216","","null","","","null","20","","","","","","","","","","","","","","","",""
"","ITI","","html-keyboard-response","146","318088","0.0-1.0-189.0","0","0","13216","","null","","","null","20","","","","","","","","","","","","","","","NaN",""
"","S1","","html-keyboard-response","147","318344","0.0-1.0-191.0","0","0","13216","","null","","","null","21","","","","","","","","","","","","","","","",""
"","ISI","","html-keyboard-response","148","320353","0.0-1.0-192.0","0","0","13216","","null","","","null","21","NaN","","","","","","","","","","","","","","",""
"","S2","","html-keyboard-response","149","320614","0.0-1.0-193.0","0","0","13216","","null","","","null","21","","NaN","","","","","","","","","","","","","",""
"","response","","html-keyboard-response","150","320782","0.0-1.0-194.0-0.0","0","0","13216","","158","","","75","21","","","1","21","training","adjacent","DE","4","5","P.jpg","Q.jpg","0","1","0","",""
"","feedback","","html-keyboard-response","151","321788","0.0-1.0-195.0-0.0","0","0","13216","","null","","","null","21","","","","","","","","","","","","","","","",""
"","time_out","","html-keyboard-response","152","323793","0.0-1.0-197.0-0.0","0","0","13216","","null","","","null","21","","","","","","","","","","","","","","","",""
"","ITI","","html-keyboard-response","153","324800","0.0-1.0-198.0","0","0","13216","","null","","","null","21","","","","","","","","","","","","","","","NaN",""
"","S1","","html-keyboard-response","154","325054","0.0-1.0-200.0","0","0","13216","","null","","","null","22","","","","","","","","","","","","","","","",""
"","ISI","","html-keyboard-response","155","327059","0.0-1.0-201.0","0","0","13216","","1104","","","75","22","k","","","","","","","","","","","","","","",""
"","S2","","html-keyboard-response","156","327320","0.0-1.0-202.0","0","0","13216","","null","","","null","22","","NaN","","","","","","","","","","","","","",""
"","response","","html-keyboard-response","157","327457","0.0-1.0-203.0-0.0","0","0","13216","","132","","","75","22","","","1","22","training","adjacent","CB","3","2","R.jpg","M.jpg","0","0","1","",""
"","feedback","","html-keyboard-response","158","328465","0.0-1.0-204.0-0.0","0","0","13216","","null","","","null","22","","","","","","","","","","","","","","","",""
"","ITI","","html-keyboard-response","159","329472","0.0-1.0-207.0","0","0","13216","","null","","","null","22","","","","","","","","","","","","","","","NaN",""
"","S1","","html-keyboard-response","160","329735","0.0-1.0-209.0","0","0","13216","","null","","","null","23","","","","","","","","","","","","","","","",""
"","ISI","","html-keyboard-response","161","331742","0.0-1.0-210.0","0","0","13216","","null","","","null","23","NaN","","","","","","","","","","","","","","",""
"","S2","","html-keyboard-response","162","332002","0.0-1.0-211.0","0","0","13216","","null","","","null","23","","NaN","","","","","","","","","","","","","",""
"","response","","html-keyboard-response","163","332171","0.0-1.0-212.0-0.0","0","0","13216","","163","","","68","23","","","1","23","training","adjacent","DC","4","3","P.jpg","R.jpg","1","0","0","",""
"","feedback","","html-keyboard-response","164","333177","0.0-1.0-213.0-0.0","0","0","13216","","null","","","null","23","","","","","","","","","","","","","","","",""
"","time_out","","html-keyboard-response","165","335185","0.0-1.0-215.0-0.0","0","0","13216","","null","","","null","23","","","","","","","","","","","","","","","",""
"","ITI","","html-keyboard-response","166","336192","0.0-1.0-216.0","0","0","13216","","null","","","null","23","","","","","","","","","","","","","","","NaN",""
"","S1","","html-keyboard-response","167","336449","0.0-1.0-218.0","0","0","13216","","null","","","null","24","","","","","","","","","","","","","","","",""
"","ISI","","html-keyboard-response","168","338456","0.0-1.0-219.0","0","0","13216","","null","","","null","24","NaN","","","","","","","","","","","","","","",""
"","S2","","html-keyboard-response","169","338718","0.0-1.0-220.0","0","0","13216","","null","","","null","24","","NaN","","","","","","","","","","","","","",""
"","response","","html-keyboard-response","170","339202","0.0-1.0-221.0-0.0","0","0","13216","","479","","","75","24","","","1","24","training","adjacent","DE","4","5","P.jpg","Q.jpg","0","1","0","",""
"","feedback","","html-keyboard-response","171","340208","0.0-1.0-222.0-0.0","0","0","13216","","null","","","null","24","","","","","","","","","","","","","","","",""
"","time_out","","html-keyboard-response","172","342217","0.0-1.0-224.0-0.0","0","0","13216","","null","","","null","24","","","","","","","","","","","","","","","",""
"","ITI","","html-keyboard-response","173","343225","0.0-1.0-225.0","0","0","13216","","null","","","null","24","","","","","","","","","","","","","","","NaN",""
"","S1","","html-keyboard-response","174","343484","0.0-1.0-227.0","0","0","13216","","null","","","null","25","","","","","","","","","","","","","","","",""
"","ISI","","html-keyboard-response","175","345490","0.0-1.0-228.0","0","0","13216","","null","","","null","25","NaN","","","","","","","","","","","","","","",""
"","S2","","html-keyboard-response","176","345751","0.0-1.0-229.0","0","0","13216","","null","","","null","25","","NaN","","","","","","","","","","","","","",""
"","response","","html-keyboard-response","177","346033","0.0-1.0-230.0-0.0","0","0","13216","","277","","","75","25","","","1","25","training","adjacent","ED","5","4","Q.jpg","P.jpg","0","0","1","",""
"","feedback","","html-keyboard-response","178","347041","0.0-1.0-231.0-0.0","0","0","13216","","null","","","null","25","","","","","","","","","","","","","","","",""
"","ITI","","html-keyboard-response","179","348051","0.0-1.0-234.0","0","0","13216","","null","","","null","25","","","","","","","","","","","","","","","NaN",""
"","S1","","html-keyboard-response","180","348311","0.0-1.0-236.0","0","0","13216","","null","","","null","26","","","","","","","","","","","","","","","",""
"","ISI","","html-keyboard-response","181","350321","0.0-1.0-237.0","0","0","13216","","null","","","null","26","NaN","","","","","","","","","","","","","","",""
"","S2","","html-keyboard-response","182","350579","0.0-1.0-238.0","0","0","13216","","null","","","null","26","","NaN","","","","","","","","","","","","","",""
"","response","","html-keyboard-response","183","350947","0.0-1.0-239.0-0.0","0","0","13216","","362","","","75","26","","","1","26","training","adjacent","ED","5","4","Q.jpg","P.jpg","0","0","1","",""
"","feedback","","html-keyboard-response","184","351953","0.0-1.0-240.0-0.0","0","0","13216","","null","","","null","26","","","","","","","","","","","","","","","",""
"","ITI","","html-keyboard-response","185","352961","0.0-1.0-243.0","0","0","13216","","null","","","null","26","","","","","","","","","","","","","","","NaN",""
"","S1","","html-keyboard-response","186","353221","0.0-1.0-245.0","0","0","13216","","null","","","null","27","","","","","","","","","","","","","","","",""
"","ISI","","html-keyboard-response","187","355233","0.0-1.0-246.0","0","0","13216","","null","","","null","27","NaN","","","","","","","","","","","","","","",""
"","S2","","html-keyboard-response","188","355490","0.0-1.0-247.0","0","0","13216","","null","","","null","27","","NaN","","","","","","","","","","","","","",""
"","response","","html-keyboard-response","189","356098","0.0-1.0-248.0-0.0","0","0","13216","","604","","","68","27","","","1","27","training","adjacent","BA","2","1","M.jpg","N.jpg","1","0","0","",""
"","feedback","","html-keyboard-response","190","357104","0.0-1.0-249.0-0.0","0","0","13216","","null","","","null","27","","","","","","","","","","","","","","","",""
"","time_out","","html-keyboard-response","191","359116","0.0-1.0-251.0-0.0","0","0","13216","","null","","","null","27","","","","","","","","","","","","","","","",""
"","ITI","","html-keyboard-response","192","360123","0.0-1.0-252.0","0","0","13216","","null","","","null","27","","","","","","","","","","","","","","","NaN",""
"","S1","","html-keyboard-response","193","360386","0.0-1.0-254.0","0","0","13216","","null","","","null","28","","","","","","","","","","","","","","","",""
"","ISI","","html-keyboard-response","194","362397","0.0-1.0-255.0","0","0","13216","","null","","","null","28","NaN","","","","","","","","","","","","","","",""
"","S2","","html-keyboard-response","195","362656","0.0-1.0-256.0","0","0","13216","","null","","","null","28","","NaN","","","","","","","","","","","","","",""
"","response","","html-keyboard-response","196","362918","0.0-1.0-257.0-0.0","0","0","13216","","255","","","68","28","","","1","28","training","adjacent","AB","1","2","N.jpg","M.jpg","1","1","1","",""
"","feedback","","html-keyboard-response","197","363926","0.0-1.0-258.0-0.0","0","0","13216","","null","","","null","28","","","","","","","","","","","","","","","",""
"","ITI","","html-keyboard-response","198","364935","0.0-1.0-261.0","0","0","13216","","null","","","null","28","","","","","","","","","","","","","","","NaN",""
"","S1","","html-keyboard-response","199","365193","0.0-1.0-263.0","0","0","13216","","null","","","null","29","","","","","","","","","","","","","","","",""
"","ISI","","html-keyboard-response","200","367202","0.0-1.0-264.0","0","0","13216","","null","","","null","29","NaN","","","","","","","","","","","","","","",""
"","S2","","html-keyboard-response","201","367460","0.0-1.0-265.0","0","0","13216","","null","","","null","29","","NaN","","","","","","","","","","","","","",""
"","response","","html-keyboard-response","202","368205","0.0-1.0-266.0-0.0","0","0","13216","","737","","","75","29","","","1","29","training","adjacent","DE","4","5","P.jpg","Q.jpg","0","1","0","",""
"","feedback","","html-keyboard-response","203","369216","0.0-1.0-267.0-0.0","0","0","13216","","null","","","null","29","","","","","","","","","","","","","","","",""
"","time_out","","html-keyboard-response","204","371225","0.0-1.0-269.0-0.0","0","0","13216","","null","","","null","29","","","","","","","","","","","","","","","",""
"","ITI","","html-keyboard-response","205","372236","0.0-1.0-270.0","0","0","13216","","null","","","null","29","","","","","","","","","","","","","","","NaN",""
"","S1","","html-keyboard-response","206","372493","0.0-1.0-272.0","0","0","13216","","null","","","null","30","","","","","","","","","","","","","","","",""
"","ISI","","html-keyboard-response","207","374502","0.0-1.0-273.0","0","0","13216","","null","","","null","30","NaN","","","","","","","","","","","","","","",""
"","S2","","html-keyboard-response","208","374763","0.0-1.0-274.0","0","0","13216","","null","","","null","30","","NaN","","","","","","","","","","","","","",""
"","response","","html-keyboard-response","209","375995","0.0-1.0-275.0-0.0","0","0","13216","","1225","","","68","30","","","1","30","training","adjacent","GF","7","6","L.jpg","O.jpg","1","0","0","",""
"","feedback","","html-keyboard-response","210","377004","0.0-1.0-276.0-0.0","0","0","13216","","null","","","null","30","","","","","","","","","","","","","","","",""
"","time_out","","html-keyboard-response","211","379016","0.0-1.0-278.0-0.0","0","0","13216","","null","","","null","30","","","","","","","","","","","","","","","",""
"","ITI","","html-keyboard-response","212","380024","0.0-1.0-279.0","0","0","13216","","null","","","null","30","","","","","","","","","","","","","","","NaN",""
"","S1","","html-keyboard-response","213","380284","0.0-1.0-281.0","0","0","13216","","null","","","null","31","","","","","","","","","","","","","","","",""
"","ISI","","html-keyboard-response","214","382292","0.0-1.0-282.0","0","0","13216","","null","","","null","31","NaN","","","","","","","","","","","","","","",""
"","S2","","html-keyboard-response","215","382554","0.0-1.0-283.0","0","0","13216","","null","","","null","31","","NaN","","","","","","","","","","","","","",""
"","response","","html-keyboard-response","216","384315","0.0-1.0-284.0-0.0","0","0","13216","","null","","","null","31","","","1","31","training","adjacent","DC","4","3","P.jpg","R.jpg","NaN","0","0","",""
"","too_slow_prompt","","html-keyboard-response","217","385323","0.0-1.0-286.0-0.0","1","0","13216","","null","","","null","","","","","","","","","","","","","","","","",""
"","time_out","","html-keyboard-response","218","387333","0.0-1.0-287.0-0.0","0","0","13216","","null","","","null","31","","","","","","","","","","","","","","","",""
"","ITI","","html-keyboard-response","219","388338","0.0-1.0-288.0","0","0","13216","","null","","","null","31","","","","","","","","","","","","","","","NaN",""
"","S1","","html-keyboard-response","220","388600","0.0-1.0-290.0","0","0","13216","","null","","","null","32","","","","","","","","","","","","","","","",""
"","ISI","","html-keyboard-response","221","390606","0.0-1.0-291.0","0","0","13216","","null","","","null","32","NaN","","","","","","","","","","","","","","",""
"","S2","","html-keyboard-response","222","390867","0.0-1.0-292.0","0","0","13216","","null","","","null","32","","NaN","","","","","","","","","","","","","",""
"","response","","html-keyboard-response","223","391610","0.0-1.0-293.0-0.0","0","0","13216","","736","","","68","32","","","1","32","training","adjacent","FG","6","7","O.jpg","L.jpg","1","1","1","",""
"","feedback","","html-keyboard-response","224","392618","0.0-1.0-294.0-0.0","0","0","13216","","null","","","null","32","","","","","","","","","","","","","","","",""
"","ITI","","html-keyboard-response","225","393628","0.0-1.0-297.0","0","0","13216","","null","","","null","32","","","","","","","","","","","","","","","NaN",""
"","S1","","html-keyboard-response","226","393888","0.0-1.0-299.0","0","0","13216","","null","","","null","33","","","","","","","","","","","","","","","",""
"","ISI","","html-keyboard-response","227","395898","0.0-1.0-300.0","0","0","13216","","null","","","null","33","NaN","","","","","","","","","","","","","","",""
"","S2","","html-keyboard-response","228","396157","0.0-1.0-301.0","0","0","13216","","null","","","null","33","","NaN","","","","","","","","","","","","","",""
"","response","","html-keyboard-response","229","396420","0.0-1.0-302.0-0.0","0","0","13216","","253","","","75","33","","","1","33","training","adjacent","FE","6","5","O.jpg","Q.jpg","0","0","1","",""
"","feedback","","html-keyboard-response","230","397430","0.0-1.0-303.0-0.0","0","0","13216","","null","","","null","33","","","","","","","","","","","","","","","",""
"","ITI","","html-keyboard-response","231","398438","0.0-1.0-306.0","0","0","13216","","null","","","null","33","","","","","","","","","","","","","","","NaN",""
"","S1","","html-keyboard-response","232","398699","0.0-1.0-308.0","0","0","13216","","null","","","null","34","","","","","","","","","","","","","","","",""
"","ISI","","html-keyboard-response","233","400704","0.0-1.0-309.0","0","0","13216","","null","","","null","34","NaN","","","","","","","","","","","","","","",""
"","S2","","html-keyboard-response","234","400965","0.0-1.0-310.0","0","0","13216","","null","","","null","34","","NaN","","","","","","","","","","","","","",""
"","response","","html-keyboard-response","235","401187","0.0-1.0-311.0-0.0","0","0","13216","","215","","","75","34","","","1","34","training","adjacent","BA","2","1","M.jpg","N.jpg","0","0","1","",""
"","feedback","","html-keyboard-response","236","402198","0.0-1.0-312.0-0.0","0","0","13216","","null","","","null","34","","","","","","","","","","","","","","","",""
"","ITI","","html-keyboard-response","237","403207","0.0-1.0-315.0","0","0","13216","","null","","","null","34","","","","","","","","","","","","","","","NaN",""
"","S1","","html-keyboard-response","238","403468","0.0-1.0-317.0","0","0","13216","","null","","","null","35","","","","","","","","","","","","","","","",""
"","ISI","","html-keyboard-response","239","405478","0.0-1.0-318.0","0","0","13216","","null","","","null","35","NaN","","","","","","","","","","","","","","",""
"","S2","","html-keyboard-response","240","405736","0.0-1.0-319.0","0","0","13216","","null","","","null","35","","NaN","","","","","","","","","","","","","",""
"","response","","html-keyboard-response","241","406310","0.0-1.0-320.0-0.0","0","0","13216","","566","","","68","35","","","1","35","training","adjacent","ED","5","4","Q.jpg","P.jpg","1","0","0","",""
"","feedback","","html-keyboard-response","242","407321","0.0-1.0-321.0-0.0","0","0","13216","","null","","","null","35","","","","","","","","","","","","","","","",""
"","time_out","","html-keyboard-response","243","409331","0.0-1.0-323.0-0.0","0","0","13216","","null","","","null","35","","","","","","","","","","","","","","","",""
"","ITI","","html-keyboard-response","244","410338","0.0-1.0-324.0","0","0","13216","","null","","","null","35","","","","","","","","","","","","","","","NaN",""
"","S1","","html-keyboard-response","245","410600","0.0-1.0-326.0","0","0","13216","","null","","","null","36","","","","","","","","","","","","","","","",""
"","ISI","","html-keyboard-response","246","412607","0.0-1.0-327.0","0","0","13216","","null","","","null","36","NaN","","","","","","","","","","","","","","",""
"","S2","","html-keyboard-response","247","412869","0.0-1.0-328.0","0","0","13216","","null","","","null","36","","NaN","","","","","","","","","","","","","",""
"","response","","html-keyboard-response","248","413372","0.0-1.0-329.0-0.0","0","0","13216","","495","","","68","36","","","1","36","training","adjacent","EF","5","6","Q.jpg","O.jpg","1","1","1","",""
"","feedback","","html-keyboard-response","249","414383","0.0-1.0-330.0-0.0","0","0","13216","","null","","","null","36","","","","","","","","","","","","","","","",""
"","ITI","","html-keyboard-response","250","415394","0.0-1.0-333.0","0","0","13216","","null","","","null","36","","","","","","","","","","","","","","","NaN",""
"","S1","","html-keyboard-response","251","415653","0.0-1.0-335.0","0","0","13216","","null","","","null","37","","","","","","","","","","","","","","","",""
"","ISI","","html-keyboard-response","252","417663","0.0-1.0-336.0","0","0","13216","","null","","","null","37","NaN","","","","","","","","","","","","","","",""
"","S2","","html-keyboard-response","253","417921","0.0-1.0-337.0","0","0","13216","","null","","","null","37","","NaN","","","","","","","","","","","","","",""
"","response","","html-keyboard-response","254","418469","0.0-1.0-338.0-0.0","0","0","13216","","542","","","68","37","","","1","37","training","adjacent","CB","3","2","R.jpg","M.jpg","1","0","0","",""
"","feedback","","html-keyboard-response","255","419480","0.0-1.0-339.0-0.0","0","0","13216","","null","","","null","37","","","","","","","","","","","","","","","",""
"","time_out","","html-keyboard-response","256","421487","0.0-1.0-341.0-0.0","0","0","13216","","null","","","null","37","","","","","","","","","","","","","","","",""
"","ITI","","html-keyboard-response","257","422496","0.0-1.0-342.0","0","0","13216","","null","","","null","37","","","","","","","","","","","","","","","NaN",""
"","S1","","html-keyboard-response","258","422755","0.0-1.0-344.0","0","0","13216","","null","","","null","38","","","","","","","","","","","","","","","",""
"","ISI","","html-keyboard-response","259","424762","0.0-1.0-345.0","0","0","13216","","null","","","null","38","NaN","","","","","","","","","","","","","","",""
"","S2","","html-keyboard-response","260","425018","0.0-1.0-346.0","0","0","13216","","null","","","null","38","","NaN","","","","","","","","","","","","","",""
"","response","","html-keyboard-response","261","425297","0.0-1.0-347.0-0.0","0","0","13216","","274","","","75","38","","","1","38","training","adjacent","GF","7","6","L.jpg","O.jpg","0","0","1","",""
"","feedback","","html-keyboard-response","262","426303","0.0-1.0-348.0-0.0","0","0","13216","","null","","","null","38","","","","","","","","","","","","","","","",""
"","ITI","","html-keyboard-response","263","427311","0.0-1.0-351.0","0","0","13216","","null","","","null","38","","","","","","","","","","","","","","","NaN",""
"","S1","","html-keyboard-response","264","427568","0.0-1.0-353.0","0","0","13216","","null","","","null","39","","","","","","","","","","","","","","","",""
"","ISI","","html-keyboard-response","265","429575","0.0-1.0-354.0","0","0","13216","","null","","","null","39","NaN","","","","","","","","","","","","","","",""
"","S2","","html-keyboard-response","266","429831","0.0-1.0-355.0","0","0","13216","","null","","","null","39","","NaN","","","","","","","","","","","","","",""
"","response","","html-keyboard-response","267","430413","0.0-1.0-356.0-0.0","0","0","13216","","573","","","75","39","","","1","39","training","adjacent","FE","6","5","O.jpg","Q.jpg","0","0","1","",""
"","feedback","","html-keyboard-response","268","431420","0.0-1.0-357.0-0.0","0","0","13216","","null","","","null","39","","","","","","","","","","","","","","","",""
"","ITI","","html-keyboard-response","269","432430","0.0-1.0-360.0","0","0","13216","","null","","","null","39","","","","","","","","","","","","","","","NaN",""
"","S1","","html-keyboard-response","270","432688","0.0-1.0-362.0","0","0","13216","","null","","","null","40","","","","","","","","","","","","","","","",""
"","ISI","","html-keyboard-response","271","434694","0.0-1.0-363.0","0","0","13216","","null","","","null","40","NaN","","","","","","","","","","","","","","",""
"","S2","","html-keyboard-response","272","434951","0.0-1.0-364.0","0","0","13216","","null","","","null","40","","NaN","","","","","","","","","","","","","",""
"","response","","html-keyboard-response","273","435210","0.0-1.0-365.0-0.0","0","0","13216","","251","","","68","40","","","1","40","training","adjacent","AB","1","2","N.jpg","M.jpg","1","1","1","",""
"","feedback","","html-keyboard-response","274","436218","0.0-1.0-366.0-0.0","0","0","13216","","null","","","null","40","","","","","","","","","","","","","","","",""
"","ITI","","html-keyboard-response","275","437227","0.0-1.0-369.0","0","0","13216","","null","","","null","40","","","","","","","","","","","","","","","NaN",""
"","S1","","html-keyboard-response","276","437486","0.0-1.0-371.0","0","0","13216","","null","","","null","41","","","","","","","","","","","","","","","",""
"","ISI","","html-keyboard-response","277","439496","0.0-1.0-372.0","0","0","13216","","null","","","null","41","NaN","","","","","","","","","","","","","","",""
"","S2","","html-keyboard-response","278","439752","0.0-1.0-373.0","0","0","13216","","null","","","null","41","","NaN","","","","","","","","","","","","","",""
"","response","","html-keyboard-response","279","440248","0.0-1.0-374.0-0.0","0","0","13216","","492","","","75","41","","","1","41","training","adjacent","BA","2","1","M.jpg","N.jpg","0","0","1","",""
"","feedback","","html-keyboard-response","280","441256","0.0-1.0-375.0-0.0","0","0","13216","","null","","","null","41","","","","","","","","","","","","","","","",""
"","ITI","","html-keyboard-response","281","442268","0.0-1.0-378.0","0","0","13216","","null","","","null","41","","","","","","","","","","","","","","","NaN",""
"","S1","","html-keyboard-response","282","442530","0.0-1.0-380.0","0","0","13216","","null","","","null","42","","","","","","","","","","","","","","","",""
"","ISI","","html-keyboard-response","283","444538","0.0-1.0-381.0","0","0","13216","","null","","","null","42","NaN","","","","","","","","","","","","","","",""
"","S2","","html-keyboard-response","284","444800","0.0-1.0-382.0","0","0","13216","","null","","","null","42","","NaN","","","","","","","","","","","","","",""
"","response","","html-keyboard-response","285","445301","0.0-1.0-383.0-0.0","0","0","13216","","493","","","68","42","","","1","42","training","adjacent","FG","6","7","O.jpg","L.jpg","1","1","1","",""
"","feedback","","html-keyboard-response","286","446313","0.0-1.0-384.0-0.0","0","0","13216","","null","","","null","42","","","","","","","","","","","","","","","",""
"","ITI","","html-keyboard-response","287","447321","0.0-1.0-387.0","0","0","13216","","null","","","null","42","","","","","","","","","","","","","","","NaN",""
"","S1","","html-keyboard-response","288","447582","0.0-1.0-389.0","0","0","13216","","null","","","null","43","","","","","","","","","","","","","","","",""
"","ISI","","html-keyboard-response","289","449592","0.0-1.0-390.0","0","0","13216","","null","","","null","43","NaN","","","","","","","","","","","","","","",""
"","S2","","html-keyboard-response","290","449851","0.0-1.0-391.0","0","0","13216","","null","","","null","43","","NaN","","","","","","","","","","","","","",""
"","response","","html-keyboard-response","291","450326","0.0-1.0-392.0-0.0","0","0","13216","","465","","","68","43","","","1","43","training","adjacent","CB","3","2","R.jpg","M.jpg","1","0","0","",""
"","feedback","","html-keyboard-response","292","451336","0.0-1.0-393.0-0.0","0","0","13216","","null","","","null","43","","","","","","","","","","","","","","","",""
"","time_out","","html-keyboard-response","293","453346","0.0-1.0-395.0-0.0","0","0","13216","","null","","","null","43","","","","","","","","","","","","","","","",""
"","ITI","","html-keyboard-response","294","454353","0.0-1.0-396.0","0","0","13216","","null","","","null","43","","","","","","","","","","","","","","","NaN",""
"","S1","","html-keyboard-response","295","454614","0.0-1.0-398.0","0","0","13216","","null","","","null","44","","","","","","","","","","","","","","","",""
"","ISI","","html-keyboard-response","296","456622","0.0-1.0-399.0","0","0","13216","","null","","","null","44","NaN","","","","","","","","","","","","","","",""
"","S2","","html-keyboard-response","297","456883","0.0-1.0-400.0","0","0","13216","","null","","","null","44","","NaN","","","","","","","","","","","","","",""
"","response","","html-keyboard-response","298","457636","0.0-1.0-401.0-0.0","0","0","13216","","746","","","75","44","","","1","44","training","adjacent","EF","5","6","Q.jpg","O.jpg","0","1","0","",""
"","feedback","","html-keyboard-response","299","458643","0.0-1.0-402.0-0.0","0","0","13216","","null","","","null","44","","","","","","","","","","","","","","","",""
"","time_out","","html-keyboard-response","300","460650","0.0-1.0-404.0-0.0","0","0","13216","","null","","","null","44","","","","","","","","","","","","","","","",""
"","ITI","","html-keyboard-response","301","461659","0.0-1.0-405.0","0","0","13216","","null","","","null","44","","","","","","","","","","","","","","","NaN",""
"","S1","","html-keyboard-response","302","461915","0.0-1.0-407.0","0","0","13216","","null","","","null","45","","","","","","","","","","","","","","","",""
"","ISI","","html-keyboard-response","303","463921","0.0-1.0-408.0","0","0","13216","","null","","","null","45","NaN","","","","","","","","","","","","","","",""
"","S2","","html-keyboard-response","304","464179","0.0-1.0-409.0","0","0","13216","","null","","","null","45","","NaN","","","","","","","","","","","","","",""
"","response","","html-keyboard-response","305","464865","0.0-1.0-410.0-0.0","0","0","13216","","681","","","68","45","","","1","45","training","adjacent","EF","5","6","Q.jpg","O.jpg","1","1","1","",""
"","feedback","","html-keyboard-response","306","465876","0.0-1.0-411.0-0.0","0","0","13216","","null","","","null","45","","","","","","","","","","","","","","","",""
"","ITI","","html-keyboard-response","307","466884","0.0-1.0-414.0","0","0","13216","","null","","","null","45","","","","","","","","","","","","","","","NaN",""
"","S1","","html-keyboard-response","308","467145","0.0-1.0-416.0","0","0","13216","","null","","","null","46","","","","","","","","","","","","","","","",""
"","ISI","","html-keyboard-response","309","469152","0.0-1.0-417.0","0","0","13216","","null","","","null","46","NaN","","","","","","","","","","","","","","",""
"","S2","","html-keyboard-response","310","469413","0.0-1.0-418.0","0","0","13216","","null","","","null","46","","NaN","","","","","","","","","","","","","",""
"","response","","html-keyboard-response","311","470130","0.0-1.0-419.0-0.0","0","0","13216","","706","","","68","46","","","1","46","training","adjacent","EF","5","6","Q.jpg","O.jpg","1","1","1","",""
"","feedback","","html-keyboard-response","312","471143","0.0-1.0-420.0-0.0","0","0","13216","","null","","","null","46","","","","","","","","","","","","","","","",""
"","ITI","","html-keyboard-response","313","472151","0.0-1.0-423.0","0","0","13216","","null","","","null","46","","","","","","","","","","","","","","","NaN",""
"","S1","","html-keyboard-response","314","472411","0.0-1.0-425.0","0","0","13216","","null","","","null","47","","","","","","","","","","","","","","","",""
"","ISI","","html-keyboard-response","315","474418","0.0-1.0-426.0","0","0","13216","","null","","","null","47","NaN","","","","","","","","","","","","","","",""
"","S2","","html-keyboard-response","316","474677","0.0-1.0-427.0","0","0","13216","","null","","","null","47","","NaN","","","","","","","","","","","","","",""
"","response","","html-keyboard-response","317","475117","0.0-1.0-428.0-0.0","0","0","13216","","432","","","68","47","","","1","47","training","adjacent","CB","3","2","R.jpg","M.jpg","1","0","0","",""
"","feedback","","html-keyboard-response","318","476128","0.0-1.0-429.0-0.0","0","0","13216","","null","","","null","47","","","","","","","","","","","","","","","",""
"","time_out","","html-keyboard-response","319","478134","0.0-1.0-431.0-0.0","0","0","13216","","null","","","null","47","","","","","","","","","","","","","","","",""
"","ITI","","html-keyboard-response","320","479145","0.0-1.0-432.0","0","0","13216","","null","","","null","47","","","","","","","","","","","","","","","NaN",""
"","block_over","","html-keyboard-response","321","737097","0.0-1.0-433.0-0.0","0","0","13216","","257942","","","32","47","","","","","","","","","","","","","","","",""
"","S1","","html-keyboard-response","322","737354","0.0-1.0-434.0","0","0","13216","","null","","","null","48","","","","","","","","","","","","","","","",""
"","ISI","","html-keyboard-response","323","739367","0.0-1.0-435.0","0","0","13216","","null","","","null","48","NaN","","","","","","","","","","","","","","",""
"","S2","","html-keyboard-response","324","739623","0.0-1.0-436.0","0","0","13216","","null","","","null","48","","NaN","","","","","","","","","","","","","",""
"","response","","html-keyboard-response","325","740457","0.0-1.0-437.0-0.0","0","0","13216","","830","","","68","48","","","2","48","training","adjacent","AB","1","2","N.jpg","M.jpg","1","1","1","",""
"","feedback","","html-keyboard-response","326","741464","0.0-1.0-438.0-0.0","0","0","13216","","null","","","null","48","","","","","","","","","","","","","","","",""
"","ITI","","html-keyboard-response","327","742473","0.0-1.0-441.0","0","0","13216","","null","","","null","48","","","","","","","","","","","","","","","NaN",""
"","S1","","html-keyboard-response","328","742734","0.0-1.0-443.0","0","0","13216","","null","","","null","49","","","","","","","","","","","","","","","",""
"","ISI","","html-keyboard-response","329","744739","0.0-1.0-444.0","0","0","13216","","null","","","null","49","NaN","","","","","","","","","","","","","","",""
"","S2","","html-keyboard-response","330","744998","0.0-1.0-445.0","0","0","13216","","null","","","null","49","","NaN","","","","","","","","","","","","","",""
"","response","","html-keyboard-response","331","745491","0.0-1.0-446.0-0.0","0","0","13216","","488","","","75","49","","","2","49","training","adjacent","CB","3","2","R.jpg","M.jpg","0","0","1","",""
"","feedback","","html-keyboard-response","332","746501","0.0-1.0-447.0-0.0","0","0","13216","","null","","","null","49","","","","","","","","","","","","","","","",""
"","ITI","","html-keyboard-response","333","747520","0.0-1.0-450.0","0","0","13216","","null","","","null","49","","","","","","","","","","","","","","","NaN",""
"","S1","","html-keyboard-response","334","747775","0.0-1.0-452.0","0","0","13216","","null","","","null","50","","","","","","","","","","","","","","","",""
"","ISI","","html-keyboard-response","335","749781","0.0-1.0-453.0","0","0","13216","","null","","","null","50","NaN","","","","","","","","","","","","","","",""
"","S2","","html-keyboard-response","336","750036","0.0-1.0-454.0","0","0","13216","","null","","","null","50","","NaN","","","","","","","","","","","","","",""
"","response","","html-keyboard-response","337","750402","0.0-1.0-455.0-0.0","0","0","13216","","361","","","68","50","","","2","50","training","adjacent","ED","5","4","Q.jpg","P.jpg","1","0","0","",""
"","feedback","","html-keyboard-response","338","751421","0.0-1.0-456.0-0.0","0","0","13216","","null","","","null","50","","","","","","","","","","","","","","","",""
"","time_out","","html-keyboard-response","339","753426","0.0-1.0-458.0-0.0","0","0","13216","","null","","","null","50","","","","","","","","","","","","","","","",""
"","ITI","","html-keyboard-response","340","754434","0.0-1.0-459.0","0","0","13216","","null","","","null","50","","","","","","","","","","","","","","","NaN",""
"","S1","","html-keyboard-response","341","754691","0.0-1.0-461.0","0","0","13216","","null","","","null","51","","","","","","","","","","","","","","","",""
"","ISI","","html-keyboard-response","342","756698","0.0-1.0-462.0","0","0","13216","","null","","","null","51","NaN","","","","","","","","","","","","","","",""
"","S2","","html-keyboard-response","343","756953","0.0-1.0-463.0","0","0","13216","","null","","","null","51","","NaN","","","","","","","","","","","","","",""
"","response","","html-keyboard-response","344","757812","0.0-1.0-464.0-0.0","0","0","13216","","852","","","68","51","","","2","51","training","adjacent","DE","4","5","P.jpg","Q.jpg","1","1","1","",""
"","feedback","","html-keyboard-response","345","758819","0.0-1.0-465.0-0.0","0","0","13216","","null","","","null","51","","","","","","","","","","","","","","","",""
"","ITI","","html-keyboard-response","346","759828","0.0-1.0-468.0","0","0","13216","","null","","","null","51","","","","","","","","","","","","","","","NaN",""
"","S1","","html-keyboard-response","347","760084","0.0-1.0-470.0","0","0","13216","","null","","","null","52","","","","","","","","","","","","","","","",""
"","ISI","","html-keyboard-response","348","762090","0.0-1.0-471.0","0","0","13216","","null","","","null","52","NaN","","","","","","","","","","","","","","",""
"","S2","","html-keyboard-response","349","762349","0.0-1.0-472.0","0","0","13216","","null","","","null","52","","NaN","","","","","","","","","","","","","",""
"","response","","html-keyboard-response","350","762834","0.0-1.0-473.0-0.0","0","0","13216","","479","","","68","52","","","2","52","training","adjacent","CD","3","4","R.jpg","P.jpg","1","1","1","",""
"","feedback","","html-keyboard-response","351","763846","0.0-1.0-474.0-0.0","0","0","13216","","null","","","null","52","","","","","","","","","","","","","","","",""
"","ITI","","html-keyboard-response","352","764853","0.0-1.0-477.0","0","0","13216","","null","","","null","52","","","","","","","","","","","","","","","NaN",""
"","S1","","html-keyboard-response","353","765107","0.0-1.0-479.0","0","0","13216","","null","","","null","53","","","","","","","","","","","","","","","",""
"","ISI","","html-keyboard-response","354","767115","0.0-1.0-480.0","0","0","13216","","null","","","null","53","NaN","","","","","","","","","","","","","","",""
"","S2","","html-keyboard-response","355","767372","0.0-1.0-481.0","0","0","13216","","null","","","null","53","","NaN","","","","","","","","","","","","","",""
"","response","","html-keyboard-response","356","767901","0.0-1.0-482.0-0.0","0","0","13216","","525","","","75","53","","","2","53","training","adjacent","EF","5","6","Q.jpg","O.jpg","0","1","0","",""
"","feedback","","html-keyboard-response","357","768907","0.0-1.0-483.0-0.0","0","0","13216","","null","","","null","53","","","","","","","","","","","","","","","",""
"","time_out","","html-keyboard-response","358","770913","0.0-1.0-485.0-0.0","0","0","13216","","null","","","null","53","","","","","","","","","","","","","","","",""
"","ITI","","html-keyboard-response","359","771917","0.0-1.0-486.0","0","0","13216","","null","","","null","53","","","","","","","","","","","","","","","NaN",""
"","S1","","html-keyboard-response","360","772173","0.0-1.0-488.0","0","0","13216","","null","","","null","54","","","","","","","","","","","","","","","",""
"","ISI","","html-keyboard-response","361","774180","0.0-1.0-489.0","0","0","13216","","null","","","null","54","NaN","","","","","","","","","","","","","","",""
"","S2","","html-keyboard-response","362","774435","0.0-1.0-490.0","0","0","13216","","null","","","null","54","","NaN","","","","","","","","","","","","","",""
"","response","","html-keyboard-response","363","775185","0.0-1.0-491.0-0.0","0","0","13216","","746","","","68","54","","","2","54","training","adjacent","CD","3","4","R.jpg","P.jpg","1","1","1","",""
"","feedback","","html-keyboard-response","364","776194","0.0-1.0-492.0-0.0","0","0","13216","","null","","","null","54","","","","","","","","","","","","","","","",""
"","ITI","","html-keyboard-response","365","777199","0.0-1.0-495.0","0","0","13216","","null","","","null","54","","","","","","","","","","","","","","","NaN",""
"","S1","","html-keyboard-response","366","777454","0.0-1.0-497.0","0","0","13216","","null","","","null","55","","","","","","","","","","","","","","","",""
"","ISI","","html-keyboard-response","367","779461","0.0-1.0-498.0","0","0","13216","","null","","","null","55","NaN","","","","","","","","","","","","","","",""
"","S2","","html-keyboard-response","368","779719","0.0-1.0-499.0","0","0","13216","","null","","","null","55","","NaN","","","","","","","","","","","","","",""
"","response","","html-keyboard-response","369","780003","0.0-1.0-500.0-0.0","0","0","13216","","277","","","75","55","","","2","55","training","adjacent","FE","6","5","O.jpg","Q.jpg","0","0","1","",""
"","feedback","","html-keyboard-response","370","781011","0.0-1.0-501.0-0.0","0","0","13216","","null","","","null","55","","","","","","","","","","","","","","","",""
"","ITI","","html-keyboard-response","371","782019","0.0-1.0-504.0","0","0","13216","","null","","","null","55","","","","","","","","","","","","","","","NaN",""
"","S1","","html-keyboard-response","372","782282","0.0-1.0-506.0","0","0","13216","","null","","","null","56","","","","","","","","","","","","","","","",""
"","ISI","","html-keyboard-response","373","784287","0.0-1.0-507.0","0","0","13216","","null","","","null","56","NaN","","","","","","","","","","","","","","",""
"","S2","","html-keyboard-response","374","784546","0.0-1.0-508.0","0","0","13216","","null","","","null","56","","NaN","","","","","","","","","","","","","",""
"","response","","html-keyboard-response","375","784938","0.0-1.0-509.0-0.0","0","0","13216","","387","","","68","56","","","2","56","training","adjacent","FE","6","5","O.jpg","Q.jpg","1","0","0","",""
"","feedback","","html-keyboard-response","376","785946","0.0-1.0-510.0-0.0","0","0","13216","","null","","","null","56","","","","","","","","","","","","","","","",""
"","time_out","","html-keyboard-response","377","787953","0.0-1.0-512.0-0.0","0","0","13216","","null","","","null","56","","","","","","","","","","","","","","","",""
"","ITI","","html-keyboard-response","378","788961","0.0-1.0-513.0","0","0","13216","","null","","","null","56","","","","","","","","","","","","","","","NaN",""
"","S1","","html-keyboard-response","379","789218","0.0-1.0-515.0","0","0","13216","","null","","","null","57","","","","","","","","","","","","","","","",""
"","ISI","","html-keyboard-response","380","791223","0.0-1.0-516.0","0","0","13216","","null","","","null","57","NaN","","","","","","","","","","","","","","",""
"","S2","","html-keyboard-response","381","791482","0.0-1.0-517.0","0","0","13216","","null","","","null","57","","NaN","","","","","","","","","","","","","",""
"","response","","html-keyboard-response","382","791767","0.0-1.0-518.0-0.0","0","0","13216","","277","","","75","57","","","2","57","training","adjacent","GF","7","6","L.jpg","O.jpg","0","0","1","",""
"","feedback","","html-keyboard-response","383","792773","0.0-1.0-519.0-0.0","0","0","13216","","null","","","null","57","","","","","","","","","","","","","","","",""
"","ITI","","html-keyboard-response","384","793780","0.0-1.0-522.0","0","0","13216","","null","","","null","57","","","","","","","","","","","","","","","NaN",""
"","S1","","html-keyboard-response","385","794040","0.0-1.0-524.0","0","0","13216","","null","","","null","58","","","","","","","","","","","","","","","",""
"","ISI","","html-keyboard-response","386","796049","0.0-1.0-525.0","0","0","13216","","null","","","null","58","NaN","","","","","","","","","","","","","","",""
"","S2","","html-keyboard-response","387","796306","0.0-1.0-526.0","0","0","13216","","null","","","null","58","","NaN","","","","","","","","","","","","","",""
"","response","","html-keyboard-response","388","797133","0.0-1.0-527.0-0.0","0","0","13216","","821","","","68","58","","","2","58","training","adjacent","BA","2","1","M.jpg","N.jpg","1","0","0","",""
"","feedback","","html-keyboard-response","389","798142","0.0-1.0-528.0-0.0","0","0","13216","","null","","","null","58","","","","","","","","","","","","","","","",""
"","time_out","","html-keyboard-response","390","800149","0.0-1.0-530.0-0.0","0","0","13216","","null","","","null","58","","","","","","","","","","","","","","","",""
"","ITI","","html-keyboard-response","391","801154","0.0-1.0-531.0","0","0","13216","","null","","","null","58","","","","","","","","","","","","","","","NaN",""
"","S1","","html-keyboard-response","392","801413","0.0-1.0-533.0","0","0","13216","","null","","","null","59","","","","","","","","","","","","","","","",""
"","ISI","","html-keyboard-response","393","803418","0.0-1.0-534.0","0","0","13216","","null","","","null","59","NaN","","","","","","","","","","","","","","",""
"","S2","","html-keyboard-response","394","803674","0.0-1.0-535.0","0","0","13216","","null","","","null","59","","NaN","","","","","","","","","","","","","",""
"","response","","html-keyboard-response","395","803866","0.0-1.0-536.0-0.0","0","0","13216","","186","","","75","59","","","2","59","training","adjacent","DC","4","3","P.jpg","R.jpg","0","0","1","",""
"","feedback","","html-keyboard-response","396","804876","0.0-1.0-537.0-0.0","0","0","13216","","null","","","null","59","","","","","","","","","","","","","","","",""
"","ITI","","html-keyboard-response","397","805884","0.0-1.0-540.0","0","0","13216","","null","","","null","59","","","","","","","","","","","","","","","NaN",""
"","S1","","html-keyboard-response","398","806140","0.0-1.0-542.0","0","0","13216","","null","","","null","60","","","","","","","","","","","","","","","",""
"","ISI","","html-keyboard-response","399","808150","0.0-1.0-543.0","0","0","13216","","1543","","","68","60","d","","","","","","","","","","","","","","",""
"","S2","","html-keyboard-response","400","808406","0.0-1.0-544.0","0","0","13216","","null","","","null","60","","NaN","","","","","","","","","","","","","",""
"","response","","html-keyboard-response","401","808753","0.0-1.0-545.0-0.0","0","0","13216","","343","","","68","60","","","2","60","training","adjacent","BC","2","3","M.jpg","R.jpg","1","1","1","",""
"","feedback","","html-keyboard-response","402","809760","0.0-1.0-546.0-0.0","0","0","13216","","null","","","null","60","","","","","","","","","","","","","","","",""
"","ITI","","html-keyboard-response","403","810766","0.0-1.0-549.0","0","0","13216","","null","","","null","60","","","","","","","","","","","","","","","NaN",""
"","S1","","html-keyboard-response","404","811022","0.0-1.0-551.0","0","0","13216","","null","","","null","61","","","","","","","","","","","","","","","",""
"","ISI","","html-keyboard-response","405","813031","0.0-1.0-552.0","0","0","13216","","null","","","null","61","NaN","","","","","","","","","","","","","","",""
"","S2","","html-keyboard-response","406","813289","0.0-1.0-553.0","0","0","13216","","null","","","null","61","","NaN","","","","","","","","","","","","","",""
"","response","","html-keyboard-response","407","813510","0.0-1.0-554.0-0.0","0","0","13216","","210","","","75","61","","","2","61","training","adjacent","GF","7","6","L.jpg","O.jpg","0","0","1","",""
"","feedback","","html-keyboard-response","408","814520","0.0-1.0-555.0-0.0","0","0","13216","","null","","","null","61","","","","","","","","","","","","","","","",""
"","ITI","","html-keyboard-response","409","815528","0.0-1.0-558.0","0","0","13216","","null","","","null","61","","","","","","","","","","","","","","","NaN",""
"","S1","","html-keyboard-response","410","815783","0.0-1.0-560.0","0","0","13216","","null","","","null","62","","","","","","","","","","","","","","","",""
"","ISI","","html-keyboard-response","411","817797","0.0-1.0-561.0","0","0","13216","","null","","","null","62","NaN","","","","","","","","","","","","","","",""
"","S2","","html-keyboard-response","412","818055","0.0-1.0-562.0","0","0","13216","","null","","","null","62","","NaN","","","","","","","","","","","","","",""
"","response","","html-keyboard-response","413","818166","0.0-1.0-563.0-0.0","0","0","13216","","104","","","75","62","","","2","62","training","adjacent","ED","5","4","Q.jpg","P.jpg","0","0","1","",""
"","feedback","","html-keyboard-response","414","819213","0.0-1.0-564.0-0.0","0","0","13216","","null","","","null","62","","","","","","","","","","","","","","","",""
"","ITI","","html-keyboard-response","415","820220","0.0-1.0-567.0","0","0","13216","","null","","","null","62","","","","","","","","","","","","","","","NaN",""
"","S1","","html-keyboard-response","416","820478","0.0-1.0-569.0","0","0","13216","","null","","","null","63","","","","","","","","","","","","","","","",""
"","ISI","","html-keyboard-response","417","822484","0.0-1.0-570.0","0","0","13216","","null","","","null","63","NaN","","","","","","","","","","","","","","",""
"","S2","","html-keyboard-response","418","822745","0.0-1.0-571.0","0","0","13216","","null","","","null","63","","NaN","","","","","","","","","","","","","",""
"","response","","html-keyboard-response","419","822970","0.0-1.0-572.0-0.0","0","0","13216","","220","","","68","63","","","2","63","training","adjacent","AB","1","2","N.jpg","M.jpg","1","1","1","",""
"","feedback","","html-keyboard-response","420","823977","0.0-1.0-573.0-0.0","0","0","13216","","null","","","null","63","","","","","","","","","","","","","","","",""
"","ITI","","html-keyboard-response","421","824984","0.0-1.0-576.0","0","0","13216","","null","","","null","63","","","","","","","","","","","","","","","NaN",""
"","S1","","html-keyboard-response","422","825242","0.0-1.0-578.0","0","0","13216","","null","","","null","64","","","","","","","","","","","","","","","",""
"","ISI","","html-keyboard-response","423","827246","0.0-1.0-579.0","0","0","13216","","null","","","null","64","NaN","","","","","","","","","","","","","","",""
"","S2","","html-keyboard-response","424","827503","0.0-1.0-580.0","0","0","13216","","null","","","null","64","","NaN","","","","","","","","","","","","","",""
"","response","","html-keyboard-response","425","827852","0.0-1.0-581.0-0.0","0","0","13216","","344","","","68","64","","","2","64","training","adjacent","BA","2","1","M.jpg","N.jpg","1","0","0","",""
"","feedback","","html-keyboard-response","426","828861","0.0-1.0-582.0-0.0","0","0","13216","","null","","","null","64","","","","","","","","","","","","","","","",""
"","time_out","","html-keyboard-response","427","830869","0.0-1.0-584.0-0.0","0","0","13216","","null","","","null","64","","","","","","","","","","","","","","","",""
"","ITI","","html-keyboard-response","428","831877","0.0-1.0-585.0","0","0","13216","","null","","","null","64","","","","","","","","","","","","","","","NaN",""
"","S1","","html-keyboard-response","429","832133","0.0-1.0-587.0","0","0","13216","","null","","","null","65","","","","","","","","","","","","","","","",""
"","ISI","","html-keyboard-response","430","834142","0.0-1.0-588.0","0","0","13216","","null","","","null","65","NaN","","","","","","","","","","","","","","",""
"","S2","","html-keyboard-response","431","834397","0.0-1.0-589.0","0","0","13216","","null","","","null","65","","NaN","","","","","","","","","","","","","",""
"","response","","html-keyboard-response","432","834817","0.0-1.0-590.0-0.0","0","0","13216","","416","","","75","65","","","2","65","training","adjacent","GF","7","6","L.jpg","O.jpg","0","0","1","",""
"","feedback","","html-keyboard-response","433","835831","0.0-1.0-591.0-0.0","0","0","13216","","null","","","null","65","","","","","","","","","","","","","","","",""
"","ITI","","html-keyboard-response","434","836839","0.0-1.0-594.0","0","0","13216","","null","","","null","65","","","","","","","","","","","","","","","NaN",""
"","S1","","html-keyboard-response","435","837098","0.0-1.0-596.0","0","0","13216","","null","","","null","66","","","","","","","","","","","","","","","",""
"","ISI","","html-keyboard-response","436","839104","0.0-1.0-597.0","0","0","13216","","null","","","null","66","NaN","","","","","","","","","","","","","","",""
"","S2","","html-keyboard-response","437","839362","0.0-1.0-598.0","0","0","13216","","null","","","null","66","","NaN","","","","","","","","","","","","","",""
"","response","","html-keyboard-response","438","839669","0.0-1.0-599.0-0.0","0","0","13216","","302","","","68","66","","","2","66","training","adjacent","ED","5","4","Q.jpg","P.jpg","1","0","0","",""
"","feedback","","html-keyboard-response","439","840676","0.0-1.0-600.0-0.0","0","0","13216","","null","","","null","66","","","","","","","","","","","","","","","",""
"","time_out","","html-keyboard-response","440","842683","0.0-1.0-602.0-0.0","0","0","13216","","null","","","null","66","","","","","","","","","","","","","","","",""
"","ITI","","html-keyboard-response","441","843691","0.0-1.0-603.0","0","0","13216","","null","","","null","66","","","","","","","","","","","","","","","NaN",""
"","S1","","html-keyboard-response","442","843946","0.0-1.0-605.0","0","0","13216","","null","","","null","67","","","","","","","","","","","","","","","",""
"","ISI","","html-keyboard-response","443","845952","0.0-1.0-606.0","0","0","13216","","null","","","null","67","NaN","","","","","","","","","","","","","","",""
"","S2","","html-keyboard-response","444","846212","0.0-1.0-607.0","0","0","13216","","null","","","null","67","","NaN","","","","","","","","","","","","","",""
"","response","","html-keyboard-response","445","846621","0.0-1.0-608.0-0.0","0","0","13216","","401","","","75","67","","","2","67","training","adjacent","DE","4","5","P.jpg","Q.jpg","0","1","0","",""
"","feedback","","html-keyboard-response","446","847632","0.0-1.0-609.0-0.0","0","0","13216","","null","","","null","67","","","","","","","","","","","","","","","",""
"","time_out","","html-keyboard-response","447","849645","0.0-1.0-611.0-0.0","0","0","13216","","null","","","null","67","","","","","","","","","","","","","","","",""
"","ITI","","html-keyboard-response","448","850652","0.0-1.0-612.0","0","0","13216","","null","","","null","67","","","","","","","","","","","","","","","NaN",""
"","S1","","html-keyboard-response","449","850911","0.0-1.0-614.0","0","0","13216","","null","","","null","68","","","","","","","","","","","","","","","",""
"","ISI","","html-keyboard-response","450","852918","0.0-1.0-615.0","0","0","13216","","null","","","null","68","NaN","","","","","","","","","","","","","","",""
"","S2","","html-keyboard-response","451","853175","0.0-1.0-616.0","0","0","13216","","null","","","null","68","","NaN","","","","","","","","","","","","","",""
"","response","","html-keyboard-response","452","853605","0.0-1.0-617.0-0.0","0","0","13216","","424","","","68","68","","","2","68","training","adjacent","FG","6","7","O.jpg","L.jpg","1","1","1","",""
"","feedback","","html-keyboard-response","453","854616","0.0-1.0-618.0-0.0","0","0","13216","","null","","","null","68","","","","","","","","","","","","","","","",""
"","ITI","","html-keyboard-response","454","855623","0.0-1.0-621.0","0","0","13216","","null","","","null","68","","","","","","","","","","","","","","","NaN",""
"","S1","","html-keyboard-response","455","855883","0.0-1.0-623.0","0","0","13216","","null","","","null","69","","","","","","","","","","","","","","","",""
"","ISI","","html-keyboard-response","456","857893","0.0-1.0-624.0","0","0","13216","","null","","","null","69","NaN","","","","","","","","","","","","","","",""
"","S2","","html-keyboard-response","457","858152","0.0-1.0-625.0","0","0","13216","","null","","","null","69","","NaN","","","","","","","","","","","","","",""
"","response","","html-keyboard-response","458","859914","0.0-1.0-626.0-0.0","0","0","13216","","null","","","null","69","","","2","69","training","adjacent","GF","7","6","L.jpg","O.jpg","NaN","0","0","",""
"","too_slow_prompt","","html-keyboard-response","459","860925","0.0-1.0-628.0-0.0","1","0","13216","","null","","","null","","","","","","","","","","","","","","","","",""
"","time_out","","html-keyboard-response","460","862933","0.0-1.0-629.0-0.0","0","0","13216","","null","","","null","69","","","","","","","","","","","","","","","",""
"","ITI","","html-keyboard-response","461","863942","0.0-1.0-630.0","0","0","13216","","null","","","null","69","","","","","","","","","","","","","","","NaN",""
"","S1","","html-keyboard-response","462","864199","0.0-1.0-632.0","0","0","13216","","null","","","null","70","","","","","","","","","","","","","","","",""
"","ISI","","html-keyboard-response","463","866206","0.0-1.0-633.0","0","0","13216","","422","","","68","70","d","","","","","","","","","","","","","","",""
"","S2","","html-keyboard-response","464","866463","0.0-1.0-634.0","0","0","13216","","null","","","null","70","","NaN","","","","","","","","","","","","","",""
"","response","","html-keyboard-response","465","866584","0.0-1.0-635.0-0.0","0","0","13216","","117","","","75","70","","","2","70","training","adjacent","FE","6","5","O.jpg","Q.jpg","0","0","1","",""
"","feedback","","html-keyboard-response","466","867592","0.0-1.0-636.0-0.0","0","0","13216","","null","","","null","70","","","","","","","","","","","","","","","",""
"","ITI","","html-keyboard-response","467","868599","0.0-1.0-639.0","0","0","13216","","null","","","null","70","","","","","","","","","","","","","","","NaN",""
"","S1","","html-keyboard-response","468","868857","0.0-1.0-641.0","0","0","13216","","null","","","null","71","","","","","","","","","","","","","","","",""
"","ISI","","html-keyboard-response","469","870863","0.0-1.0-642.0","0","0","13216","","null","","","null","71","NaN","","","","","","","","","","","","","","",""
"","S2","","html-keyboard-response","470","871122","0.0-1.0-643.0","0","0","13216","","null","","","null","71","","NaN","","","","","","","","","","","","","",""
"","response","","html-keyboard-response","471","871416","0.0-1.0-644.0-0.0","0","0","13216","","290","","","68","71","","","2","71","training","adjacent","EF","5","6","Q.jpg","O.jpg","1","1","1","",""
"","feedback","","html-keyboard-response","472","872423","0.0-1.0-645.0-0.0","0","0","13216","","null","","","null","71","","","","","","","","","","","","","","","",""
"","ITI","","html-keyboard-response","473","873429","0.0-1.0-648.0","0","0","13216","","null","","","null","71","","","","","","","","","","","","","","","NaN",""
"","S1","","html-keyboard-response","474","873685","0.0-1.0-650.0","0","0","13216","","null","","","null","72","","","","","","","","","","","","","","","",""
"","ISI","","html-keyboard-response","475","875694","0.0-1.0-651.0","0","0","13216","","null","","","null","72","NaN","","","","","","","","","","","","","","",""
"","S2","","html-keyboard-response","476","875957","0.0-1.0-652.0","0","0","13216","","null","","","null","72","","NaN","","","","","","","","","","","","","",""
"","response","","html-keyboard-response","477","876197","0.0-1.0-653.0-0.0","0","0","13216","","233","","","68","72","","","2","72","training","adjacent","BC","2","3","M.jpg","R.jpg","1","1","1","",""
"","feedback","","html-keyboard-response","478","877209","0.0-1.0-654.0-0.0","0","0","13216","","null","","","null","72","","","","","","","","","","","","","","","",""
"","ITI","","html-keyboard-response","479","878217","0.0-1.0-657.0","0","0","13216","","null","","","null","72","","","","","","","","","","","","","","","NaN",""
"","S1","","html-keyboard-response","480","878476","0.0-1.0-659.0","0","0","13216","","null","","","null","73","","","","","","","","","","","","","","","",""
"","ISI","","html-keyboard-response","481","880483","0.0-1.0-660.0","0","0","13216","","null","","","null","73","NaN","","","","","","","","","","","","","","",""
"","S2","","html-keyboard-response","482","880740","0.0-1.0-661.0","0","0","13216","","null","","","null","73","","NaN","","","","","","","","","","","","","",""
"","response","","html-keyboard-response","483","881030","0.0-1.0-662.0-0.0","0","0","13216","","284","","","68","73","","","2","73","training","adjacent","CD","3","4","R.jpg","P.jpg","1","1","1","",""
"","feedback","","html-keyboard-response","484","882040","0.0-1.0-663.0-0.0","0","0","13216","","null","","","null","73","","","","","","","","","","","","","","","",""
"","ITI","","html-keyboard-response","485","883047","0.0-1.0-666.0","0","0","13216","","null","","","null","73","","","","","","","","","","","","","","","NaN",""
"","S1","","html-keyboard-response","486","883310","0.0-1.0-668.0","0","0","13216","","null","","","null","74","","","","","","","","","","","","","","","",""
"","ISI","","html-keyboard-response","487","885316","0.0-1.0-669.0","0","0","13216","","null","","","null","74","NaN","","","","","","","","","","","","","","",""
"","S2","","html-keyboard-response","488","885576","0.0-1.0-670.0","0","0","13216","","null","","","null","74","","NaN","","","","","","","","","","","","","",""
"","response","","html-keyboard-response","489","885894","0.0-1.0-671.0-0.0","0","0","13216","","310","","","75","74","","","2","74","training","adjacent","FE","6","5","O.jpg","Q.jpg","0","0","1","",""
"","feedback","","html-keyboard-response","490","886905","0.0-1.0-672.0-0.0","0","0","13216","","null","","","null","74","","","","","","","","","","","","","","","",""
"","ITI","","html-keyboard-response","491","887913","0.0-1.0-675.0","0","0","13216","","null","","","null","74","","","","","","","","","","","","","","","NaN",""
"","S1","","html-keyboard-response","492","888178","0.0-1.0-677.0","0","0","13216","","null","","","null","75","","","","","","","","","","","","","","","",""
"","ISI","","html-keyboard-response","493","890184","0.0-1.0-678.0","0","0","13216","","null","","","null","75","NaN","","","","","","","","","","","","","","",""
"","S2","","html-keyboard-response","494","890445","0.0-1.0-679.0","0","0","13216","","null","","","null","75","","NaN","","","","","","","","","","","","","",""
"","response","","html-keyboard-response","495","891029","0.0-1.0-680.0-0.0","0","0","13216","","576","","","68","75","","","2","75","training","adjacent","CB","3","2","R.jpg","M.jpg","1","0","0","",""
"","feedback","","html-keyboard-response","496","892038","0.0-1.0-681.0-0.0","0","0","13216","","null","","","null","75","","","","","","","","","","","","","","","",""
"","time_out","","html-keyboard-response","497","894045","0.0-1.0-683.0-0.0","0","0","13216","","null","","","null","75","","","","","","","","","","","","","","","",""
"","ITI","","html-keyboard-response","498","895062","0.0-1.0-684.0","0","0","13216","","null","","","null","75","","","","","","","","","","","","","","","NaN",""
"","S1","","html-keyboard-response","499","895323","0.0-1.0-686.0","0","0","13216","","null","","","null","76","","","","","","","","","","","","","","","",""
"","ISI","","html-keyboard-response","500","897331","0.0-1.0-687.0","0","0","13216","","403","","","75","76","k","","","","","","","","","","","","","","",""
"","S2","","html-keyboard-response","501","897593","0.0-1.0-688.0","0","0","13216","","null","","","null","76","","NaN","","","","","","","","","","","","","",""
"","response","","html-keyboard-response","502","897847","0.0-1.0-689.0-0.0","0","0","13216","","247","","","68","76","","","2","76","training","adjacent","ED","5","4","Q.jpg","P.jpg","1","0","0","",""
"","feedback","","html-keyboard-response","503","898858","0.0-1.0-690.0-0.0","0","0","13216","","null","","","null","76","","","","","","","","","","","","","","","",""
"","time_out","","html-keyboard-response","504","900867","0.0-1.0-692.0-0.0","0","0","13216","","null","","","null","76","","","","","","","","","","","","","","","",""
"","ITI","","html-keyboard-response","505","901875","0.0-1.0-693.0","0","0","13216","","null","","","null","76","","","","","","","","","","","","","","","NaN",""
"","S1","","html-keyboard-response","506","902131","0.0-1.0-695.0","0","0","13216","","null","","","null","77","","","","","","","","","","","","","","","",""
"","ISI","","html-keyboard-response","507","904140","0.0-1.0-696.0","0","0","13216","","null","","","null","77","NaN","","","","","","","","","","","","","","",""
"","S2","","html-keyboard-response","508","904399","0.0-1.0-697.0","0","0","13216","","null","","","null","77","","NaN","","","","","","","","","","","","","",""
"","response","","html-keyboard-response","509","904943","0.0-1.0-698.0-0.0","0","0","13216","","534","","","68","77","","","2","77","training","adjacent","CD","3","4","R.jpg","P.jpg","1","1","1","",""
"","feedback","","html-keyboard-response","510","905984","0.0-1.0-699.0-0.0","0","0","13216","","null","","","null","77","","","","","","","","","","","","","","","",""
"","ITI","","html-keyboard-response","511","906993","0.0-1.0-702.0","0","0","13216","","null","","","null","77","","","","","","","","","","","","","","","NaN",""
"","S1","","html-keyboard-response","512","907250","0.0-1.0-704.0","0","0","13216","","null","","","null","78","","","","","","","","","","","","","","","",""
"","ISI","","html-keyboard-response","513","909256","0.0-1.0-705.0","0","0","13216","","null","","","null","78","NaN","","","","","","","","","","","","","","",""
"","S2","","html-keyboard-response","514","909512","0.0-1.0-706.0","0","0","13216","","null","","","null","78","","NaN","","","","","","","","","","","","","",""
"","response","","html-keyboard-response","515","910117","0.0-1.0-707.0-0.0","0","0","13216","","598","","","68","78","","","2","78","training","adjacent","DC","4","3","P.jpg","R.jpg","1","0","0","",""
"","feedback","","html-keyboard-response","516","911128","0.0-1.0-708.0-0.0","0","0","13216","","null","","","null","78","","","","","","","","","","","","","","","",""
"","time_out","","html-keyboard-response","517","913133","0.0-1.0-710.0-0.0","0","0","13216","","null","","","null","78","","","","","","","","","","","","","","","",""
"","ITI","","html-keyboard-response","518","914140","0.0-1.0-711.0","0","0","13216","","null","","","null","78","","","","","","","","","","","","","","","NaN",""
"","S1","","html-keyboard-response","519","914395","0.0-1.0-713.0","0","0","13216","","null","","","null","79","","","","","","","","","","","","","","","",""
"","ISI","","html-keyboard-response","520","916400","0.0-1.0-714.0","0","0","13216","","null","","","null","79","NaN","","","","","","","","","","","","","","",""
"","S2","","html-keyboard-response","521","916658","0.0-1.0-715.0","0","0","13216","","null","","","null","79","","NaN","","","","","","","","","","","","","",""
"","response","","html-keyboard-response","522","917264","0.0-1.0-716.0-0.0","0","0","13216","","602","","","75","79","","","2","79","training","adjacent","DC","4","3","P.jpg","R.jpg","0","0","1","",""
"","feedback","","html-keyboard-response","523","918272","0.0-1.0-717.0-0.0","0","0","13216","","null","","","null","79","","","","","","","","","","","","","","","",""
"","ITI","","html-keyboard-response","524","919281","0.0-1.0-720.0","0","0","13216","","null","","","null","79","","","","","","","","","","","","","","","NaN",""
"","S1","","html-keyboard-response","525","919540","0.0-1.0-722.0","0","0","13216","","null","","","null","80","","","","","","","","","","","","","","","",""
"","ISI","","html-keyboard-response","526","921547","0.0-1.0-723.0","0","0","13216","","null","","","null","80","NaN","","","","","","","","","","","","","","",""
"","S2","","html-keyboard-response","527","921810","0.0-1.0-724.0","0","0","13216","","null","","","null","80","","NaN","","","","","","","","","","","","","",""
"","response","","html-keyboard-response","528","922281","0.0-1.0-725.0-0.0","0","0","13216","","465","","","68","80","","","2","80","training","adjacent","FG","6","7","O.jpg","L.jpg","1","1","1","",""
"","feedback","","html-keyboard-response","529","923289","0.0-1.0-726.0-0.0","0","0","13216","","null","","","null","80","","","","","","","","","","","","","","","",""
"","ITI","","html-keyboard-response","530","924357","0.0-1.0-729.0","0","0","13216","","null","","","null","80","","","","","","","","","","","","","","","NaN",""
"","S1","","html-keyboard-response","531","924621","0.0-1.0-731.0","0","0","13216","","null","","","null","81","","","","","","","","","","","","","","","",""
"","ISI","","html-keyboard-response","532","926626","0.0-1.0-732.0","0","0","13216","","null","","","null","81","NaN","","","","","","","","","","","","","","",""
"","S2","","html-keyboard-response","533","926883","0.0-1.0-733.0","0","0","13216","","null","","","null","81","","NaN","","","","","","","","","","","","","",""
"","response","","html-keyboard-response","534","927473","0.0-1.0-734.0-0.0","0","0","13216","","584","","","68","81","","","2","81","training","adjacent","EF","5","6","Q.jpg","O.jpg","1","1","1","",""
"","feedback","","html-keyboard-response","535","928480","0.0-1.0-735.0-0.0","0","0","13216","","null","","","null","81","","","","","","","","","","","","","","","",""
"","ITI","","html-keyboard-response","536","929489","0.0-1.0-738.0","0","0","13216","","null","","","null","81","","","","","","","","","","","","","","","NaN",""
"","S1","","html-keyboard-response","537","929752","0.0-1.0-740.0","0","0","13216","","null","","","null","82","","","","","","","","","","","","","","","",""
"","ISI","","html-keyboard-response","538","931759","0.0-1.0-741.0","0","0","13216","","null","","","null","82","NaN","","","","","","","","","","","","","","",""
"","S2","","html-keyboard-response","539","932016","0.0-1.0-742.0","0","0","13216","","null","","","null","82","","NaN","","","","","","","","","","","","","",""
"","response","","html-keyboard-response","540","932980","0.0-1.0-743.0-0.0","0","0","13216","","954","","","68","82","","","2","82","training","adjacent","CB","3","2","R.jpg","M.jpg","1","0","0","",""
"","feedback","","html-keyboard-response","541","933991","0.0-1.0-744.0-0.0","0","0","13216","","null","","","null","82","","","","","","","","","","","","","","","",""
"","time_out","","html-keyboard-response","542","936004","0.0-1.0-746.0-0.0","0","0","13216","","null","","","null","82","","","","","","","","","","","","","","","",""
"","ITI","","html-keyboard-response","543","937012","0.0-1.0-747.0","0","0","13216","","null","","","null","82","","","","","","","","","","","","","","","NaN",""
"","S1","","html-keyboard-response","544","937272","0.0-1.0-749.0","0","0","13216","","null","","","null","83","","","","","","","","","","","","","","","",""
"","ISI","","html-keyboard-response","545","939277","0.0-1.0-750.0","0","0","13216","","null","","","null","83","NaN","","","","","","","","","","","","","","",""
"","S2","","html-keyboard-response","546","939533","0.0-1.0-751.0","0","0","13216","","null","","","null","83","","NaN","","","","","","","","","","","","","",""
"","response","","html-keyboard-response","547","940073","0.0-1.0-752.0-0.0","0","0","13216","","535","","","68","83","","","2","83","training","adjacent","FG","6","7","O.jpg","L.jpg","1","1","1","",""
"","feedback","","html-keyboard-response","548","941082","0.0-1.0-753.0-0.0","0","0","13216","","null","","","null","83","","","","","","","","","","","","","","","",""
"","ITI","","html-keyboard-response","549","942092","0.0-1.0-756.0","0","0","13216","","null","","","null","83","","","","","","","","","","","","","","","NaN",""
"","S1","","html-keyboard-response","550","942349","0.0-1.0-758.0","0","0","13216","","null","","","null","84","","","","","","","","","","","","","","","",""
"","ISI","","html-keyboard-response","551","944356","0.0-1.0-759.0","0","0","13216","","null","","","null","84","NaN","","","","","","","","","","","","","","",""
"","S2","","html-keyboard-response","552","944611","0.0-1.0-760.0","0","0","13216","","null","","","null","84","","NaN","","","","","","","","","","","","","",""
"","response","","html-keyboard-response","553","944929","0.0-1.0-761.0-0.0","0","0","13216","","313","","","68","84","","","2","84","training","adjacent","CB","3","2","R.jpg","M.jpg","1","0","0","",""
"","feedback","","html-keyboard-response","554","945937","0.0-1.0-762.0-0.0","0","0","13216","","null","","","null","84","","","","","","","","","","","","","","","",""
"","time_out","","html-keyboard-response","555","947944","0.0-1.0-764.0-0.0","0","0","13216","","null","","","null","84","","","","","","","","","","","","","","","",""
"","ITI","","html-keyboard-response","556","948954","0.0-1.0-765.0","0","0","13216","","null","","","null","84","","","","","","","","","","","","","","","NaN",""
"","S1","","html-keyboard-response","557","949211","0.0-1.0-767.0","0","0","13216","","null","","","null","85","","","","","","","","","","","","","","","",""
"","ISI","","html-keyboard-response","558","951216","0.0-1.0-768.0","0","0","13216","","null","","","null","85","NaN","","","","","","","","","","","","","","",""
"","S2","","html-keyboard-response","559","951474","0.0-1.0-769.0","0","0","13216","","null","","","null","85","","NaN","","","","","","","","","","","","","",""
"","response","","html-keyboard-response","560","951764","0.0-1.0-770.0-0.0","0","0","13216","","284","","","68","85","","","2","85","training","adjacent","DE","4","5","P.jpg","Q.jpg","1","1","1","",""
"","feedback","","html-keyboard-response","561","952773","0.0-1.0-771.0-0.0","0","0","13216","","null","","","null","85","","","","","","","","","","","","","","","",""
"","ITI","","html-keyboard-response","562","953779","0.0-1.0-774.0","0","0","13216","","null","","","null","85","","","","","","","","","","","","","","","NaN",""
"","S1","","html-keyboard-response","563","954037","0.0-1.0-776.0","0","0","13216","","null","","","null","86","","","","","","","","","","","","","","","",""
"","ISI","","html-keyboard-response","564","956042","0.0-1.0-777.0","0","0","13216","","null","","","null","86","NaN","","","","","","","","","","","","","","",""
"","S2","","html-keyboard-response","565","956299","0.0-1.0-778.0","0","0","13216","","null","","","null","86","","NaN","","","","","","","","","","","","","",""
"","response","","html-keyboard-response","566","956810","0.0-1.0-779.0-0.0","0","0","13216","","504","","","68","86","","","2","86","training","adjacent","AB","1","2","N.jpg","M.jpg","1","1","1","",""
"","feedback","","html-keyboard-response","567","957815","0.0-1.0-780.0-0.0","0","0","13216","","null","","","null","86","","","","","","","","","","","","","","","",""
"","ITI","","html-keyboard-response","568","958822","0.0-1.0-783.0","0","0","13216","","null","","","null","86","","","","","","","","","","","","","","","NaN",""
"","S1","","html-keyboard-response","569","959077","0.0-1.0-785.0","0","0","13216","","null","","","null","87","","","","","","","","","","","","","","","",""
"","ISI","","html-keyboard-response","570","961082","0.0-1.0-786.0","0","0","13216","","null","","","null","87","NaN","","","","","","","","","","","","","","",""
"","S2","","html-keyboard-response","571","961339","0.0-1.0-787.0","0","0","13216","","null","","","null","87","","NaN","","","","","","","","","","","","","",""
"","response","","html-keyboard-response","572","961619","0.0-1.0-788.0-0.0","0","0","13216","","273","","","75","87","","","2","87","training","adjacent","BC","2","3","M.jpg","R.jpg","0","1","0","",""
"","feedback","","html-keyboard-response","573","962626","0.0-1.0-789.0-0.0","0","0","13216","","null","","","null","87","","","","","","","","","","","","","","","",""
"","time_out","","html-keyboard-response","574","964631","0.0-1.0-791.0-0.0","0","0","13216","","null","","","null","87","","","","","","","","","","","","","","","",""
"","ITI","","html-keyboard-response","575","965637","0.0-1.0-792.0","0","0","13216","","null","","","null","87","","","","","","","","","","","","","","","NaN",""
"","S1","","html-keyboard-response","576","965893","0.0-1.0-794.0","0","0","13216","","null","","","null","88","","","","","","","","","","","","","","","",""
"","ISI","","html-keyboard-response","577","967903","0.0-1.0-795.0","0","0","13216","","null","","","null","88","NaN","","","","","","","","","","","","","","",""
"","S2","","html-keyboard-response","578","968163","0.0-1.0-796.0","0","0","13216","","null","","","null","88","","NaN","","","","","","","","","","","","","",""
"","response","","html-keyboard-response","579","969206","0.0-1.0-797.0-0.0","0","0","13216","","1035","","","75","88","","","2","88","training","adjacent","EF","5","6","Q.jpg","O.jpg","0","1","0","",""
