"success","ttype","start_time","trial_type","trial_index","time_elapsed","internal_node_id","warning","missed_checkup","PID","view_history","rt","responses","repeat_instructions","key_press","index","keypress_isi","keypress_S2","block","trial_num","phase","group_type","pair_type","S1_stim","S2_stim","S1_img","S2_img","S1_chosen","S1_higher","accuracy","keypress_iti","total_bonus_tally"
"true","full_screen","d04062023hr1816","fullscreen","0","13162","0.0-0.0","0","0","65777","","","","","","","","","","","","","","","","","","","","","",""
"","instructions","","instructions","1","52306","0.0-1.0-0.0-0.0","0","0","65777","[{""page_index"":0,""viewing_time"":5547},{""page_index"":1,""viewing_time"":23339},{""page_index"":2,""viewing_time"":8574},{""page_index"":3,""viewing_time"":1683}]","39143","","","","","","","","","","","","","","","","","","","",""
"","comprehension_check","","survey-multi-choice","2","70967","0.0-1.0-0.0-1.0","0","0","65777","","18658","{""Q0"":""True"",""Q1"":""K"",""Q2"":""Only when the screen 'MAKE A CHOICE' is shown"",""Q3"":""Green mark"",""Q4"":""either D or K""}","1","","","","","","","","","","","","","","","","","",""
"","missed_instruction_checkup","","html-keyboard-response","3","73105","0.0-1.0-0.0-2.0-0.0","0","1","65777","","2135","","","32","","","","","","","","","","","","","","","","",""
"","instructions","","instructions","4","109357","0.0-1.0-0.1-0.1","0","0","65777","[{""page_index"":0,""viewing_time"":10688},{""page_index"":1,""viewing_time"":24310},{""page_index"":2,""viewing_time"":578},{""page_index"":3,""viewing_time"":674}]","36250","","","","","","","","","","","","","","","","","","","",""
"","comprehension_check","","survey-multi-choice","5","120805","0.0-1.0-0.1-1.1","0","0","65777","","11445","{""Q0"":""True"",""Q1"":""K"",""Q2"":""Once the second image appears and while the screen 'MAKE A CHOICE' is shown"",""Q3"":""Green mark"",""Q4"":""either D or K""}","0","","","","","","","","","","","","","","","","","",""
"","start_exp","","html-keyboard-response","6","121961","0.0-1.0-1.0","0","0","65777","","1155","","","32","","","","","","","","","","","","","","","","",""
"","S1","","html-keyboard-response","7","122114","0.0-1.0-2.0","0","0","65777","","null","","","null","0","","","","","","","","","","","","","","","",""
"","ISI","","html-keyboard-response","8","124116","0.0-1.0-3.0","0","0","65777","","null","","","null","0","NaN","","","","","","","","","","","","","","",""
"","S2","","html-keyboard-response","9","124268","0.0-1.0-4.0","0","0","65777","","null","","","null","0","","NaN","","","","","","","","","","","","","",""
"","response","","html-keyboard-response","10","125088","0.0-1.0-5.0-0.0","0","0","65777","","819","","","75","0","","","1","0","training","adjacent","CB","3","2","Q.jpg","O.jpg","1","0","0","",""
"","feedback","","html-keyboard-response","11","126091","0.0-1.0-6.0-0.0","0","0","65777","","null","","","null","0","","","","","","","","","","","","","","","",""
"","time_out","","html-keyboard-response","12","128093","0.0-1.0-8.0-0.0","0","0","65777","","null","","","null","0","","","","","","","","","","","","","","","",""
"","ITI","","html-keyboard-response","13","129095","0.0-1.0-9.0","0","0","65777","","null","","","null","0","","","","","","","","","","","","","","","NaN",""
"","S1","","html-keyboard-response","14","129247","0.0-1.0-11.0","0","0","65777","","null","","","null","1","","","","","","","","","","","","","","","",""
"","ISI","","html-keyboard-response","15","131249","0.0-1.0-12.0","0","0","65777","","null","","","null","1","NaN","","","","","","","","","","","","","","",""
"","S2","","html-keyboard-response","16","131402","0.0-1.0-13.0","0","0","65777","","null","","","null","1","","NaN","","","","","","","","","","","","","",""
"","response","","html-keyboard-response","17","131985","0.0-1.0-14.0-0.0","0","0","65777","","582","","","68","1","","","1","1","training","adjacent","ED","5","4","M.jpg","P.jpg","0","0","1","",""
"","feedback","","html-keyboard-response","18","132987","0.0-1.0-15.0-0.0","0","0","65777","","null","","","null","1","","","","","","","","","","","","","","","",""
"","ITI","","html-keyboard-response","19","133989","0.0-1.0-18.0","0","0","65777","","null","","","null","1","","","","","","","","","","","","","","","NaN",""
"","S1","","html-keyboard-response","20","134142","0.0-1.0-20.0","0","0","65777","","null","","","null","2","","","","","","","","","","","","","","","",""
"","ISI","","html-keyboard-response","21","136144","0.0-1.0-21.0","0","0","65777","","null","","","null","2","NaN","","","","","","","","","","","","","","",""
"","S2","","html-keyboard-response","22","136296","0.0-1.0-22.0","0","0","65777","","null","","","null","2","","NaN","","","","","","","","","","","","","",""
"","response","","html-keyboard-response","23","136929","0.0-1.0-23.0-0.0","0","0","65777","","632","","","68","2","","","1","2","training","adjacent","EF","5","6","M.jpg","R.jpg","0","1","0","",""
"","feedback","","html-keyboard-response","24","137931","0.0-1.0-24.0-0.0","0","0","65777","","null","","","null","2","","","","","","","","","","","","","","","",""
"","time_out","","html-keyboard-response","25","139933","0.0-1.0-26.0-0.0","0","0","65777","","null","","","null","2","","","","","","","","","","","","","","","",""
"","ITI","","html-keyboard-response","26","140936","0.0-1.0-27.0","0","0","65777","","null","","","null","2","","","","","","","","","","","","","","","NaN",""
"","S1","","html-keyboard-response","27","141088","0.0-1.0-29.0","0","0","65777","","null","","","null","3","","","","","","","","","","","","","","","",""
"","ISI","","html-keyboard-response","28","143089","0.0-1.0-30.0","0","0","65777","","null","","","null","3","NaN","","","","","","","","","","","","","","",""
"","S2","","html-keyboard-response","29","143242","0.0-1.0-31.0","0","0","65777","","null","","","null","3","","NaN","","","","","","","","","","","","","",""
"","response","","html-keyboard-response","30","143689","0.0-1.0-32.0-0.0","0","0","65777","","446","","","75","3","","","1","3","training","adjacent","DE","4","5","P.jpg","M.jpg","1","1","1","",""
"","feedback","","html-keyboard-response","31","144690","0.0-1.0-33.0-0.0","0","0","65777","","null","","","null","3","","","","","","","","","","","","","","","",""
"","ITI","","html-keyboard-response","32","145692","0.0-1.0-36.0","0","0","65777","","null","","","null","3","","","","","","","","","","","","","","","NaN",""
"","S1","","html-keyboard-response","33","145845","0.0-1.0-38.0","0","0","65777","","null","","","null","4","","","","","","","","","","","","","","","",""
"","ISI","","html-keyboard-response","34","147846","0.0-1.0-39.0","0","0","65777","","null","","","null","4","NaN","","","","","","","","","","","","","","",""
"","S2","","html-keyboard-response","35","147999","0.0-1.0-40.0","0","0","65777","","null","","","null","4","","NaN","","","","","","","","","","","","","",""
"","response","","html-keyboard-response","36","148441","0.0-1.0-41.0-0.0","0","0","65777","","441","","","75","4","","","1","4","training","adjacent","DC","4","3","P.jpg","Q.jpg","1","0","0","",""
"","feedback","","html-keyboard-response","37","149443","0.0-1.0-42.0-0.0","0","0","65777","","null","","","null","4","","","","","","","","","","","","","","","",""
"","time_out","","html-keyboard-response","38","151445","0.0-1.0-44.0-0.0","0","0","65777","","null","","","null","4","","","","","","","","","","","","","","","",""
"","ITI","","html-keyboard-response","39","152446","0.0-1.0-45.0","0","0","65777","","null","","","null","4","","","","","","","","","","","","","","","NaN",""
"","S1","","html-keyboard-response","40","152598","0.0-1.0-47.0","0","0","65777","","null","","","null","5","","","","","","","","","","","","","","","",""
"","ISI","","html-keyboard-response","41","154600","0.0-1.0-48.0","0","0","65777","","null","","","null","5","NaN","","","","","","","","","","","","","","",""
"","S2","","html-keyboard-response","42","154752","0.0-1.0-49.0","0","0","65777","","null","","","null","5","","NaN","","","","","","","","","","","","","",""
"","response","","html-keyboard-response","43","155465","0.0-1.0-50.0-0.0","0","0","65777","","711","","","68","5","","","1","5","training","adjacent","EF","5","6","M.jpg","R.jpg","0","1","0","",""
"","feedback","","html-keyboard-response","44","156467","0.0-1.0-51.0-0.0","0","0","65777","","null","","","null","5","","","","","","","","","","","","","","","",""
"","time_out","","html-keyboard-response","45","158469","0.0-1.0-53.0-0.0","0","0","65777","","null","","","null","5","","","","","","","","","","","","","","","",""
"","ITI","","html-keyboard-response","46","159472","0.0-1.0-54.0","0","0","65777","","null","","","null","5","","","","","","","","","","","","","","","NaN",""
"","S1","","html-keyboard-response","47","159624","0.0-1.0-56.0","0","0","65777","","null","","","null","6","","","","","","","","","","","","","","","",""
"","ISI","","html-keyboard-response","48","161625","0.0-1.0-57.0","0","0","65777","","null","","","null","6","NaN","","","","","","","","","","","","","","",""
"","S2","","html-keyboard-response","49","161778","0.0-1.0-58.0","0","0","65777","","null","","","null","6","","NaN","","","","","","","","","","","","","",""
"","response","","html-keyboard-response","50","162313","0.0-1.0-59.0-0.0","0","0","65777","","534","","","75","6","","","1","6","training","adjacent","DC","4","3","P.jpg","Q.jpg","1","0","0","",""
"","feedback","","html-keyboard-response","51","163315","0.0-1.0-60.0-0.0","0","0","65777","","null","","","null","6","","","","","","","","","","","","","","","",""
"","time_out","","html-keyboard-response","52","165316","0.0-1.0-62.0-0.0","0","0","65777","","null","","","null","6","","","","","","","","","","","","","","","",""
"","ITI","","html-keyboard-response","53","166318","0.0-1.0-63.0","0","0","65777","","null","","","null","6","","","","","","","","","","","","","","","NaN",""
"","S1","","html-keyboard-response","54","166472","0.0-1.0-65.0","0","0","65777","","null","","","null","7","","","","","","","","","","","","","","","",""
"","ISI","","html-keyboard-response","55","168474","0.0-1.0-66.0","0","0","65777","","null","","","null","7","NaN","","","","","","","","","","","","","","",""
"","S2","","html-keyboard-response","56","168627","0.0-1.0-67.0","0","0","65777","","null","","","null","7","","NaN","","","","","","","","","","","","","",""
"","response","","html-keyboard-response","57","169105","0.0-1.0-68.0-0.0","0","0","65777","","477","","","75","7","","","1","7","training","adjacent","ED","5","4","M.jpg","P.jpg","1","0","0","",""
"","feedback","","html-keyboard-response","58","170107","0.0-1.0-69.0-0.0","0","0","65777","","null","","","null","7","","","","","","","","","","","","","","","",""
"","time_out","","html-keyboard-response","59","172109","0.0-1.0-71.0-0.0","0","0","65777","","null","","","null","7","","","","","","","","","","","","","","","",""
"","ITI","","html-keyboard-response","60","173111","0.0-1.0-72.0","0","0","65777","","null","","","null","7","","","","","","","","","","","","","","","NaN",""
"","S1","","html-keyboard-response","61","173263","0.0-1.0-74.0","0","0","65777","","null","","","null","8","","","","","","","","","","","","","","","",""
"","ISI","","html-keyboard-response","62","175265","0.0-1.0-75.0","0","0","65777","","null","","","null","8","NaN","","","","","","","","","","","","","","",""
"","S2","","html-keyboard-response","63","175417","0.0-1.0-76.0","0","0","65777","","null","","","null","8","","NaN","","","","","","","","","","","","","",""
"","response","","html-keyboard-response","64","176281","0.0-1.0-77.0-0.0","0","0","65777","","863","","","68","8","","","1","8","training","adjacent","BC","2","3","O.jpg","Q.jpg","0","1","0","",""
"","feedback","","html-keyboard-response","65","177284","0.0-1.0-78.0-0.0","0","0","65777","","null","","","null","8","","","","","","","","","","","","","","","",""
"","time_out","","html-keyboard-response","66","179287","0.0-1.0-80.0-0.0","0","0","65777","","null","","","null","8","","","","","","","","","","","","","","","",""
"","ITI","","html-keyboard-response","67","180288","0.0-1.0-81.0","0","0","65777","","null","","","null","8","","","","","","","","","","","","","","","NaN",""
"","S1","","html-keyboard-response","68","180440","0.0-1.0-83.0","0","0","65777","","null","","","null","9","","","","","","","","","","","","","","","",""
"","ISI","","html-keyboard-response","69","182442","0.0-1.0-84.0","0","0","65777","","null","","","null","9","NaN","","","","","","","","","","","","","","",""
"","S2","","html-keyboard-response","70","182595","0.0-1.0-85.0","0","0","65777","","null","","","null","9","","NaN","","","","","","","","","","","","","",""
"","response","","html-keyboard-response","71","183257","0.0-1.0-86.0-0.0","0","0","65777","","661","","","68","9","","","1","9","training","adjacent","CB","3","2","Q.jpg","O.jpg","0","0","1","",""
"","feedback","","html-keyboard-response","72","184259","0.0-1.0-87.0-0.0","0","0","65777","","null","","","null","9","","","","","","","","","","","","","","","",""
"","ITI","","html-keyboard-response","73","185260","0.0-1.0-90.0","0","0","65777","","null","","","null","9","","","","","","","","","","","","","","","NaN",""
"","S1","","html-keyboard-response","74","185413","0.0-1.0-92.0","0","0","65777","","null","","","null","10","","","","","","","","","","","","","","","",""
"","ISI","","html-keyboard-response","75","187416","0.0-1.0-93.0","0","0","65777","","null","","","null","10","NaN","","","","","","","","","","","","","","",""
"","S2","","html-keyboard-response","76","187569","0.0-1.0-94.0","0","0","65777","","null","","","null","10","","NaN","","","","","","","","","","","","","",""
"","response","","html-keyboard-response","77","188536","0.0-1.0-95.0-0.0","0","0","65777","","966","","","75","10","","","1","10","training","adjacent","AB","1","2","N.jpg","O.jpg","1","1","1","",""
"","feedback","","html-keyboard-response","78","189538","0.0-1.0-96.0-0.0","0","0","65777","","null","","","null","10","","","","","","","","","","","","","","","",""
"","ITI","","html-keyboard-response","79","190541","0.0-1.0-99.0","0","0","65777","","null","","","null","10","","","","","","","","","","","","","","","NaN",""
"","S1","","html-keyboard-response","80","190693","0.0-1.0-101.0","0","0","65777","","null","","","null","11","","","","","","","","","","","","","","","",""
"","ISI","","html-keyboard-response","81","192694","0.0-1.0-102.0","0","0","65777","","null","","","null","11","NaN","","","","","","","","","","","","","","",""
"","S2","","html-keyboard-response","82","192846","0.0-1.0-103.0","0","0","65777","","null","","","null","11","","NaN","","","","","","","","","","","","","",""
"","response","","html-keyboard-response","83","193648","0.0-1.0-104.0-0.0","0","0","65777","","801","","","68","11","","","1","11","training","adjacent","CD","3","4","Q.jpg","P.jpg","0","1","0","",""
"","feedback","","html-keyboard-response","84","194650","0.0-1.0-105.0-0.0","0","0","65777","","null","","","null","11","","","","","","","","","","","","","","","",""
"","time_out","","html-keyboard-response","85","196652","0.0-1.0-107.0-0.0","0","0","65777","","null","","","null","11","","","","","","","","","","","","","","","",""
"","ITI","","html-keyboard-response","86","197654","0.0-1.0-108.0","0","0","65777","","null","","","null","11","","","","","","","","","","","","","","","NaN",""
"","S1","","html-keyboard-response","87","197806","0.0-1.0-110.0","0","0","65777","","null","","","null","12","","","","","","","","","","","","","","","",""
"","ISI","","html-keyboard-response","88","199808","0.0-1.0-111.0","0","0","65777","","null","","","null","12","NaN","","","","","","","","","","","","","","",""
"","S2","","html-keyboard-response","89","199960","0.0-1.0-112.0","0","0","65777","","null","","","null","12","","NaN","","","","","","","","","","","","","",""
"","response","","html-keyboard-response","90","200864","0.0-1.0-113.0-0.0","0","0","65777","","903","","","75","12","","","1","12","training","adjacent","AB","1","2","N.jpg","O.jpg","1","1","1","",""
"","feedback","","html-keyboard-response","91","201866","0.0-1.0-114.0-0.0","0","0","65777","","null","","","null","12","","","","","","","","","","","","","","","",""
"","ITI","","html-keyboard-response","92","202868","0.0-1.0-117.0","0","0","65777","","null","","","null","12","","","","","","","","","","","","","","","NaN",""
"","S1","","html-keyboard-response","93","203020","0.0-1.0-119.0","0","0","65777","","null","","","null","13","","","","","","","","","","","","","","","",""
"","ISI","","html-keyboard-response","94","205021","0.0-1.0-120.0","0","0","65777","","null","","","null","13","NaN","","","","","","","","","","","","","","",""
"","S2","","html-keyboard-response","95","205173","0.0-1.0-121.0","0","0","65777","","null","","","null","13","","NaN","","","","","","","","","","","","","",""
"","response","","html-keyboard-response","96","205816","0.0-1.0-122.0-0.0","0","0","65777","","642","","","68","13","","","1","13","training","adjacent","CD","3","4","Q.jpg","P.jpg","0","1","0","",""
"","feedback","","html-keyboard-response","97","206818","0.0-1.0-123.0-0.0","0","0","65777","","null","","","null","13","","","","","","","","","","","","","","","",""
"","time_out","","html-keyboard-response","98","208820","0.0-1.0-125.0-0.0","0","0","65777","","null","","","null","13","","","","","","","","","","","","","","","",""
"","ITI","","html-keyboard-response","99","209823","0.0-1.0-126.0","0","0","65777","","null","","","null","13","","","","","","","","","","","","","","","NaN",""
"","S1","","html-keyboard-response","100","209975","0.0-1.0-128.0","0","0","65777","","null","","","null","14","","","","","","","","","","","","","","","",""
"","ISI","","html-keyboard-response","101","211976","0.0-1.0-129.0","0","0","65777","","null","","","null","14","NaN","","","","","","","","","","","","","","",""
"","S2","","html-keyboard-response","102","212128","0.0-1.0-130.0","0","0","65777","","null","","","null","14","","NaN","","","","","","","","","","","","","",""
"","response","","html-keyboard-response","103","212601","0.0-1.0-131.0-0.0","0","0","65777","","471","","","75","14","","","1","14","training","adjacent","FE","6","5","R.jpg","M.jpg","1","0","0","",""
"","feedback","","html-keyboard-response","104","213603","0.0-1.0-132.0-0.0","0","0","65777","","null","","","null","14","","","","","","","","","","","","","","","",""
"","time_out","","html-keyboard-response","105","215606","0.0-1.0-134.0-0.0","0","0","65777","","null","","","null","14","","","","","","","","","","","","","","","",""
"","ITI","","html-keyboard-response","106","216607","0.0-1.0-135.0","0","0","65777","","null","","","null","14","","","","","","","","","","","","","","","NaN",""
"","S1","","html-keyboard-response","107","216759","0.0-1.0-137.0","0","0","65777","","null","","","null","15","","","","","","","","","","","","","","","",""
"","ISI","","html-keyboard-response","108","218761","0.0-1.0-138.0","0","0","65777","","null","","","null","15","NaN","","","","","","","","","","","","","","",""
"","S2","","html-keyboard-response","109","218914","0.0-1.0-139.0","0","0","65777","","null","","","null","15","","NaN","","","","","","","","","","","","","",""
"","response","","html-keyboard-response","110","219664","0.0-1.0-140.0-0.0","0","0","65777","","749","","","75","15","","","1","15","training","adjacent","EF","5","6","M.jpg","R.jpg","1","1","1","",""
"","feedback","","html-keyboard-response","111","220666","0.0-1.0-141.0-0.0","0","0","65777","","null","","","null","15","","","","","","","","","","","","","","","",""
"","ITI","","html-keyboard-response","112","221669","0.0-1.0-144.0","0","0","65777","","null","","","null","15","","","","","","","","","","","","","","","NaN",""
"","S1","","html-keyboard-response","113","221821","0.0-1.0-146.0","0","0","65777","","null","","","null","16","","","","","","","","","","","","","","","",""
"","ISI","","html-keyboard-response","114","223823","0.0-1.0-147.0","0","0","65777","","null","","","null","16","NaN","","","","","","","","","","","","","","",""
"","S2","","html-keyboard-response","115","223975","0.0-1.0-148.0","0","0","65777","","null","","","null","16","","NaN","","","","","","","","","","","","","",""
"","response","","html-keyboard-response","116","224369","0.0-1.0-149.0-0.0","0","0","65777","","392","","","75","16","","","1","16","training","adjacent","BA","2","1","O.jpg","N.jpg","1","0","0","",""
"","feedback","","html-keyboard-response","117","225371","0.0-1.0-150.0-0.0","0","0","65777","","null","","","null","16","","","","","","","","","","","","","","","",""
"","time_out","","html-keyboard-response","118","227373","0.0-1.0-152.0-0.0","0","0","65777","","null","","","null","16","","","","","","","","","","","","","","","",""
"","ITI","","html-keyboard-response","119","228375","0.0-1.0-153.0","0","0","65777","","null","","","null","16","","","","","","","","","","","","","","","NaN",""
"","S1","","html-keyboard-response","120","228527","0.0-1.0-155.0","0","0","65777","","null","","","null","17","","","","","","","","","","","","","","","",""
"","ISI","","html-keyboard-response","121","230530","0.0-1.0-156.0","0","0","65777","","null","","","null","17","NaN","","","","","","","","","","","","","","",""
"","S2","","html-keyboard-response","122","230682","0.0-1.0-157.0","0","0","65777","","null","","","null","17","","NaN","","","","","","","","","","","","","",""
"","response","","html-keyboard-response","123","231640","0.0-1.0-158.0-0.0","0","0","65777","","956","","","68","17","","","1","17","training","adjacent","BC","2","3","O.jpg","Q.jpg","0","1","0","",""
"","feedback","","html-keyboard-response","124","232642","0.0-1.0-159.0-0.0","0","0","65777","","null","","","null","17","","","","","","","","","","","","","","","",""
"","time_out","","html-keyboard-response","125","234644","0.0-1.0-161.0-0.0","0","0","65777","","null","","","null","17","","","","","","","","","","","","","","","",""
"","ITI","","html-keyboard-response","126","235646","0.0-1.0-162.0","0","0","65777","","null","","","null","17","","","","","","","","","","","","","","","NaN",""
"","S1","","html-keyboard-response","127","235798","0.0-1.0-164.0","0","0","65777","","null","","","null","18","","","","","","","","","","","","","","","",""
"","ISI","","html-keyboard-response","128","237800","0.0-1.0-165.0","0","0","65777","","null","","","null","18","NaN","","","","","","","","","","","","","","",""
"","S2","","html-keyboard-response","129","237953","0.0-1.0-166.0","0","0","65777","","null","","","null","18","","NaN","","","","","","","","","","","","","",""
"","response","","html-keyboard-response","130","238416","0.0-1.0-167.0-0.0","0","0","65777","","463","","","75","18","","","1","18","training","adjacent","CB","3","2","Q.jpg","O.jpg","1","0","0","",""
"","feedback","","html-keyboard-response","131","239419","0.0-1.0-168.0-0.0","0","0","65777","","null","","","null","18","","","","","","","","","","","","","","","",""
"","time_out","","html-keyboard-response","132","241421","0.0-1.0-170.0-0.0","0","0","65777","","null","","","null","18","","","","","","","","","","","","","","","",""
"","ITI","","html-keyboard-response","133","242422","0.0-1.0-171.0","0","0","65777","","null","","","null","18","","","","","","","","","","","","","","","NaN",""
"","S1","","html-keyboard-response","134","242574","0.0-1.0-173.0","0","0","65777","","null","","","null","19","","","","","","","","","","","","","","","",""
"","ISI","","html-keyboard-response","135","244576","0.0-1.0-174.0","0","0","65777","","null","","","null","19","NaN","","","","","","","","","","","","","","",""
"","S2","","html-keyboard-response","136","244728","0.0-1.0-175.0","0","0","65777","","null","","","null","19","","NaN","","","","","","","","","","","","","",""
"","response","","html-keyboard-response","137","245649","0.0-1.0-176.0-0.0","0","0","65777","","919","","","75","19","","","1","19","training","adjacent","FG","6","7","R.jpg","L.jpg","1","1","1","",""
"","feedback","","html-keyboard-response","138","246651","0.0-1.0-177.0-0.0","0","0","65777","","null","","","null","19","","","","","","","","","","","","","","","",""
"","ITI","","html-keyboard-response","139","247653","0.0-1.0-180.0","0","0","65777","","null","","","null","19","","","","","","","","","","","","","","","NaN",""
"","S1","","html-keyboard-response","140","247805","0.0-1.0-182.0","0","0","65777","","null","","","null","20","","","","","","","","","","","","","","","",""
"","ISI","","html-keyboard-response","141","249807","0.0-1.0-183.0","0","0","65777","","null","","","null","20","NaN","","","","","","","","","","","","","","",""
"","S2","","html-keyboard-response","142","249959","0.0-1.0-184.0","0","0","65777","","null","","","null","20","","NaN","","","","","","","","","","","","","",""
"","response","","html-keyboard-response","143","250784","0.0-1.0-185.0-0.0","0","0","65777","","823","","","68","20","","","1","20","training","adjacent","DE","4","5","P.jpg","M.jpg","0","1","0","",""
"","feedback","","html-keyboard-response","144","251786","0.0-1.0-186.0-0.0","0","0","65777","","null","","","null","20","","","","","","","","","","","","","","","",""
"","time_out","","html-keyboard-response","145","253789","0.0-1.0-188.0-0.0","0","0","65777","","null","","","null","20","","","","","","","","","","","","","","","",""
"","ITI","","html-keyboard-response","146","254791","0.0-1.0-189.0","0","0","65777","","null","","","null","20","","","","","","","","","","","","","","","NaN",""
"","S1","","html-keyboard-response","147","254944","0.0-1.0-191.0","0","0","65777","","null","","","null","21","","","","","","","","","","","","","","","",""
"","ISI","","html-keyboard-response","148","256946","0.0-1.0-192.0","0","0","65777","","null","","","null","21","NaN","","","","","","","","","","","","","","",""
"","S2","","html-keyboard-response","149","257098","0.0-1.0-193.0","0","0","65777","","null","","","null","21","","NaN","","","","","","","","","","","","","",""
"","response","","html-keyboard-response","150","257833","0.0-1.0-194.0-0.0","0","0","65777","","733","","","75","21","","","1","21","training","adjacent","BA","2","1","O.jpg","N.jpg","1","0","0","",""
"","feedback","","html-keyboard-response","151","258835","0.0-1.0-195.0-0.0","0","0","65777","","null","","","null","21","","","","","","","","","","","","","","","",""
"","time_out","","html-keyboard-response","152","260837","0.0-1.0-197.0-0.0","0","0","65777","","null","","","null","21","","","","","","","","","","","","","","","",""
"","ITI","","html-keyboard-response","153","261839","0.0-1.0-198.0","0","0","65777","","null","","","null","21","","","","","","","","","","","","","","","NaN",""
"","S1","","html-keyboard-response","154","261990","0.0-1.0-200.0","0","0","65777","","null","","","null","22","","","","","","","","","","","","","","","",""
"","ISI","","html-keyboard-response","155","263992","0.0-1.0-201.0","0","0","65777","","null","","","null","22","NaN","","","","","","","","","","","","","","",""
"","S2","","html-keyboard-response","156","264144","0.0-1.0-202.0","0","0","65777","","null","","","null","22","","NaN","","","","","","","","","","","","","",""
"","response","","html-keyboard-response","157","265177","0.0-1.0-203.0-0.0","0","0","65777","","1032","","","68","22","","","1","22","training","adjacent","FE","6","5","R.jpg","M.jpg","0","0","1","",""
"","feedback","","html-keyboard-response","158","266179","0.0-1.0-204.0-0.0","0","0","65777","","null","","","null","22","","","","","","","","","","","","","","","",""
"","ITI","","html-keyboard-response","159","267182","0.0-1.0-207.0","0","0","65777","","null","","","null","22","","","","","","","","","","","","","","","NaN",""
"","S1","","html-keyboard-response","160","267335","0.0-1.0-209.0","0","0","65777","","null","","","null","23","","","","","","","","","","","","","","","",""
"","ISI","","html-keyboard-response","161","269336","0.0-1.0-210.0","0","0","65777","","null","","","null","23","NaN","","","","","","","","","","","","","","",""
"","S2","","html-keyboard-response","162","269488","0.0-1.0-211.0","0","0","65777","","null","","","null","23","","NaN","","","","","","","","","","","","","",""
"","response","","html-keyboard-response","163","270457","0.0-1.0-212.0-0.0","0","0","65777","","967","","","68","23","","","1","23","training","adjacent","FG","6","7","R.jpg","L.jpg","0","1","0","",""
"","feedback","","html-keyboard-response","164","271459","0.0-1.0-213.0-0.0","0","0","65777","","null","","","null","23","","","","","","","","","","","","","","","",""
"","time_out","","html-keyboard-response","165","273461","0.0-1.0-215.0-0.0","0","0","65777","","null","","","null","23","","","","","","","","","","","","","","","",""
"","ITI","","html-keyboard-response","166","274463","0.0-1.0-216.0","0","0","65777","","null","","","null","23","","","","","","","","","","","","","","","NaN",""
"","S1","","html-keyboard-response","167","274615","0.0-1.0-218.0","0","0","65777","","null","","","null","24","","","","","","","","","","","","","","","",""
"","ISI","","html-keyboard-response","168","276618","0.0-1.0-219.0","0","0","65777","","null","","","null","24","NaN","","","","","","","","","","","","","","",""
"","S2","","html-keyboard-response","169","276770","0.0-1.0-220.0","0","0","65777","","null","","","null","24","","NaN","","","","","","","","","","","","","",""
"","response","","html-keyboard-response","170","278297","0.0-1.0-221.0-0.0","0","0","65777","","1526","","","68","24","","","1","24","training","adjacent","BC","2","3","O.jpg","Q.jpg","0","1","0","",""
"","feedback","","html-keyboard-response","171","279299","0.0-1.0-222.0-0.0","0","0","65777","","null","","","null","24","","","","","","","","","","","","","","","",""
"","time_out","","html-keyboard-response","172","281302","0.0-1.0-224.0-0.0","0","0","65777","","null","","","null","24","","","","","","","","","","","","","","","",""
"","ITI","","html-keyboard-response","173","282304","0.0-1.0-225.0","0","0","65777","","null","","","null","24","","","","","","","","","","","","","","","NaN",""
"","S1","","html-keyboard-response","174","282457","0.0-1.0-227.0","0","0","65777","","null","","","null","25","","","","","","","","","","","","","","","",""
"","ISI","","html-keyboard-response","175","284459","0.0-1.0-228.0","0","0","65777","","null","","","null","25","NaN","","","","","","","","","","","","","","",""
"","S2","","html-keyboard-response","176","284611","0.0-1.0-229.0","0","0","65777","","null","","","null","25","","NaN","","","","","","","","","","","","","",""
"","response","","html-keyboard-response","177","285905","0.0-1.0-230.0-0.0","0","0","65777","","1293","","","75","25","","","1","25","training","adjacent","BC","2","3","O.jpg","Q.jpg","1","1","1","",""
"","feedback","","html-keyboard-response","178","286907","0.0-1.0-231.0-0.0","0","0","65777","","null","","","null","25","","","","","","","","","","","","","","","",""
"","ITI","","html-keyboard-response","179","287909","0.0-1.0-234.0","0","0","65777","","null","","","null","25","","","","","","","","","","","","","","","NaN",""
"","S1","","html-keyboard-response","180","288060","0.0-1.0-236.0","0","0","65777","","null","","","null","26","","","","","","","","","","","","","","","",""
"","ISI","","html-keyboard-response","181","290063","0.0-1.0-237.0","0","0","65777","","null","","","null","26","NaN","","","","","","","","","","","","","","",""
"","S2","","html-keyboard-response","182","290215","0.0-1.0-238.0","0","0","65777","","null","","","null","26","","NaN","","","","","","","","","","","","","",""
"","response","","html-keyboard-response","183","291128","0.0-1.0-239.0-0.0","0","0","65777","","912","","","68","26","","","1","26","training","adjacent","DE","4","5","P.jpg","M.jpg","0","1","0","",""
"","feedback","","html-keyboard-response","184","292131","0.0-1.0-240.0-0.0","0","0","65777","","null","","","null","26","","","","","","","","","","","","","","","",""
"","time_out","","html-keyboard-response","185","294133","0.0-1.0-242.0-0.0","0","0","65777","","null","","","null","26","","","","","","","","","","","","","","","",""
"","ITI","","html-keyboard-response","186","295135","0.0-1.0-243.0","0","0","65777","","null","","","null","26","","","","","","","","","","","","","","","NaN",""
"","S1","","html-keyboard-response","187","295287","0.0-1.0-245.0","0","0","65777","","null","","","null","27","","","","","","","","","","","","","","","",""
"","ISI","","html-keyboard-response","188","297290","0.0-1.0-246.0","0","0","65777","","null","","","null","27","NaN","","","","","","","","","","","","","","",""
"","S2","","html-keyboard-response","189","297442","0.0-1.0-247.0","0","0","65777","","null","","","null","27","","NaN","","","","","","","","","","","","","",""
"","response","","html-keyboard-response","190","298129","0.0-1.0-248.0-0.0","0","0","65777","","685","","","68","27","","","1","27","training","adjacent","FE","6","5","R.jpg","M.jpg","0","0","1","",""
"","feedback","","html-keyboard-response","191","299131","0.0-1.0-249.0-0.0","0","0","65777","","null","","","null","27","","","","","","","","","","","","","","","",""
"","ITI","","html-keyboard-response","192","300133","0.0-1.0-252.0","0","0","65777","","null","","","null","27","","","","","","","","","","","","","","","NaN",""
"","S1","","html-keyboard-response","193","300285","0.0-1.0-254.0","0","0","65777","","null","","","null","28","","","","","","","","","","","","","","","",""
"","ISI","","html-keyboard-response","194","302287","0.0-1.0-255.0","0","0","65777","","null","","","null","28","NaN","","","","","","","","","","","","","","",""
"","S2","","html-keyboard-response","195","302440","0.0-1.0-256.0","0","0","65777","","null","","","null","28","","NaN","","","","","","","","","","","","","",""
"","response","","html-keyboard-response","196","303144","0.0-1.0-257.0-0.0","0","0","65777","","703","","","68","28","","","1","28","training","adjacent","CB","3","2","Q.jpg","O.jpg","0","0","1","",""
"","feedback","","html-keyboard-response","197","304146","0.0-1.0-258.0-0.0","0","0","65777","","null","","","null","28","","","","","","","","","","","","","","","",""
"","ITI","","html-keyboard-response","198","305147","0.0-1.0-261.0","0","0","65777","","null","","","null","28","","","","","","","","","","","","","","","NaN",""
"","S1","","html-keyboard-response","199","305299","0.0-1.0-263.0","0","0","65777","","null","","","null","29","","","","","","","","","","","","","","","",""
"","ISI","","html-keyboard-response","200","307302","0.0-1.0-264.0","0","0","65777","","null","","","null","29","NaN","","","","","","","","","","","","","","",""
"","S2","","html-keyboard-response","201","307455","0.0-1.0-265.0","0","0","65777","","null","","","null","29","","NaN","","","","","","","","","","","","","",""
"","response","","html-keyboard-response","202","307968","0.0-1.0-266.0-0.0","0","0","65777","","512","","","75","29","","","1","29","training","adjacent","AB","1","2","N.jpg","O.jpg","1","1","1","",""
"","feedback","","html-keyboard-response","203","308970","0.0-1.0-267.0-0.0","0","0","65777","","null","","","null","29","","","","","","","","","","","","","","","",""
"","ITI","","html-keyboard-response","204","309972","0.0-1.0-270.0","0","0","65777","","null","","","null","29","","","","","","","","","","","","","","","NaN",""
"","S1","","html-keyboard-response","205","310125","0.0-1.0-272.0","0","0","65777","","null","","","null","30","","","","","","","","","","","","","","","",""
"","ISI","","html-keyboard-response","206","312127","0.0-1.0-273.0","0","0","65777","","null","","","null","30","NaN","","","","","","","","","","","","","","",""
"","S2","","html-keyboard-response","207","312279","0.0-1.0-274.0","0","0","65777","","null","","","null","30","","NaN","","","","","","","","","","","","","",""
"","response","","html-keyboard-response","208","313001","0.0-1.0-275.0-0.0","0","0","65777","","721","","","75","30","","","1","30","training","adjacent","DC","4","3","P.jpg","Q.jpg","1","0","0","",""
"","feedback","","html-keyboard-response","209","314004","0.0-1.0-276.0-0.0","0","0","65777","","null","","","null","30","","","","","","","","","","","","","","","",""
"","time_out","","html-keyboard-response","210","316007","0.0-1.0-278.0-0.0","0","0","65777","","null","","","null","30","","","","","","","","","","","","","","","",""
"","ITI","","html-keyboard-response","211","317009","0.0-1.0-279.0","0","0","65777","","null","","","null","30","","","","","","","","","","","","","","","NaN",""
"","S1","","html-keyboard-response","212","317161","0.0-1.0-281.0","0","0","65777","","null","","","null","31","","","","","","","","","","","","","","","",""
"","ISI","","html-keyboard-response","213","319162","0.0-1.0-282.0","0","0","65777","","null","","","null","31","NaN","","","","","","","","","","","","","","",""
"","S2","","html-keyboard-response","214","319315","0.0-1.0-283.0","0","0","65777","","null","","","null","31","","NaN","","","","","","","","","","","","","",""
"","response","","html-keyboard-response","215","319928","0.0-1.0-284.0-0.0","0","0","65777","","612","","","68","31","","","1","31","training","adjacent","CD","3","4","Q.jpg","P.jpg","0","1","0","",""
"","feedback","","html-keyboard-response","216","320931","0.0-1.0-285.0-0.0","0","0","65777","","null","","","null","31","","","","","","","","","","","","","","","",""
"","time_out","","html-keyboard-response","217","322933","0.0-1.0-287.0-0.0","0","0","65777","","null","","","null","31","","","","","","","","","","","","","","","",""
"","ITI","","html-keyboard-response","218","323935","0.0-1.0-288.0","0","0","65777","","null","","","null","31","","","","","","","","","","","","","","","NaN",""
"","S1","","html-keyboard-response","219","324087","0.0-1.0-290.0","0","0","65777","","null","","","null","32","","","","","","","","","","","","","","","",""
"","ISI","","html-keyboard-response","220","326089","0.0-1.0-291.0","0","0","65777","","null","","","null","32","NaN","","","","","","","","","","","","","","",""
"","S2","","html-keyboard-response","221","326241","0.0-1.0-292.0","0","0","65777","","null","","","null","32","","NaN","","","","","","","","","","","","","",""
"","response","","html-keyboard-response","222","326681","0.0-1.0-293.0-0.0","0","0","65777","","438","","","68","32","","","1","32","training","adjacent","GF","7","6","L.jpg","R.jpg","0","0","1","",""
"","feedback","","html-keyboard-response","223","327683","0.0-1.0-294.0-0.0","0","0","65777","","null","","","null","32","","","","","","","","","","","","","","","",""
"","ITI","","html-keyboard-response","224","328685","0.0-1.0-297.0","0","0","65777","","null","","","null","32","","","","","","","","","","","","","","","NaN",""
"","S1","","html-keyboard-response","225","328837","0.0-1.0-299.0","0","0","65777","","null","","","null","33","","","","","","","","","","","","","","","",""
"","ISI","","html-keyboard-response","226","330839","0.0-1.0-300.0","0","0","65777","","null","","","null","33","NaN","","","","","","","","","","","","","","",""
"","S2","","html-keyboard-response","227","330991","0.0-1.0-301.0","0","0","65777","","null","","","null","33","","NaN","","","","","","","","","","","","","",""
"","response","","html-keyboard-response","228","332016","0.0-1.0-302.0-0.0","0","0","65777","","1023","","","75","33","","","1","33","training","adjacent","FG","6","7","R.jpg","L.jpg","1","1","1","",""
"","feedback","","html-keyboard-response","229","333018","0.0-1.0-303.0-0.0","0","0","65777","","null","","","null","33","","","","","","","","","","","","","","","",""
"","ITI","","html-keyboard-response","230","334020","0.0-1.0-306.0","0","0","65777","","null","","","null","33","","","","","","","","","","","","","","","NaN",""
"","S1","","html-keyboard-response","231","334171","0.0-1.0-308.0","0","0","65777","","null","","","null","34","","","","","","","","","","","","","","","",""
"","ISI","","html-keyboard-response","232","336174","0.0-1.0-309.0","0","0","65777","","null","","","null","34","NaN","","","","","","","","","","","","","","",""
"","S2","","html-keyboard-response","233","336326","0.0-1.0-310.0","0","0","65777","","null","","","null","34","","NaN","","","","","","","","","","","","","",""
"","response","","html-keyboard-response","234","337184","0.0-1.0-311.0-0.0","0","0","65777","","857","","","75","34","","","1","34","training","adjacent","ED","5","4","M.jpg","P.jpg","1","0","0","",""
"","feedback","","html-keyboard-response","235","338187","0.0-1.0-312.0-0.0","0","0","65777","","null","","","null","34","","","","","","","","","","","","","","","",""
"","time_out","","html-keyboard-response","236","340189","0.0-1.0-314.0-0.0","0","0","65777","","null","","","null","34","","","","","","","","","","","","","","","",""
"","ITI","","html-keyboard-response","237","341191","0.0-1.0-315.0","0","0","65777","","null","","","null","34","","","","","","","","","","","","","","","NaN",""
"","S1","","html-keyboard-response","238","341344","0.0-1.0-317.0","0","0","65777","","null","","","null","35","","","","","","","","","","","","","","","",""
"","ISI","","html-keyboard-response","239","343346","0.0-1.0-318.0","0","0","65777","","null","","","null","35","NaN","","","","","","","","","","","","","","",""
"","S2","","html-keyboard-response","240","343499","0.0-1.0-319.0","0","0","65777","","null","","","null","35","","NaN","","","","","","","","","","","","","",""
"","response","","html-keyboard-response","241","343896","0.0-1.0-320.0-0.0","0","0","65777","","397","","","68","35","","","1","35","training","adjacent","GF","7","6","L.jpg","R.jpg","0","0","1","",""
"","feedback","","html-keyboard-response","242","344898","0.0-1.0-321.0-0.0","0","0","65777","","null","","","null","35","","","","","","","","","","","","","","","",""
"","ITI","","html-keyboard-response","243","345900","0.0-1.0-324.0","0","0","65777","","null","","","null","35","","","","","","","","","","","","","","","NaN",""
"","S1","","html-keyboard-response","244","346052","0.0-1.0-326.0","0","0","65777","","null","","","null","36","","","","","","","","","","","","","","","",""
"","ISI","","html-keyboard-response","245","348054","0.0-1.0-327.0","0","0","65777","","null","","","null","36","NaN","","","","","","","","","","","","","","",""
"","S2","","html-keyboard-response","246","348206","0.0-1.0-328.0","0","0","65777","","null","","","null","36","","NaN","","","","","","","","","","","","","",""
"","response","","html-keyboard-response","247","348577","0.0-1.0-329.0-0.0","0","0","65777","","370","","","68","36","","","1","36","training","adjacent","GF","7","6","L.jpg","R.jpg","0","0","1","",""
"","feedback","","html-keyboard-response","248","349579","0.0-1.0-330.0-0.0","0","0","65777","","null","","","null","36","","","","","","","","","","","","","","","",""
"","ITI","","html-keyboard-response","249","350582","0.0-1.0-333.0","0","0","65777","","null","","","null","36","","","","","","","","","","","","","","","NaN",""
"","S1","","html-keyboard-response","250","350735","0.0-1.0-335.0","0","0","65777","","null","","","null","37","","","","","","","","","","","","","","","",""
"","ISI","","html-keyboard-response","251","352737","0.0-1.0-336.0","0","0","65777","","null","","","null","37","NaN","","","","","","","","","","","","","","",""
"","S2","","html-keyboard-response","252","352889","0.0-1.0-337.0","0","0","65777","","null","","","null","37","","NaN","","","","","","","","","","","","","",""
"","response","","html-keyboard-response","253","353336","0.0-1.0-338.0-0.0","0","0","65777","","446","","","68","37","","","1","37","training","adjacent","GF","7","6","L.jpg","R.jpg","0","0","1","",""
"","feedback","","html-keyboard-response","254","354338","0.0-1.0-339.0-0.0","0","0","65777","","null","","","null","37","","","","","","","","","","","","","","","",""
"","ITI","","html-keyboard-response","255","355340","0.0-1.0-342.0","0","0","65777","","null","","","null","37","","","","","","","","","","","","","","","NaN",""
"","S1","","html-keyboard-response","256","355492","0.0-1.0-344.0","0","0","65777","","null","","","null","38","","","","","","","","","","","","","","","",""
"","ISI","","html-keyboard-response","257","357493","0.0-1.0-345.0","0","0","65777","","null","","","null","38","NaN","","","","","","","","","","","","","","",""
"","S2","","html-keyboard-response","258","357645","0.0-1.0-346.0","0","0","65777","","null","","","null","38","","NaN","","","","","","","","","","","","","",""
"","response","","html-keyboard-response","259","358728","0.0-1.0-347.0-0.0","0","0","65777","","1082","","","68","38","","","1","38","training","adjacent","BA","2","1","O.jpg","N.jpg","0","0","1","",""
"","feedback","","html-keyboard-response","260","359730","0.0-1.0-348.0-0.0","0","0","65777","","null","","","null","38","","","","","","","","","","","","","","","",""
"","ITI","","html-keyboard-response","261","360732","0.0-1.0-351.0","0","0","65777","","null","","","null","38","","","","","","","","","","","","","","","NaN",""
"","S1","","html-keyboard-response","262","360884","0.0-1.0-353.0","0","0","65777","","null","","","null","39","","","","","","","","","","","","","","","",""
"","ISI","","html-keyboard-response","263","362887","0.0-1.0-354.0","0","0","65777","","null","","","null","39","NaN","","","","","","","","","","","","","","",""
"","S2","","html-keyboard-response","264","363038","0.0-1.0-355.0","0","0","65777","","null","","","null","39","","NaN","","","","","","","","","","","","","",""
"","response","","html-keyboard-response","265","363911","0.0-1.0-356.0-0.0","0","0","65777","","872","","","75","39","","","1","39","training","adjacent","EF","5","6","M.jpg","R.jpg","1","1","1","",""
"","feedback","","html-keyboard-response","266","364914","0.0-1.0-357.0-0.0","0","0","65777","","null","","","null","39","","","","","","","","","","","","","","","",""
"","ITI","","html-keyboard-response","267","365916","0.0-1.0-360.0","0","0","65777","","null","","","null","39","","","","","","","","","","","","","","","NaN",""
"","S1","","html-keyboard-response","268","366068","0.0-1.0-362.0","0","0","65777","","null","","","null","40","","","","","","","","","","","","","","","",""
"","ISI","","html-keyboard-response","269","368069","0.0-1.0-363.0","0","0","65777","","null","","","null","40","NaN","","","","","","","","","","","","","","",""
"","S2","","html-keyboard-response","270","368221","0.0-1.0-364.0","0","0","65777","","null","","","null","40","","NaN","","","","","","","","","","","","","",""
"","response","","html-keyboard-response","271","368792","0.0-1.0-365.0-0.0","0","0","65777","","571","","","75","40","","","1","40","training","adjacent","FG","6","7","R.jpg","L.jpg","1","1","1","",""
"","feedback","","html-keyboard-response","272","369795","0.0-1.0-366.0-0.0","0","0","65777","","null","","","null","40","","","","","","","","","","","","","","","",""
"","ITI","","html-keyboard-response","273","370797","0.0-1.0-369.0","0","0","65777","","null","","","null","40","","","","","","","","","","","","","","","NaN",""
"","S1","","html-keyboard-response","274","370951","0.0-1.0-371.0","0","0","65777","","null","","","null","41","","","","","","","","","","","","","","","",""
"","ISI","","html-keyboard-response","275","372953","0.0-1.0-372.0","0","0","65777","","null","","","null","41","NaN","","","","","","","","","","","","","","",""
"","S2","","html-keyboard-response","276","373104","0.0-1.0-373.0","0","0","65777","","null","","","null","41","","NaN","","","","","","","","","","","","","",""
"","response","","html-keyboard-response","277","373616","0.0-1.0-374.0-0.0","0","0","65777","","511","","","75","41","","","1","41","training","adjacent","FE","6","5","R.jpg","M.jpg","1","0","0","",""
"","feedback","","html-keyboard-response","278","374619","0.0-1.0-375.0-0.0","0","0","65777","","null","","","null","41","","","","","","","","","","","","","","","",""
"","time_out","","html-keyboard-response","279","376621","0.0-1.0-377.0-0.0","0","0","65777","","null","","","null","41","","","","","","","","","","","","","","","",""
"","ITI","","html-keyboard-response","280","377623","0.0-1.0-378.0","0","0","65777","","null","","","null","41","","","","","","","","","","","","","","","NaN",""
"","S1","","html-keyboard-response","281","377775","0.0-1.0-380.0","0","0","65777","","null","","","null","42","","","","","","","","","","","","","","","",""
"","ISI","","html-keyboard-response","282","379776","0.0-1.0-381.0","0","0","65777","","null","","","null","42","NaN","","","","","","","","","","","","","","",""
"","S2","","html-keyboard-response","283","379928","0.0-1.0-382.0","0","0","65777","","null","","","null","42","","NaN","","","","","","","","","","","","","",""
"","response","","html-keyboard-response","284","380600","0.0-1.0-383.0-0.0","0","0","65777","","671","","","68","42","","","1","42","training","adjacent","DC","4","3","P.jpg","Q.jpg","0","0","1","",""
"","feedback","","html-keyboard-response","285","381602","0.0-1.0-384.0-0.0","0","0","65777","","null","","","null","42","","","","","","","","","","","","","","","",""
"","ITI","","html-keyboard-response","286","382604","0.0-1.0-387.0","0","0","65777","","null","","","null","42","","","","","","","","","","","","","","","NaN",""
"","S1","","html-keyboard-response","287","382757","0.0-1.0-389.0","0","0","65777","","null","","","null","43","","","","","","","","","","","","","","","",""
"","ISI","","html-keyboard-response","288","384760","0.0-1.0-390.0","0","0","65777","","null","","","null","43","NaN","","","","","","","","","","","","","","",""
"","S2","","html-keyboard-response","289","384913","0.0-1.0-391.0","0","0","65777","","null","","","null","43","","NaN","","","","","","","","","","","","","",""
"","response","","html-keyboard-response","290","386304","0.0-1.0-392.0-0.0","0","0","65777","","1390","","","75","43","","","1","43","training","adjacent","AB","1","2","N.jpg","O.jpg","1","1","1","",""
"","feedback","","html-keyboard-response","291","387306","0.0-1.0-393.0-0.0","0","0","65777","","null","","","null","43","","","","","","","","","","","","","","","",""
"","ITI","","html-keyboard-response","292","388308","0.0-1.0-396.0","0","0","65777","","null","","","null","43","","","","","","","","","","","","","","","NaN",""
"","S1","","html-keyboard-response","293","388460","0.0-1.0-398.0","0","0","65777","","null","","","null","44","","","","","","","","","","","","","","","",""
"","ISI","","html-keyboard-response","294","390462","0.0-1.0-399.0","0","0","65777","","null","","","null","44","NaN","","","","","","","","","","","","","","",""
"","S2","","html-keyboard-response","295","390614","0.0-1.0-400.0","0","0","65777","","null","","","null","44","","NaN","","","","","","","","","","","","","",""
"","response","","html-keyboard-response","296","391040","0.0-1.0-401.0-0.0","0","0","65777","","424","","","75","44","","","1","44","training","adjacent","BA","2","1","O.jpg","N.jpg","1","0","0","",""
"","feedback","","html-keyboard-response","297","392042","0.0-1.0-402.0-0.0","0","0","65777","","null","","","null","44","","","","","","","","","","","","","","","",""
"","time_out","","html-keyboard-response","298","394044","0.0-1.0-404.0-0.0","0","0","65777","","null","","","null","44","","","","","","","","","","","","","","","",""
"","ITI","","html-keyboard-response","299","395046","0.0-1.0-405.0","0","0","65777","","null","","","null","44","","","","","","","","","","","","","","","NaN",""
"","S1","","html-keyboard-response","300","395198","0.0-1.0-407.0","0","0","65777","","null","","","null","45","","","","","","","","","","","","","","","",""
"","ISI","","html-keyboard-response","301","397200","0.0-1.0-408.0","0","0","65777","","null","","","null","45","NaN","","","","","","","","","","","","","","",""
"","S2","","html-keyboard-response","302","397352","0.0-1.0-409.0","0","0","65777","","null","","","null","45","","NaN","","","","","","","","","","","","","",""
"","response","","html-keyboard-response","303","398353","0.0-1.0-410.0-0.0","0","0","65777","","1000","","","75","45","","","1","45","training","adjacent","ED","5","4","M.jpg","P.jpg","1","0","0","",""
"","feedback","","html-keyboard-response","304","399356","0.0-1.0-411.0-0.0","0","0","65777","","null","","","null","45","","","","","","","","","","","","","","","",""
"","time_out","","html-keyboard-response","305","401358","0.0-1.0-413.0-0.0","0","0","65777","","null","","","null","45","","","","","","","","","","","","","","","",""
"","ITI","","html-keyboard-response","306","402359","0.0-1.0-414.0","0","0","65777","","null","","","null","45","","","","","","","","","","","","","","","NaN",""
"","S1","","html-keyboard-response","307","402511","0.0-1.0-416.0","0","0","65777","","null","","","null","46","","","","","","","","","","","","","","","",""
"","ISI","","html-keyboard-response","308","404513","0.0-1.0-417.0","0","0","65777","","null","","","null","46","NaN","","","","","","","","","","","","","","",""
"","S2","","html-keyboard-response","309","404665","0.0-1.0-418.0","0","0","65777","","null","","","null","46","","NaN","","","","","","","","","","","","","",""
"","response","","html-keyboard-response","310","405528","0.0-1.0-419.0-0.0","0","0","65777","","861","","","68","46","","","1","46","training","adjacent","DE","4","5","P.jpg","M.jpg","0","1","0","",""
"","feedback","","html-keyboard-response","311","406531","0.0-1.0-420.0-0.0","0","0","65777","","null","","","null","46","","","","","","","","","","","","","","","",""
"","time_out","","html-keyboard-response","312","408532","0.0-1.0-422.0-0.0","0","0","65777","","null","","","null","46","","","","","","","","","","","","","","","",""
"","ITI","","html-keyboard-response","313","409534","0.0-1.0-423.0","0","0","65777","","null","","","null","46","","","","","","","","","","","","","","","NaN",""
"","S1","","html-keyboard-response","314","409687","0.0-1.0-425.0","0","0","65777","","null","","","null","47","","","","","","","","","","","","","","","",""
"","ISI","","html-keyboard-response","315","411688","0.0-1.0-426.0","0","0","65777","","null","","","null","47","NaN","","","","","","","","","","","","","","",""
"","S2","","html-keyboard-response","316","411840","0.0-1.0-427.0","0","0","65777","","null","","","null","47","","NaN","","","","","","","","","","","","","",""
"","response","","html-keyboard-response","317","412928","0.0-1.0-428.0-0.0","0","0","65777","","1087","","","75","47","","","1","47","training","adjacent","CD","3","4","Q.jpg","P.jpg","1","1","1","",""
"","feedback","","html-keyboard-response","318","413929","0.0-1.0-429.0-0.0","0","0","65777","","null","","","null","47","","","","","","","","","","","","","","","",""
"","ITI","","html-keyboard-response","319","414932","0.0-1.0-432.0","0","0","65777","","null","","","null","47","","","","","","","","","","","","","","","NaN",""
"","block_over","","html-keyboard-response","320","444992","0.0-1.0-433.0-0.0","0","0","65777","","30059","","","32","47","","","","","","","","","","","","","","","",""
"","S1","","html-keyboard-response","321","445144","0.0-1.0-434.0","0","0","65777","","null","","","null","48","","","","","","","","","","","","","","","",""
"","ISI","","html-keyboard-response","322","447146","0.0-1.0-435.0","0","0","65777","","null","","","null","48","NaN","","","","","","","","","","","","","","",""
"","S2","","html-keyboard-response","323","447298","0.0-1.0-436.0","0","0","65777","","null","","","null","48","","NaN","","","","","","","","","","","","","",""
"","response","","html-keyboard-response","324","448360","0.0-1.0-437.0-0.0","0","0","65777","","1061","","","68","48","","","2","48","training","adjacent","BA","2","1","O.jpg","N.jpg","0","0","1","",""
"","feedback","","html-keyboard-response","325","449363","0.0-1.0-438.0-0.0","0","0","65777","","null","","","null","48","","","","","","","","","","","","","","","",""
"","ITI","","html-keyboard-response","326","450365","0.0-1.0-441.0","0","0","65777","","null","","","null","48","","","","","","","","","","","","","","","NaN",""
"","S1","","html-keyboard-response","327","450517","0.0-1.0-443.0","0","0","65777","","null","","","null","49","","","","","","","","","","","","","","","",""
"","ISI","","html-keyboard-response","328","452518","0.0-1.0-444.0","0","0","65777","","null","","","null","49","NaN","","","","","","","","","","","","","","",""
"","S2","","html-keyboard-response","329","452670","0.0-1.0-445.0","0","0","65777","","null","","","null","49","","NaN","","","","","","","","","","","","","",""
"","response","","html-keyboard-response","330","453128","0.0-1.0-446.0-0.0","0","0","65777","","457","","","75","49","","","2","49","training","adjacent","AB","1","2","N.jpg","O.jpg","1","1","1","",""
"","feedback","","html-keyboard-response","331","454130","0.0-1.0-447.0-0.0","0","0","65777","","null","","","null","49","","","","","","","","","","","","","","","",""
"","ITI","","html-keyboard-response","332","455133","0.0-1.0-450.0","0","0","65777","","null","","","null","49","","","","","","","","","","","","","","","NaN",""
"","S1","","html-keyboard-response","333","455285","0.0-1.0-452.0","0","0","65777","","null","","","null","50","","","","","","","","","","","","","","","",""
"","ISI","","html-keyboard-response","334","457288","0.0-1.0-453.0","0","0","65777","","null","","","null","50","NaN","","","","","","","","","","","","","","",""
"","S2","","html-keyboard-response","335","457441","0.0-1.0-454.0","0","0","65777","","null","","","null","50","","NaN","","","","","","","","","","","","","",""
"","response","","html-keyboard-response","336","457912","0.0-1.0-455.0-0.0","0","0","65777","","470","","","68","50","","","2","50","training","adjacent","BA","2","1","O.jpg","N.jpg","0","0","1","",""
"","feedback","","html-keyboard-response","337","458913","0.0-1.0-456.0-0.0","0","0","65777","","null","","","null","50","","","","","","","","","","","","","","","",""
"","ITI","","html-keyboard-response","338","459915","0.0-1.0-459.0","0","0","65777","","null","","","null","50","","","","","","","","","","","","","","","NaN",""
"","S1","","html-keyboard-response","339","460067","0.0-1.0-461.0","0","0","65777","","null","","","null","51","","","","","","","","","","","","","","","",""
"","ISI","","html-keyboard-response","340","462069","0.0-1.0-462.0","0","0","65777","","null","","","null","51","NaN","","","","","","","","","","","","","","",""
"","S2","","html-keyboard-response","341","462221","0.0-1.0-463.0","0","0","65777","","null","","","null","51","","NaN","","","","","","","","","","","","","",""
"","response","","html-keyboard-response","342","463376","0.0-1.0-464.0-0.0","0","0","65777","","1154","","","75","51","","","2","51","training","adjacent","FE","6","5","R.jpg","M.jpg","1","0","0","",""
"","feedback","","html-keyboard-response","343","464378","0.0-1.0-465.0-0.0","0","0","65777","","null","","","null","51","","","","","","","","","","","","","","","",""
"","time_out","","html-keyboard-response","344","466380","0.0-1.0-467.0-0.0","0","0","65777","","null","","","null","51","","","","","","","","","","","","","","","",""
"","ITI","","html-keyboard-response","345","467382","0.0-1.0-468.0","0","0","65777","","null","","","null","51","","","","","","","","","","","","","","","NaN",""
"","S1","","html-keyboard-response","346","467534","0.0-1.0-470.0","0","0","65777","","null","","","null","52","","","","","","","","","","","","","","","",""
"","ISI","","html-keyboard-response","347","469536","0.0-1.0-471.0","0","0","65777","","null","","","null","52","NaN","","","","","","","","","","","","","","",""
"","S2","","html-keyboard-response","348","469688","0.0-1.0-472.0","0","0","65777","","null","","","null","52","","NaN","","","","","","","","","","","","","",""
"","response","","html-keyboard-response","349","470640","0.0-1.0-473.0-0.0","0","0","65777","","951","","","68","52","","","2","52","training","adjacent","CD","3","4","Q.jpg","P.jpg","0","1","0","",""
"","feedback","","html-keyboard-response","350","471642","0.0-1.0-474.0-0.0","0","0","65777","","null","","","null","52","","","","","","","","","","","","","","","",""
"","time_out","","html-keyboard-response","351","473644","0.0-1.0-476.0-0.0","0","0","65777","","null","","","null","52","","","","","","","","","","","","","","","",""
"","ITI","","html-keyboard-response","352","474646","0.0-1.0-477.0","0","0","65777","","null","","","null","52","","","","","","","","","","","","","","","NaN",""
"","S1","","html-keyboard-response","353","474798","0.0-1.0-479.0","0","0","65777","","null","","","null","53","","","","","","","","","","","","","","","",""
"","ISI","","html-keyboard-response","354","476800","0.0-1.0-480.0","0","0","65777","","null","","","null","53","NaN","","","","","","","","","","","","","","",""
"","S2","","html-keyboard-response","355","476952","0.0-1.0-481.0","0","0","65777","","null","","","null","53","","NaN","","","","","","","","","","","","","",""
"","response","","html-keyboard-response","356","477768","0.0-1.0-482.0-0.0","0","0","65777","","815","","","75","53","","","2","53","training","adjacent","DE","4","5","P.jpg","M.jpg","1","1","1","",""
"","feedback","","html-keyboard-response","357","478771","0.0-1.0-483.0-0.0","0","0","65777","","null","","","null","53","","","","","","","","","","","","","","","",""
"","ITI","","html-keyboard-response","358","479773","0.0-1.0-486.0","0","0","65777","","null","","","null","53","","","","","","","","","","","","","","","NaN",""
"","S1","","html-keyboard-response","359","479926","0.0-1.0-488.0","0","0","65777","","null","","","null","54","","","","","","","","","","","","","","","",""
"","ISI","","html-keyboard-response","360","481927","0.0-1.0-489.0","0","0","65777","","null","","","null","54","NaN","","","","","","","","","","","","","","",""
"","S2","","html-keyboard-response","361","482080","0.0-1.0-490.0","0","0","65777","","null","","","null","54","","NaN","","","","","","","","","","","","","",""
"","response","","html-keyboard-response","362","482481","0.0-1.0-491.0-0.0","0","0","65777","","400","","","75","54","","","2","54","training","adjacent","AB","1","2","N.jpg","O.jpg","1","1","1","",""
"","feedback","","html-keyboard-response","363","483483","0.0-1.0-492.0-0.0","0","0","65777","","null","","","null","54","","","","","","","","","","","","","","","",""
"","ITI","","html-keyboard-response","364","484485","0.0-1.0-495.0","0","0","65777","","null","","","null","54","","","","","","","","","","","","","","","NaN",""
"","S1","","html-keyboard-response","365","484637","0.0-1.0-497.0","0","0","65777","","null","","","null","55","","","","","","","","","","","","","","","",""
"","ISI","","html-keyboard-response","366","486640","0.0-1.0-498.0","0","0","65777","","null","","","null","55","NaN","","","","","","","","","","","","","","",""
"","S2","","html-keyboard-response","367","486792","0.0-1.0-499.0","0","0","65777","","null","","","null","55","","NaN","","","","","","","","","","","","","",""
"","response","","html-keyboard-response","368","488184","0.0-1.0-500.0-0.0","0","0","65777","","1391","","","75","55","","","2","55","training","adjacent","CB","3","2","Q.jpg","O.jpg","1","0","0","",""
"","feedback","","html-keyboard-response","369","489187","0.0-1.0-501.0-0.0","0","0","65777","","null","","","null","55","","","","","","","","","","","","","","","",""
"","time_out","","html-keyboard-response","370","491188","0.0-1.0-503.0-0.0","0","0","65777","","null","","","null","55","","","","","","","","","","","","","","","",""
"","ITI","","html-keyboard-response","371","492190","0.0-1.0-504.0","0","0","65777","","null","","","null","55","","","","","","","","","","","","","","","NaN",""
"","S1","","html-keyboard-response","372","492343","0.0-1.0-506.0","0","0","65777","","null","","","null","56","","","","","","","","","","","","","","","",""
"","ISI","","html-keyboard-response","373","494345","0.0-1.0-507.0","0","0","65777","","null","","","null","56","NaN","","","","","","","","","","","","","","",""
"","S2","","html-keyboard-response","374","494497","0.0-1.0-508.0","0","0","65777","","null","","","null","56","","NaN","","","","","","","","","","","","","",""
"","response","","html-keyboard-response","375","495088","0.0-1.0-509.0-0.0","0","0","65777","","590","","","68","56","","","2","56","training","adjacent","GF","7","6","L.jpg","R.jpg","0","0","1","",""
"","feedback","","html-keyboard-response","376","496089","0.0-1.0-510.0-0.0","0","0","65777","","null","","","null","56","","","","","","","","","","","","","","","",""
"","ITI","","html-keyboard-response","377","497091","0.0-1.0-513.0","0","0","65777","","null","","","null","56","","","","","","","","","","","","","","","NaN",""
"","S1","","html-keyboard-response","378","497244","0.0-1.0-515.0","0","0","65777","","null","","","null","57","","","","","","","","","","","","","","","",""
"","ISI","","html-keyboard-response","379","499245","0.0-1.0-516.0","0","0","65777","","null","","","null","57","NaN","","","","","","","","","","","","","","",""
"","S2","","html-keyboard-response","380","499398","0.0-1.0-517.0","0","0","65777","","null","","","null","57","","NaN","","","","","","","","","","","","","",""
"","response","","html-keyboard-response","381","499912","0.0-1.0-518.0-0.0","0","0","65777","","514","","","68","57","","","2","57","training","adjacent","GF","7","6","L.jpg","R.jpg","0","0","1","",""
"","feedback","","html-keyboard-response","382","500914","0.0-1.0-519.0-0.0","0","0","65777","","null","","","null","57","","","","","","","","","","","","","","","",""
"","ITI","","html-keyboard-response","383","501917","0.0-1.0-522.0","0","0","65777","","null","","","null","57","","","","","","","","","","","","","","","NaN",""
"","S1","","html-keyboard-response","384","502069","0.0-1.0-524.0","0","0","65777","","null","","","null","58","","","","","","","","","","","","","","","",""
"","ISI","","html-keyboard-response","385","504070","0.0-1.0-525.0","0","0","65777","","null","","","null","58","NaN","","","","","","","","","","","","","","",""
"","S2","","html-keyboard-response","386","504222","0.0-1.0-526.0","0","0","65777","","null","","","null","58","","NaN","","","","","","","","","","","","","",""
"","response","","html-keyboard-response","387","504904","0.0-1.0-527.0-0.0","0","0","65777","","681","","","75","58","","","2","58","training","adjacent","FG","6","7","R.jpg","L.jpg","1","1","1","",""
"","feedback","","html-keyboard-response","388","505906","0.0-1.0-528.0-0.0","0","0","65777","","null","","","null","58","","","","","","","","","","","","","","","",""
"","ITI","","html-keyboard-response","389","506908","0.0-1.0-531.0","0","0","65777","","null","","","null","58","","","","","","","","","","","","","","","NaN",""
"","S1","","html-keyboard-response","390","507060","0.0-1.0-533.0","0","0","65777","","null","","","null","59","","","","","","","","","","","","","","","",""
"","ISI","","html-keyboard-response","391","509062","0.0-1.0-534.0","0","0","65777","","null","","","null","59","NaN","","","","","","","","","","","","","","",""
"","S2","","html-keyboard-response","392","509214","0.0-1.0-535.0","0","0","65777","","null","","","null","59","","NaN","","","","","","","","","","","","","",""
"","response","","html-keyboard-response","393","509944","0.0-1.0-536.0-0.0","0","0","65777","","729","","","75","59","","","2","59","training","adjacent","CB","3","2","Q.jpg","O.jpg","1","0","0","",""
"","feedback","","html-keyboard-response","394","510946","0.0-1.0-537.0-0.0","0","0","65777","","null","","","null","59","","","","","","","","","","","","","","","",""
"","time_out","","html-keyboard-response","395","512947","0.0-1.0-539.0-0.0","0","0","65777","","null","","","null","59","","","","","","","","","","","","","","","",""
"","ITI","","html-keyboard-response","396","513949","0.0-1.0-540.0","0","0","65777","","null","","","null","59","","","","","","","","","","","","","","","NaN",""
"","S1","","html-keyboard-response","397","514101","0.0-1.0-542.0","0","0","65777","","null","","","null","60","","","","","","","","","","","","","","","",""
"","ISI","","html-keyboard-response","398","516103","0.0-1.0-543.0","0","0","65777","","null","","","null","60","NaN","","","","","","","","","","","","","","",""
"","S2","","html-keyboard-response","399","516255","0.0-1.0-544.0","0","0","65777","","null","","","null","60","","NaN","","","","","","","","","","","","","",""
"","response","","html-keyboard-response","400","517416","0.0-1.0-545.0-0.0","0","0","65777","","1159","","","75","60","","","2","60","training","adjacent","DE","4","5","P.jpg","M.jpg","1","1","1","",""
"","feedback","","html-keyboard-response","401","518418","0.0-1.0-546.0-0.0","0","0","65777","","null","","","null","60","","","","","","","","","","","","","","","",""
"","ITI","","html-keyboard-response","402","519420","0.0-1.0-549.0","0","0","65777","","null","","","null","60","","","","","","","","","","","","","","","NaN",""
"","S1","","html-keyboard-response","403","519572","0.0-1.0-551.0","0","0","65777","","null","","","null","61","","","","","","","","","","","","","","","",""
"","ISI","","html-keyboard-response","404","521573","0.0-1.0-552.0","0","0","65777","","null","","","null","61","NaN","","","","","","","","","","","","","","",""
"","S2","","html-keyboard-response","405","521725","0.0-1.0-553.0","0","0","65777","","null","","","null","61","","NaN","","","","","","","","","","","","","",""
"","response","","html-keyboard-response","406","522584","0.0-1.0-554.0-0.0","0","0","65777","","858","","","75","61","","","2","61","training","adjacent","DC","4","3","P.jpg","Q.jpg","1","0","0","",""
"","feedback","","html-keyboard-response","407","523587","0.0-1.0-555.0-0.0","0","0","65777","","null","","","null","61","","","","","","","","","","","","","","","",""
"","time_out","","html-keyboard-response","408","525589","0.0-1.0-557.0-0.0","0","0","65777","","null","","","null","61","","","","","","","","","","","","","","","",""
"","ITI","","html-keyboard-response","409","526592","0.0-1.0-558.0","0","0","65777","","null","","","null","61","","","","","","","","","","","","","","","NaN",""
"","S1","","html-keyboard-response","410","526744","0.0-1.0-560.0","0","0","65777","","null","","","null","62","","","","","","","","","","","","","","","",""
"","ISI","","html-keyboard-response","411","528746","0.0-1.0-561.0","0","0","65777","","null","","","null","62","NaN","","","","","","","","","","","","","","",""
"","S2","","html-keyboard-response","412","528898","0.0-1.0-562.0","0","0","65777","","null","","","null","62","","NaN","","","","","","","","","","","","","",""
"","response","","html-keyboard-response","413","529480","0.0-1.0-563.0-0.0","0","0","65777","","581","","","75","62","","","2","62","training","adjacent","CB","3","2","Q.jpg","O.jpg","1","0","0","",""
"","feedback","","html-keyboard-response","414","530482","0.0-1.0-564.0-0.0","0","0","65777","","null","","","null","62","","","","","","","","","","","","","","","",""
"","time_out","","html-keyboard-response","415","532484","0.0-1.0-566.0-0.0","0","0","65777","","null","","","null","62","","","","","","","","","","","","","","","",""
"","ITI","","html-keyboard-response","416","533485","0.0-1.0-567.0","0","0","65777","","null","","","null","62","","","","","","","","","","","","","","","NaN",""
"","S1","","html-keyboard-response","417","533637","0.0-1.0-569.0","0","0","65777","","null","","","null","63","","","","","","","","","","","","","","","",""
"","ISI","","html-keyboard-response","418","535640","0.0-1.0-570.0","0","0","65777","","null","","","null","63","NaN","","","","","","","","","","","","","","",""
"","S2","","html-keyboard-response","419","535792","0.0-1.0-571.0","0","0","65777","","null","","","null","63","","NaN","","","","","","","","","","","","","",""
"","response","","html-keyboard-response","420","536880","0.0-1.0-572.0-0.0","0","0","65777","","1087","","","75","63","","","2","63","training","adjacent","EF","5","6","M.jpg","R.jpg","1","1","1","",""
"","feedback","","html-keyboard-response","421","537882","0.0-1.0-573.0-0.0","0","0","65777","","null","","","null","63","","","","","","","","","","","","","","","",""
"","ITI","","html-keyboard-response","422","538884","0.0-1.0-576.0","0","0","65777","","null","","","null","63","","","","","","","","","","","","","","","NaN",""
"","S1","","html-keyboard-response","423","539035","0.0-1.0-578.0","0","0","65777","","null","","","null","64","","","","","","","","","","","","","","","",""
"","ISI","","html-keyboard-response","424","541038","0.0-1.0-579.0","0","0","65777","","null","","","null","64","NaN","","","","","","","","","","","","","","",""
"","S2","","html-keyboard-response","425","541190","0.0-1.0-580.0","0","0","65777","","null","","","null","64","","NaN","","","","","","","","","","","","","",""
"","response","","html-keyboard-response","426","542744","0.0-1.0-581.0-0.0","0","0","65777","","1552","","","68","64","","","2","64","training","adjacent","CD","3","4","Q.jpg","P.jpg","0","1","0","",""
"","feedback","","html-keyboard-response","427","543747","0.0-1.0-582.0-0.0","0","0","65777","","null","","","null","64","","","","","","","","","","","","","","","",""
"","time_out","","html-keyboard-response","428","545749","0.0-1.0-584.0-0.0","0","0","65777","","null","","","null","64","","","","","","","","","","","","","","","",""
"","ITI","","html-keyboard-response","429","546750","0.0-1.0-585.0","0","0","65777","","null","","","null","64","","","","","","","","","","","","","","","NaN",""
"","S1","","html-keyboard-response","430","546902","0.0-1.0-587.0","0","0","65777","","null","","","null","65","","","","","","","","","","","","","","","",""
"","ISI","","html-keyboard-response","431","548904","0.0-1.0-588.0","0","0","65777","","null","","","null","65","NaN","","","","","","","","","","","","","","",""
"","S2","","html-keyboard-response","432","549057","0.0-1.0-589.0","0","0","65777","","null","","","null","65","","NaN","","","","","","","","","","","","","",""
"","response","","html-keyboard-response","433","550120","0.0-1.0-590.0-0.0","0","0","65777","","1062","","","75","65","","","2","65","training","adjacent","DE","4","5","P.jpg","M.jpg","1","1","1","",""
"","feedback","","html-keyboard-response","434","551121","0.0-1.0-591.0-0.0","0","0","65777","","null","","","null","65","","","","","","","","","","","","","","","",""
"","ITI","","html-keyboard-response","435","552123","0.0-1.0-594.0","0","0","65777","","null","","","null","65","","","","","","","","","","","","","","","NaN",""
"","S1","","html-keyboard-response","436","552275","0.0-1.0-596.0","0","0","65777","","null","","","null","66","","","","","","","","","","","","","","","",""
"","ISI","","html-keyboard-response","437","554276","0.0-1.0-597.0","0","0","65777","","null","","","null","66","NaN","","","","","","","","","","","","","","",""
"","S2","","html-keyboard-response","438","554428","0.0-1.0-598.0","0","0","65777","","null","","","null","66","","NaN","","","","","","","","","","","","","",""
"","response","","html-keyboard-response","439","555464","0.0-1.0-599.0-0.0","0","0","65777","","1034","","","68","66","","","2","66","training","adjacent","BC","2","3","O.jpg","Q.jpg","0","1","0","",""
"","feedback","","html-keyboard-response","440","556467","0.0-1.0-600.0-0.0","0","0","65777","","null","","","null","66","","","","","","","","","","","","","","","",""
"","time_out","","html-keyboard-response","441","558469","0.0-1.0-602.0-0.0","0","0","65777","","null","","","null","66","","","","","","","","","","","","","","","",""
"","ITI","","html-keyboard-response","442","559471","0.0-1.0-603.0","0","0","65777","","null","","","null","66","","","","","","","","","","","","","","","NaN",""
"","S1","","html-keyboard-response","443","559624","0.0-1.0-605.0","0","0","65777","","null","","","null","67","","","","","","","","","","","","","","","",""
"","ISI","","html-keyboard-response","444","561626","0.0-1.0-606.0","0","0","65777","","null","","","null","67","NaN","","","","","","","","","","","","","","",""
"","S2","","html-keyboard-response","445","561778","0.0-1.0-607.0","0","0","65777","","null","","","null","67","","NaN","","","","","","","","","","","","","",""
"","response","","html-keyboard-response","446","562464","0.0-1.0-608.0-0.0","0","0","65777","","685","","","75","67","","","2","67","training","adjacent","FE","6","5","R.jpg","M.jpg","1","0","0","",""
"","feedback","","html-keyboard-response","447","563466","0.0-1.0-609.0-0.0","0","0","65777","","null","","","null","67","","","","","","","","","","","","","","","",""
"","time_out","","html-keyboard-response","448","565468","0.0-1.0-611.0-0.0","0","0","65777","","null","","","null","67","","","","","","","","","","","","","","","",""
"","ITI","","html-keyboard-response","449","566470","0.0-1.0-612.0","0","0","65777","","null","","","null","67","","","","","","","","","","","","","","","NaN",""
"","S1","","html-keyboard-response","450","566623","0.0-1.0-614.0","0","0","65777","","null","","","null","68","","","","","","","","","","","","","","","",""
"","ISI","","html-keyboard-response","451","568625","0.0-1.0-615.0","0","0","65777","","null","","","null","68","NaN","","","","","","","","","","","","","","",""
"","S2","","html-keyboard-response","452","568777","0.0-1.0-616.0","0","0","65777","","null","","","null","68","","NaN","","","","","","","","","","","","","",""
"","response","","html-keyboard-response","453","569856","0.0-1.0-617.0-0.0","0","0","65777","","1078","","","68","68","","","2","68","training","adjacent","BA","2","1","O.jpg","N.jpg","0","0","1","",""
"","feedback","","html-keyboard-response","454","570858","0.0-1.0-618.0-0.0","0","0","65777","","null","","","null","68","","","","","","","","","","","","","","","",""
"","ITI","","html-keyboard-response","455","571860","0.0-1.0-621.0","0","0","65777","","null","","","null","68","","","","","","","","","","","","","","","NaN",""
"","S1","","html-keyboard-response","456","572012","0.0-1.0-623.0","0","0","65777","","null","","","null","69","","","","","","","","","","","","","","","",""
"","ISI","","html-keyboard-response","457","574014","0.0-1.0-624.0","0","0","65777","","null","","","null","69","NaN","","","","","","","","","","","","","","",""
"","S2","","html-keyboard-response","458","574166","0.0-1.0-625.0","0","0","65777","","null","","","null","69","","NaN","","","","","","","","","","","","","",""
"","response","","html-keyboard-response","459","574760","0.0-1.0-626.0-0.0","0","0","65777","","592","","","75","69","","","2","69","training","adjacent","FG","6","7","R.jpg","L.jpg","1","1","1","",""
"","feedback","","html-keyboard-response","460","575762","0.0-1.0-627.0-0.0","0","0","65777","","null","","","null","69","","","","","","","","","","","","","","","",""
"","ITI","","html-keyboard-response","461","576764","0.0-1.0-630.0","0","0","65777","","null","","","null","69","","","","","","","","","","","","","","","NaN",""
"","S1","","html-keyboard-response","462","576917","0.0-1.0-632.0","0","0","65777","","null","","","null","70","","","","","","","","","","","","","","","",""
"","ISI","","html-keyboard-response","463","578919","0.0-1.0-633.0","0","0","65777","","null","","","null","70","NaN","","","","","","","","","","","","","","",""
"","S2","","html-keyboard-response","464","579072","0.0-1.0-634.0","0","0","65777","","null","","","null","70","","NaN","","","","","","","","","","","","","",""
"","response","","html-keyboard-response","465","579711","0.0-1.0-635.0-0.0","0","0","65777","","639","","","75","70","","","2","70","training","adjacent","EF","5","6","M.jpg","R.jpg","1","1","1","",""
"","feedback","","html-keyboard-response","466","580713","0.0-1.0-636.0-0.0","0","0","65777","","null","","","null","70","","","","","","","","","","","","","","","",""
"","ITI","","html-keyboard-response","467","581715","0.0-1.0-639.0","0","0","65777","","null","","","null","70","","","","","","","","","","","","","","","NaN",""
"","S1","","html-keyboard-response","468","581868","0.0-1.0-641.0","0","0","65777","","null","","","null","71","","","","","","","","","","","","","","","",""
"","ISI","","html-keyboard-response","469","583870","0.0-1.0-642.0","0","0","65777","","null","","","null","71","NaN","","","","","","","","","","","","","","",""
"","S2","","html-keyboard-response","470","584022","0.0-1.0-643.0","0","0","65777","","null","","","null","71","","NaN","","","","","","","","","","","","","",""
"","response","","html-keyboard-response","471","584808","0.0-1.0-644.0-0.0","0","0","65777","","785","","","68","71","","","2","71","training","adjacent","ED","5","4","M.jpg","P.jpg","0","0","1","",""
"","feedback","","html-keyboard-response","472","585810","0.0-1.0-645.0-0.0","0","0","65777","","null","","","null","71","","","","","","","","","","","","","","","",""
"","ITI","","html-keyboard-response","473","586812","0.0-1.0-648.0","0","0","65777","","null","","","null","71","","","","","","","","","","","","","","","NaN",""
"","S1","","html-keyboard-response","474","586965","0.0-1.0-650.0","0","0","65777","","null","","","null","72","","","","","","","","","","","","","","","",""
"","ISI","","html-keyboard-response","475","588966","0.0-1.0-651.0","0","0","65777","","null","","","null","72","NaN","","","","","","","","","","","","","","",""
"","S2","","html-keyboard-response","476","589118","0.0-1.0-652.0","0","0","65777","","null","","","null","72","","NaN","","","","","","","","","","","","","",""
"","response","","html-keyboard-response","477","589632","0.0-1.0-653.0-0.0","0","0","65777","","513","","","75","72","","","2","72","training","adjacent","EF","5","6","M.jpg","R.jpg","1","1","1","",""
"","feedback","","html-keyboard-response","478","590635","0.0-1.0-654.0-0.0","0","0","65777","","null","","","null","72","","","","","","","","","","","","","","","",""
"","ITI","","html-keyboard-response","479","591638","0.0-1.0-657.0","0","0","65777","","null","","","null","72","","","","","","","","","","","","","","","NaN",""
"","S1","","html-keyboard-response","480","591789","0.0-1.0-659.0","0","0","65777","","null","","","null","73","","","","","","","","","","","","","","","",""
"","ISI","","html-keyboard-response","481","593792","0.0-1.0-660.0","0","0","65777","","null","","","null","73","NaN","","","","","","","","","","","","","","",""
"","S2","","html-keyboard-response","482","593944","0.0-1.0-661.0","0","0","65777","","null","","","null","73","","NaN","","","","","","","","","","","","","",""
"","response","","html-keyboard-response","483","594712","0.0-1.0-662.0-0.0","0","0","65777","","767","","","68","73","","","2","73","training","adjacent","FE","6","5","R.jpg","M.jpg","0","0","1","",""
"","feedback","","html-keyboard-response","484","595714","0.0-1.0-663.0-0.0","0","0","65777","","null","","","null","73","","","","","","","","","","","","","","","",""
"","ITI","","html-keyboard-response","485","596716","0.0-1.0-666.0","0","0","65777","","null","","","null","73","","","","","","","","","","","","","","","NaN",""
"","S1","","html-keyboard-response","486","596868","0.0-1.0-668.0","0","0","65777","","null","","","null","74","","","","","","","","","","","","","","","",""
"","ISI","","html-keyboard-response","487","598869","0.0-1.0-669.0","0","0","65777","","null","","","null","74","NaN","","","","","","","","","","","","","","",""
"","S2","","html-keyboard-response","488","599021","0.0-1.0-670.0","0","0","65777","","null","","","null","74","","NaN","","","","","","","","","","","","","",""
"","response","","html-keyboard-response","489","599559","0.0-1.0-671.0-0.0","0","0","65777","","537","","","75","74","","","2","74","training","adjacent","EF","5","6","M.jpg","R.jpg","1","1","1","",""
"","feedback","","html-keyboard-response","490","600561","0.0-1.0-672.0-0.0","0","0","65777","","null","","","null","74","","","","","","","","","","","","","","","",""
"","ITI","","html-keyboard-response","491","601563","0.0-1.0-675.0","0","0","65777","","null","","","null","74","","","","","","","","","","","","","","","NaN",""
"","S1","","html-keyboard-response","492","601715","0.0-1.0-677.0","0","0","65777","","null","","","null","75","","","","","","","","","","","","","","","",""
"","ISI","","html-keyboard-response","493","603717","0.0-1.0-678.0","0","0","65777","","null","","","null","75","NaN","","","","","","","","","","","","","","",""
"","S2","","html-keyboard-response","494","603870","0.0-1.0-679.0","0","0","65777","","null","","","null","75","","NaN","","","","","","","","","","","","","",""
"","response","","html-keyboard-response","495","604248","0.0-1.0-680.0-0.0","0","0","65777","","377","","","68","75","","","2","75","training","adjacent","GF","7","6","L.jpg","R.jpg","0","0","1","",""
"","feedback","","html-keyboard-response","496","605250","0.0-1.0-681.0-0.0","0","0","65777","","null","","","null","75","","","","","","","","","","","","","","","",""
"","ITI","","html-keyboard-response","497","606253","0.0-1.0-684.0","0","0","65777","","null","","","null","75","","","","","","","","","","","","","","","NaN",""
"","S1","","html-keyboard-response","498","606405","0.0-1.0-686.0","0","0","65777","","null","","","null","76","","","","","","","","","","","","","","","",""
"","ISI","","html-keyboard-response","499","608406","0.0-1.0-687.0","0","0","65777","","null","","","null","76","NaN","","","","","","","","","","","","","","",""
"","S2","","html-keyboard-response","500","608559","0.0-1.0-688.0","0","0","65777","","null","","","null","76","","NaN","","","","","","","","","","","","","",""
"","response","","html-keyboard-response","501","609160","0.0-1.0-689.0-0.0","0","0","65777","","599","","","68","76","","","2","76","training","adjacent","BC","2","3","O.jpg","Q.jpg","0","1","0","",""
"","feedback","","html-keyboard-response","502","610163","0.0-1.0-690.0-0.0","0","0","65777","","null","","","null","76","","","","","","","","","","","","","","","",""
"","time_out","","html-keyboard-response","503","612164","0.0-1.0-692.0-0.0","0","0","65777","","null","","","null","76","","","","","","","","","","","","","","","",""
"","ITI","","html-keyboard-response","504","613166","0.0-1.0-693.0","0","0","65777","","null","","","null","76","","","","","","","","","","","","","","","NaN",""
"","S1","","html-keyboard-response","505","613319","0.0-1.0-695.0","0","0","65777","","null","","","null","77","","","","","","","","","","","","","","","",""
"","ISI","","html-keyboard-response","506","615321","0.0-1.0-696.0","0","0","65777","","null","","","null","77","NaN","","","","","","","","","","","","","","",""
"","S2","","html-keyboard-response","507","615473","0.0-1.0-697.0","0","0","65777","","null","","","null","77","","NaN","","","","","","","","","","","","","",""
"","response","","html-keyboard-response","508","616000","0.0-1.0-698.0-0.0","0","0","65777","","526","","","75","77","","","2","77","training","adjacent","BC","2","3","O.jpg","Q.jpg","1","1","1","",""
"","feedback","","html-keyboard-response","509","617002","0.0-1.0-699.0-0.0","0","0","65777","","null","","","null","77","","","","","","","","","","","","","","","",""
"","ITI","","html-keyboard-response","510","618005","0.0-1.0-702.0","0","0","65777","","null","","","null","77","","","","","","","","","","","","","","","NaN",""
"","S1","","html-keyboard-response","511","618158","0.0-1.0-704.0","0","0","65777","","null","","","null","78","","","","","","","","","","","","","","","",""
"","ISI","","html-keyboard-response","512","620159","0.0-1.0-705.0","0","0","65777","","null","","","null","78","NaN","","","","","","","","","","","","","","",""
"","S2","","html-keyboard-response","513","620312","0.0-1.0-706.0","0","0","65777","","null","","","null","78","","NaN","","","","","","","","","","","","","",""
"","response","","html-keyboard-response","514","620976","0.0-1.0-707.0-0.0","0","0","65777","","662","","","68","78","","","2","78","training","adjacent","BA","2","1","O.jpg","N.jpg","0","0","1","",""
"","feedback","","html-keyboard-response","515","621978","0.0-1.0-708.0-0.0","0","0","65777","","null","","","null","78","","","","","","","","","","","","","","","",""
"","ITI","","html-keyboard-response","516","622981","0.0-1.0-711.0","0","0","65777","","null","","","null","78","","","","","","","","","","","","","","","NaN",""
"","S1","","html-keyboard-response","517","623134","0.0-1.0-713.0","0","0","65777","","null","","","null","79","","","","","","","","","","","","","","","",""
"","ISI","","html-keyboard-response","518","625136","0.0-1.0-714.0","0","0","65777","","null","","","null","79","NaN","","","","","","","","","","","","","","",""
"","S2","","html-keyboard-response","519","625288","0.0-1.0-715.0","0","0","65777","","null","","","null","79","","NaN","","","","","","","","","","","","","",""
"","response","","html-keyboard-response","520","625736","0.0-1.0-716.0-0.0","0","0","65777","","447","","","68","79","","","2","79","training","adjacent","DC","4","3","P.jpg","Q.jpg","0","0","1","",""
"","feedback","","html-keyboard-response","521","626737","0.0-1.0-717.0-0.0","0","0","65777","","null","","","null","79","","","","","","","","","","","","","","","",""
"","ITI","","html-keyboard-response","522","627740","0.0-1.0-720.0","0","0","65777","","null","","","null","79","","","","","","","","","","","","","","","NaN",""
"","S1","","html-keyboard-response","523","627893","0.0-1.0-722.0","0","0","65777","","null","","","null","80","","","","","","","","","","","","","","","",""
"","ISI","","html-keyboard-response","524","629895","0.0-1.0-723.0","0","0","65777","","null","","","null","80","NaN","","","","","","","","","","","","","","",""
"","S2","","html-keyboard-response","525","630047","0.0-1.0-724.0","0","0","65777","","null","","","null","80","","NaN","","","","","","","","","","","","","",""
"","response","","html-keyboard-response","526","630407","0.0-1.0-725.0-0.0","0","0","65777","","358","","","75","80","","","2","80","training","adjacent","BC","2","3","O.jpg","Q.jpg","1","1","1","",""
"","feedback","","html-keyboard-response","527","631409","0.0-1.0-726.0-0.0","0","0","65777","","null","","","null","80","","","","","","","","","","","","","","","",""
"","ITI","","html-keyboard-response","528","632410","0.0-1.0-729.0","0","0","65777","","null","","","null","80","","","","","","","","","","","","","","","NaN",""
"","S1","","html-keyboard-response","529","632562","0.0-1.0-731.0","0","0","65777","","null","","","null","81","","","","","","","","","","","","","","","",""
"","ISI","","html-keyboard-response","530","634563","0.0-1.0-732.0","0","0","65777","","null","","","null","81","NaN","","","","","","","","","","","","","","",""
"","S2","","html-keyboard-response","531","634716","0.0-1.0-733.0","0","0","65777","","null","","","null","81","","NaN","","","","","","","","","","","","","",""
"","response","","html-keyboard-response","532","635968","0.0-1.0-734.0-0.0","0","0","65777","","1250","","","68","81","","","2","81","training","adjacent","ED","5","4","M.jpg","P.jpg","0","0","1","",""
"","feedback","","html-keyboard-response","533","636971","0.0-1.0-735.0-0.0","0","0","65777","","null","","","null","81","","","","","","","","","","","","","","","",""
"","ITI","","html-keyboard-response","534","637974","0.0-1.0-738.0","0","0","65777","","null","","","null","81","","","","","","","","","","","","","","","NaN",""
"","S1","","html-keyboard-response","535","638126","0.0-1.0-740.0","0","0","65777","","null","","","null","82","","","","","","","","","","","","","","","",""
"","ISI","","html-keyboard-response","536","640129","0.0-1.0-741.0","0","0","65777","","null","","","null","82","NaN","","","","","","","","","","","","","","",""
"","S2","","html-keyboard-response","537","640281","0.0-1.0-742.0","0","0","65777","","null","","","null","82","","NaN","","","","","","","","","","","","","",""
"","response","","html-keyboard-response","538","640920","0.0-1.0-743.0-0.0","0","0","65777","","638","","","68","82","","","2","82","training","adjacent","ED","5","4","M.jpg","P.jpg","0","0","1","",""
"","feedback","","html-keyboard-response","539","641923","0.0-1.0-744.0-0.0","0","0","65777","","null","","","null","82","","","","","","","","","","","","","","","",""
"","ITI","","html-keyboard-response","540","642924","0.0-1.0-747.0","0","0","65777","","null","","","null","82","","","","","","","","","","","","","","","NaN",""
"","S1","","html-keyboard-response","541","643077","0.0-1.0-749.0","0","0","65777","","null","","","null","83","","","","","","","","","","","","","","","",""
"","ISI","","html-keyboard-response","542","645078","0.0-1.0-750.0","0","0","65777","","null","","","null","83","NaN","","","","","","","","","","","","","","",""
"","S2","","html-keyboard-response","543","645231","0.0-1.0-751.0","0","0","65777","","null","","","null","83","","NaN","","","","","","","","","","","","","",""
"","response","","html-keyboard-response","544","645447","0.0-1.0-752.0-0.0","0","0","65777","","215","","","75","83","","","2","83","training","adjacent","AB","1","2","N.jpg","O.jpg","1","1","1","",""
"","feedback","","html-keyboard-response","545","646450","0.0-1.0-753.0-0.0","0","0","65777","","null","","","null","83","","","","","","","","","","","","","","","",""
"","ITI","","html-keyboard-response","546","647452","0.0-1.0-756.0","0","0","65777","","null","","","null","83","","","","","","","","","","","","","","","NaN",""
"","S1","","html-keyboard-response","547","647605","0.0-1.0-758.0","0","0","65777","","null","","","null","84","","","","","","","","","","","","","","","",""
"","ISI","","html-keyboard-response","548","649607","0.0-1.0-759.0","0","0","65777","","null","","","null","84","NaN","","","","","","","","","","","","","","",""
"","S2","","html-keyboard-response","549","649759","0.0-1.0-760.0","0","0","65777","","null","","","null","84","","NaN","","","","","","","","","","","","","",""
"","response","","html-keyboard-response","550","650504","0.0-1.0-761.0-0.0","0","0","65777","","743","","","75","84","","","2","84","training","adjacent","DE","4","5","P.jpg","M.jpg","1","1","1","",""
"","feedback","","html-keyboard-response","551","651506","0.0-1.0-762.0-0.0","0","0","65777","","null","","","null","84","","","","","","","","","","","","","","","",""
"","ITI","","html-keyboard-response","552","652508","0.0-1.0-765.0","0","0","65777","","null","","","null","84","","","","","","","","","","","","","","","NaN",""
"","S1","","html-keyboard-response","553","652660","0.0-1.0-767.0","0","0","65777","","null","","","null","85","","","","","","","","","","","","","","","",""
"","ISI","","html-keyboard-response","554","654662","0.0-1.0-768.0","0","0","65777","","null","","","null","85","NaN","","","","","","","","","","","","","","",""
"","S2","","html-keyboard-response","555","654813","0.0-1.0-769.0","0","0","65777","","null","","","null","85","","NaN","","","","","","","","","","","","","",""
"","response","","html-keyboard-response","556","655760","0.0-1.0-770.0-0.0","0","0","65777","","945","","","75","85","","","2","85","training","adjacent","CD","3","4","Q.jpg","P.jpg","1","1","1","",""
"","feedback","","html-keyboard-response","557","656762","0.0-1.0-771.0-0.0","0","0","65777","","null","","","null","85","","","","","","","","","","","","","","","",""
"","ITI","","html-keyboard-response","558","657763","0.0-1.0-774.0","0","0","65777","","null","","","null","85","","","","","","","","","","","","","","","NaN",""
"","S1","","html-keyboard-response","559","657915","0.0-1.0-776.0","0","0","65777","","null","","","null","86","","","","","","","","","","","","","","","",""
"","ISI","","html-keyboard-response","560","659917","0.0-1.0-777.0","0","0","65777","","null","","","null","86","NaN","","","","","","","","","","","","","","",""
"","S2","","html-keyboard-response","561","660068","0.0-1.0-778.0","0","0","65777","","null","","","null","86","","NaN","","","","","","","","","","","","","",""
"","response","","html-keyboard-response","562","660343","0.0-1.0-779.0-0.0","0","0","65777","","273","","","68","86","","","2","86","training","adjacent","GF","7","6","L.jpg","R.jpg","0","0","1","",""
"","feedback","","html-keyboard-response","563","661346","0.0-1.0-780.0-0.0","0","0","65777","","null","","","null","86","","","","","","","","","","","","","","","",""
"","ITI","","html-keyboard-response","564","662349","0.0-1.0-783.0","0","0","65777","","null","","","null","86","","","","","","","","","","","","","","","NaN",""
"","S1","","html-keyboard-response","565","662501","0.0-1.0-785.0","0","0","65777","","null","","","null","87","","","","","","","","","","","","","","","",""
"","ISI","","html-keyboard-response","566","664503","0.0-1.0-786.0","0","0","65777","","null","","","null","87","NaN","","","","","","","","","","","","","","",""
"","S2","","html-keyboard-response","567","664655","0.0-1.0-787.0","0","0","65777","","null","","","null","87","","NaN","","","","","","","","","","","","","",""
"","response","","html-keyboard-response","568","665496","0.0-1.0-788.0-0.0","0","0","65777","","839","","","68","87","","","2","87","training","adjacent","DC","4","3","P.jpg","Q.jpg","0","0","1","",""
"","feedback","","html-keyboard-response","569","666499","0.0-1.0-789.0-0.0","0","0","65777","","null","","","null","87","","","","","","","","","","","","","","","",""
"","ITI","","html-keyboard-response","570","667501","0.0-1.0-792.0","0","0","65777","","null","","","null","87","","","","","","","","","","","","","","","NaN",""
"","S1","","html-keyboard-response","571","667654","0.0-1.0-794.0","0","0","65777","","null","","","null","88","","","","","","","","","","","","","","","",""
"","ISI","","html-keyboard-response","572","669656","0.0-1.0-795.0","0","0","65777","","null","","","null","88","NaN","","","","","","","","","","","","","","",""
"","S2","","html-keyboard-response","573","669807","0.0-1.0-796.0","0","0","65777","","null","","","null","88","","NaN","","","","","","","","","","","","","",""
"","response","","html-keyboard-response","574","670456","0.0-1.0-797.0-0.0","0","0","65777","","647","","","75","88","","","2","88","training","adjacent","FG","6","7","R.jpg","L.jpg","1","1","1","",""
"","feedback","","html-keyboard-response","575","671458","0.0-1.0-798.0-0.0","0","0","65777","","null","","","null","88","","","","","","","","","","","","","","","",""
"","ITI","","html-keyboard-response","576","672460","0.0-1.0-801.0","0","0","65777","","null","","","null","88","","","","","","","","","","","","","","","NaN",""
"","S1","","html-keyboard-response","577","672612","0.0-1.0-803.0","0","0","65777","","null","","","null","89","","","","","","","","","","","","","","","",""
"","ISI","","html-keyboard-response","578","674614","0.0-1.0-804.0","0","0","65777","","null","","","null","89","NaN","","","","","","","","","","","","","","",""
"","S2","","html-keyboard-response","579","674766","0.0-1.0-805.0","0","0","65777","","null","","","null","89","","NaN","","","","","","","","","","","","","",""
"","response","","html-keyboard-response","580","675703","0.0-1.0-806.0-0.0","0","0","65777","","935","","","68","89","","","2","89","training","adjacent","ED","5","4","M.jpg","P.jpg","0","0","1","",""
