"success","ttype","start_time","trial_type","trial_index","time_elapsed","internal_node_id","warning","missed_checkup","PID","view_history","rt","responses","repeat_instructions","key_press","index","keypress_isi","keypress_S2","block","trial_num","phase","group_type","pair_type","S1_stim","S2_stim","S1_img","S2_img","S1_chosen","S1_higher","accuracy","keypress_iti","total_bonus_tally"
"true","full_screen","d04142023hr2107","fullscreen","0","128634","0.0-0.0","0","0","77220","","","","","","","","","","","","","","","","","","","","","",""
"","instructions","","instructions","1","214456","0.0-1.0-0.0-0.0","0","0","77220","[{""page_index"":0,""viewing_time"":21245},{""page_index"":1,""viewing_time"":27167},{""page_index"":2,""viewing_time"":34911},{""page_index"":3,""viewing_time"":2482}]","85808","","","","","","","","","","","","","","","","","","","",""
"","comprehension_check","","survey-multi-choice","2","246472","0.0-1.0-0.0-1.0","0","0","77220","","31975","{""Q0"":""True"",""Q1"":""D"",""Q2"":""Once the second image appears and while the screen 'MAKE A CHOICE' is shown"",""Q3"":""Green mark"",""Q4"":""either D or K""}","0","","","","","","","","","","","","","","","","","",""
"","start_exp","","html-keyboard-response","3","270165","0.0-1.0-1.0","0","0","77220","","23673","","","32","","","","","","","","","","","","","","","","",""
"","S1","","html-keyboard-response","4","270437","0.0-1.0-2.0","0","0","77220","","null","","","null","0","","","","","","","","","","","","","","","",""
"","ISI","","html-keyboard-response","5","271450","0.0-1.0-3.0","0","0","77220","","null","","","null","0","NaN","","","","","","","","","","","","","","",""
"","S2","","html-keyboard-response","6","271711","0.0-1.0-4.0","0","0","77220","","null","","","null","0","","NaN","","","","","","","","","","","","","",""
"","response","","html-keyboard-response","7","272236","0.0-1.0-5.0-0.0","0","0","77220","","518","","","68","0","","","1","0","training","adjacent","ED","5","4","Q.jpg","P.jpg","1","0","0","",""
"","feedback","","html-keyboard-response","8","273250","0.0-1.0-6.0-0.0","0","0","77220","","null","","","null","0","","","","","","","","","","","","","","","",""
"","time_out","","html-keyboard-response","9","275266","0.0-1.0-8.0-0.0","0","0","77220","","null","","","null","0","","","","","","","","","","","","","","","",""
"","ITI","","html-keyboard-response","10","276281","0.0-1.0-9.0","0","0","77220","","null","","","null","0","","","","","","","","","","","","","","","NaN",""
"","S1","","html-keyboard-response","11","276545","0.0-1.0-11.0","0","0","77220","","null","","","null","1","","","","","","","","","","","","","","","",""
"","ISI","","html-keyboard-response","12","277560","0.0-1.0-12.0","0","0","77220","","null","","","null","1","NaN","","","","","","","","","","","","","","",""
"","S2","","html-keyboard-response","13","277827","0.0-1.0-13.0","0","0","77220","","null","","","null","1","","NaN","","","","","","","","","","","","","",""
"","response","","html-keyboard-response","14","278378","0.0-1.0-14.0-0.0","0","0","77220","","542","","","75","1","","","1","1","training","adjacent","EF","5","6","Q.jpg","O.jpg","0","1","0","",""
"","feedback","","html-keyboard-response","15","279394","0.0-1.0-15.0-0.0","0","0","77220","","null","","","null","1","","","","","","","","","","","","","","","",""
"","time_out","","html-keyboard-response","16","281408","0.0-1.0-17.0-0.0","0","0","77220","","null","","","null","1","","","","","","","","","","","","","","","",""
"","ITI","","html-keyboard-response","17","282417","0.0-1.0-18.0","0","0","77220","","null","","","null","1","","","","","","","","","","","","","","","NaN",""
"","S1","","html-keyboard-response","18","282680","0.0-1.0-20.0","0","0","77220","","null","","","null","2","","","","","","","","","","","","","","","",""
"","ISI","","html-keyboard-response","19","283689","0.0-1.0-21.0","0","0","77220","","80","","","68","2","d","","","","","","","","","","","","","","",""
"","S2","","html-keyboard-response","20","283952","0.0-1.0-22.0","0","0","77220","","null","","","null","2","","NaN","","","","","","","","","","","","","",""
"","response","","html-keyboard-response","21","284447","0.0-1.0-23.0-0.0","0","0","77220","","486","","","68","2","","","1","2","training","adjacent","DC","4","3","P.jpg","L.jpg","1","0","0","",""
"","feedback","","html-keyboard-response","22","285462","0.0-1.0-24.0-0.0","0","0","77220","","null","","","null","2","","","","","","","","","","","","","","","",""
"","time_out","","html-keyboard-response","23","287471","0.0-1.0-26.0-0.0","0","0","77220","","null","","","null","2","","","","","","","","","","","","","","","",""
"","ITI","","html-keyboard-response","24","288485","0.0-1.0-27.0","0","0","77220","","null","","","null","2","","","","","","","","","","","","","","","NaN",""
"","S1","","html-keyboard-response","25","288751","0.0-1.0-29.0","0","0","77220","","null","","","null","3","","","","","","","","","","","","","","","",""
"","ISI","","html-keyboard-response","26","289760","0.0-1.0-30.0","0","0","77220","","null","","","null","3","NaN","","","","","","","","","","","","","","",""
"","S2","","html-keyboard-response","27","290022","0.0-1.0-31.0","0","0","77220","","null","","","null","3","","NaN","","","","","","","","","","","","","",""
"","response","","html-keyboard-response","28","290776","0.0-1.0-32.0-0.0","0","0","77220","","746","","","75","3","","","1","3","training","adjacent","BA","2","1","N.jpg","R.jpg","0","0","1","",""
"","feedback","","html-keyboard-response","29","291788","0.0-1.0-33.0-0.0","0","0","77220","","null","","","null","3","","","","","","","","","","","","","","","",""
"","ITI","","html-keyboard-response","30","292807","0.0-1.0-36.0","0","0","77220","","null","","","null","3","","","","","","","","","","","","","","","NaN",""
"","S1","","html-keyboard-response","31","293070","0.0-1.0-38.0","0","0","77220","","null","","","null","4","","","","","","","","","","","","","","","",""
"","ISI","","html-keyboard-response","32","294084","0.0-1.0-39.0","0","0","77220","","null","","","null","4","NaN","","","","","","","","","","","","","","",""
"","S2","","html-keyboard-response","33","294347","0.0-1.0-40.0","0","0","77220","","null","","","null","4","","NaN","","","","","","","","","","","","","",""
"","response","","html-keyboard-response","34","294960","0.0-1.0-41.0-0.0","0","0","77220","","606","","","75","4","","","1","4","training","adjacent","DC","4","3","P.jpg","L.jpg","0","0","1","",""
"","feedback","","html-keyboard-response","35","295975","0.0-1.0-42.0-0.0","0","0","77220","","null","","","null","4","","","","","","","","","","","","","","","",""
"","ITI","","html-keyboard-response","36","296990","0.0-1.0-45.0","0","0","77220","","null","","","null","4","","","","","","","","","","","","","","","NaN",""
"","S1","","html-keyboard-response","37","297254","0.0-1.0-47.0","0","0","77220","","null","","","null","5","","","","","","","","","","","","","","","",""
"","ISI","","html-keyboard-response","38","298269","0.0-1.0-48.0","0","0","77220","","null","","","null","5","NaN","","","","","","","","","","","","","","",""
"","S2","","html-keyboard-response","39","298533","0.0-1.0-49.0","0","0","77220","","null","","","null","5","","NaN","","","","","","","","","","","","","",""
"","response","","html-keyboard-response","40","299374","0.0-1.0-50.0-0.0","0","0","77220","","832","","","75","5","","","1","5","training","adjacent","CB","3","2","L.jpg","N.jpg","0","0","1","",""
"","feedback","","html-keyboard-response","41","300390","0.0-1.0-51.0-0.0","0","0","77220","","null","","","null","5","","","","","","","","","","","","","","","",""
"","ITI","","html-keyboard-response","42","301402","0.0-1.0-54.0","0","0","77220","","null","","","null","5","","","","","","","","","","","","","","","NaN",""
"","S1","","html-keyboard-response","43","301665","0.0-1.0-56.0","0","0","77220","","null","","","null","6","","","","","","","","","","","","","","","",""
"","ISI","","html-keyboard-response","44","302673","0.0-1.0-57.0","0","0","77220","","null","","","null","6","NaN","","","","","","","","","","","","","","",""
"","S2","","html-keyboard-response","45","302939","0.0-1.0-58.0","0","0","77220","","null","","","null","6","","NaN","","","","","","","","","","","","","",""
"","response","","html-keyboard-response","46","303032","0.0-1.0-59.0-0.0","0","0","77220","","85","","","75","6","","","1","6","training","adjacent","BA","2","1","N.jpg","R.jpg","0","0","1","",""
"","feedback","","html-keyboard-response","47","304047","0.0-1.0-60.0-0.0","0","0","77220","","null","","","null","6","","","","","","","","","","","","","","","",""
"","ITI","","html-keyboard-response","48","305056","0.0-1.0-63.0","0","0","77220","","null","","","null","6","","","","","","","","","","","","","","","NaN",""
"","S1","","html-keyboard-response","49","305321","0.0-1.0-65.0","0","0","77220","","null","","","null","7","","","","","","","","","","","","","","","",""
"","ISI","","html-keyboard-response","50","306331","0.0-1.0-66.0","0","0","77220","","null","","","null","7","NaN","","","","","","","","","","","","","","",""
"","S2","","html-keyboard-response","51","306599","0.0-1.0-67.0","0","0","77220","","null","","","null","7","","NaN","","","","","","","","","","","","","",""
"","response","","html-keyboard-response","52","307121","0.0-1.0-68.0-0.0","0","0","77220","","513","","","75","7","","","1","7","training","adjacent","FE","6","5","O.jpg","Q.jpg","0","0","1","",""
"","feedback","","html-keyboard-response","53","308139","0.0-1.0-69.0-0.0","0","0","77220","","null","","","null","7","","","","","","","","","","","","","","","",""
"","ITI","","html-keyboard-response","54","309152","0.0-1.0-72.0","0","0","77220","","null","","","null","7","","","","","","","","","","","","","","","NaN",""
"","S1","","html-keyboard-response","55","309413","0.0-1.0-74.0","0","0","77220","","null","","","null","8","","","","","","","","","","","","","","","",""
"","ISI","","html-keyboard-response","56","310429","0.0-1.0-75.0","0","0","77220","","null","","","null","8","NaN","","","","","","","","","","","","","","",""
"","S2","","html-keyboard-response","57","310692","0.0-1.0-76.0","0","0","77220","","null","","","null","8","","NaN","","","","","","","","","","","","","",""
"","response","","html-keyboard-response","58","311161","0.0-1.0-77.0-0.0","0","0","77220","","462","","","75","8","","","1","8","training","adjacent","DE","4","5","P.jpg","Q.jpg","0","1","0","",""
"","feedback","","html-keyboard-response","59","312173","0.0-1.0-78.0-0.0","0","0","77220","","null","","","null","8","","","","","","","","","","","","","","","",""
"","time_out","","html-keyboard-response","60","314189","0.0-1.0-80.0-0.0","0","0","77220","","null","","","null","8","","","","","","","","","","","","","","","",""
"","ITI","","html-keyboard-response","61","315206","0.0-1.0-81.0","0","0","77220","","null","","","null","8","","","","","","","","","","","","","","","NaN",""
"","S1","","html-keyboard-response","62","315471","0.0-1.0-83.0","0","0","77220","","null","","","null","9","","","","","","","","","","","","","","","",""
"","ISI","","html-keyboard-response","63","316487","0.0-1.0-84.0","0","0","77220","","null","","","null","9","NaN","","","","","","","","","","","","","","",""
"","S2","","html-keyboard-response","64","316750","0.0-1.0-85.0","0","0","77220","","null","","","null","9","","NaN","","","","","","","","","","","","","",""
"","response","","html-keyboard-response","65","317080","0.0-1.0-86.0-0.0","0","0","77220","","321","","","68","9","","","1","9","training","adjacent","EF","5","6","Q.jpg","O.jpg","1","1","1","",""
"","feedback","","html-keyboard-response","66","318093","0.0-1.0-87.0-0.0","0","0","77220","","null","","","null","9","","","","","","","","","","","","","","","",""
"","ITI","","html-keyboard-response","67","319110","0.0-1.0-90.0","0","0","77220","","null","","","null","9","","","","","","","","","","","","","","","NaN",""
"","S1","","html-keyboard-response","68","319372","0.0-1.0-92.0","0","0","77220","","null","","","null","10","","","","","","","","","","","","","","","",""
"","ISI","","html-keyboard-response","69","320382","0.0-1.0-93.0","0","0","77220","","null","","","null","10","NaN","","","","","","","","","","","","","","",""
"","S2","","html-keyboard-response","70","320646","0.0-1.0-94.0","0","0","77220","","null","","","null","10","","NaN","","","","","","","","","","","","","",""
"","response","","html-keyboard-response","71","320878","0.0-1.0-95.0-0.0","0","0","77220","","224","","","68","10","","","1","10","training","adjacent","CD","3","4","L.jpg","P.jpg","1","1","1","",""
"","feedback","","html-keyboard-response","72","321891","0.0-1.0-96.0-0.0","0","0","77220","","null","","","null","10","","","","","","","","","","","","","","","",""
"","ITI","","html-keyboard-response","73","322905","0.0-1.0-99.0","0","0","77220","","null","","","null","10","","","","","","","","","","","","","","","NaN",""
"","S1","","html-keyboard-response","74","323170","0.0-1.0-101.0","0","0","77220","","null","","","null","11","","","","","","","","","","","","","","","",""
"","ISI","","html-keyboard-response","75","324181","0.0-1.0-102.0","0","0","77220","","null","","","null","11","NaN","","","","","","","","","","","","","","",""
"","S2","","html-keyboard-response","76","324445","0.0-1.0-103.0","0","0","77220","","null","","","null","11","","NaN","","","","","","","","","","","","","",""
"","response","","html-keyboard-response","77","324766","0.0-1.0-104.0-0.0","0","0","77220","","313","","","68","11","","","1","11","training","adjacent","CB","3","2","L.jpg","N.jpg","1","0","0","",""
"","feedback","","html-keyboard-response","78","325780","0.0-1.0-105.0-0.0","0","0","77220","","null","","","null","11","","","","","","","","","","","","","","","",""
"","time_out","","html-keyboard-response","79","327789","0.0-1.0-107.0-0.0","0","0","77220","","null","","","null","11","","","","","","","","","","","","","","","",""
"","ITI","","html-keyboard-response","80","328800","0.0-1.0-108.0","0","0","77220","","null","","","null","11","","","","","","","","","","","","","","","NaN",""
"","S1","","html-keyboard-response","81","329062","0.0-1.0-110.0","0","0","77220","","null","","","null","12","","","","","","","","","","","","","","","",""
"","ISI","","html-keyboard-response","82","330075","0.0-1.0-111.0","0","0","77220","","null","","","null","12","NaN","","","","","","","","","","","","","","",""
"","S2","","html-keyboard-response","83","330338","0.0-1.0-112.0","0","0","77220","","null","","","null","12","","NaN","","","","","","","","","","","","","",""
"","response","","html-keyboard-response","84","330908","0.0-1.0-113.0-0.0","0","0","77220","","562","","","75","12","","","1","12","training","adjacent","CD","3","4","L.jpg","P.jpg","0","1","0","",""
"","feedback","","html-keyboard-response","85","331924","0.0-1.0-114.0-0.0","0","0","77220","","null","","","null","12","","","","","","","","","","","","","","","",""
"","time_out","","html-keyboard-response","86","333939","0.0-1.0-116.0-0.0","0","0","77220","","null","","","null","12","","","","","","","","","","","","","","","",""
"","ITI","","html-keyboard-response","87","334953","0.0-1.0-117.0","0","0","77220","","null","","","null","12","","","","","","","","","","","","","","","NaN",""
"","S1","","html-keyboard-response","88","335217","0.0-1.0-119.0","0","0","77220","","null","","","null","13","","","","","","","","","","","","","","","",""
"","ISI","","html-keyboard-response","89","336230","0.0-1.0-120.0","0","0","77220","","null","","","null","13","NaN","","","","","","","","","","","","","","",""
"","S2","","html-keyboard-response","90","336493","0.0-1.0-121.0","0","0","77220","","null","","","null","13","","NaN","","","","","","","","","","","","","",""
"","response","","html-keyboard-response","91","337018","0.0-1.0-122.0-0.0","0","0","77220","","515","","","75","13","","","1","13","training","adjacent","AB","1","2","R.jpg","N.jpg","0","1","0","",""
"","feedback","","html-keyboard-response","92","338033","0.0-1.0-123.0-0.0","0","0","77220","","null","","","null","13","","","","","","","","","","","","","","","",""
"","time_out","","html-keyboard-response","93","340043","0.0-1.0-125.0-0.0","0","0","77220","","null","","","null","13","","","","","","","","","","","","","","","",""
"","ITI","","html-keyboard-response","94","341053","0.0-1.0-126.0","0","0","77220","","null","","","null","13","","","","","","","","","","","","","","","NaN",""
"","S1","","html-keyboard-response","95","341319","0.0-1.0-128.0","0","0","77220","","null","","","null","14","","","","","","","","","","","","","","","",""
"","ISI","","html-keyboard-response","96","342333","0.0-1.0-129.0","0","0","77220","","null","","","null","14","NaN","","","","","","","","","","","","","","",""
"","S2","","html-keyboard-response","97","342594","0.0-1.0-130.0","0","0","77220","","null","","","null","14","","NaN","","","","","","","","","","","","","",""
"","response","","html-keyboard-response","98","343000","0.0-1.0-131.0-0.0","0","0","77220","","398","","","68","14","","","1","14","training","adjacent","FG","6","7","O.jpg","M.jpg","1","1","1","",""
"","feedback","","html-keyboard-response","99","344016","0.0-1.0-132.0-0.0","0","0","77220","","null","","","null","14","","","","","","","","","","","","","","","",""
"","ITI","","html-keyboard-response","100","345038","0.0-1.0-135.0","0","0","77220","","null","","","null","14","","","","","","","","","","","","","","","NaN",""
"","S1","","html-keyboard-response","101","345301","0.0-1.0-137.0","0","0","77220","","null","","","null","15","","","","","","","","","","","","","","","",""
"","ISI","","html-keyboard-response","102","346318","0.0-1.0-138.0","0","0","77220","","null","","","null","15","NaN","","","","","","","","","","","","","","",""
"","S2","","html-keyboard-response","103","346583","0.0-1.0-139.0","0","0","77220","","null","","","null","15","","NaN","","","","","","","","","","","","","",""
"","response","","html-keyboard-response","104","346738","0.0-1.0-140.0-0.0","0","0","77220","","148","","","68","15","","","1","15","training","adjacent","BC","2","3","N.jpg","L.jpg","1","1","1","",""
"","feedback","","html-keyboard-response","105","347758","0.0-1.0-141.0-0.0","0","0","77220","","null","","","null","15","","","","","","","","","","","","","","","",""
"","ITI","","html-keyboard-response","106","348773","0.0-1.0-144.0","0","0","77220","","null","","","null","15","","","","","","","","","","","","","","","NaN",""
"","S1","","html-keyboard-response","107","349035","0.0-1.0-146.0","0","0","77220","","null","","","null","16","","","","","","","","","","","","","","","",""
"","ISI","","html-keyboard-response","108","350043","0.0-1.0-147.0","0","0","77220","","null","","","null","16","NaN","","","","","","","","","","","","","","",""
"","S2","","html-keyboard-response","109","350306","0.0-1.0-148.0","0","0","77220","","null","","","null","16","","NaN","","","","","","","","","","","","","",""
"","response","","html-keyboard-response","110","350895","0.0-1.0-149.0-0.0","0","0","77220","","580","","","68","16","","","1","16","training","adjacent","DE","4","5","P.jpg","Q.jpg","1","1","1","",""
"","feedback","","html-keyboard-response","111","351906","0.0-1.0-150.0-0.0","0","0","77220","","null","","","null","16","","","","","","","","","","","","","","","",""
"","ITI","","html-keyboard-response","112","352931","0.0-1.0-153.0","0","0","77220","","null","","","null","16","","","","","","","","","","","","","","","NaN",""
"","S1","","html-keyboard-response","113","353192","0.0-1.0-155.0","0","0","77220","","null","","","null","17","","","","","","","","","","","","","","","",""
"","ISI","","html-keyboard-response","114","354201","0.0-1.0-156.0","0","0","77220","","null","","","null","17","NaN","","","","","","","","","","","","","","",""
"","S2","","html-keyboard-response","115","354466","0.0-1.0-157.0","0","0","77220","","null","","","null","17","","NaN","","","","","","","","","","","","","",""
"","response","","html-keyboard-response","116","354903","0.0-1.0-158.0-0.0","0","0","77220","","429","","","68","17","","","1","17","training","adjacent","EF","5","6","Q.jpg","O.jpg","1","1","1","",""
"","feedback","","html-keyboard-response","117","355918","0.0-1.0-159.0-0.0","0","0","77220","","null","","","null","17","","","","","","","","","","","","","","","",""
"","ITI","","html-keyboard-response","118","356931","0.0-1.0-162.0","0","0","77220","","null","","","null","17","","","","","","","","","","","","","","","NaN",""
"","S1","","html-keyboard-response","119","357192","0.0-1.0-164.0","0","0","77220","","null","","","null","18","","","","","","","","","","","","","","","",""
"","ISI","","html-keyboard-response","120","358201","0.0-1.0-165.0","0","0","77220","","null","","","null","18","NaN","","","","","","","","","","","","","","",""
"","S2","","html-keyboard-response","121","358466","0.0-1.0-166.0","0","0","77220","","null","","","null","18","","NaN","","","","","","","","","","","","","",""
"","response","","html-keyboard-response","122","358505","0.0-1.0-167.0-0.0","0","0","77220","","30","","","68","18","","","1","18","training","adjacent","BC","2","3","N.jpg","L.jpg","1","1","1","",""
"","feedback","","html-keyboard-response","123","359515","0.0-1.0-168.0-0.0","0","0","77220","","null","","","null","18","","","","","","","","","","","","","","","",""
"","ITI","","html-keyboard-response","124","360530","0.0-1.0-171.0","0","0","77220","","null","","","null","18","","","","","","","","","","","","","","","NaN",""
"","S1","","html-keyboard-response","125","360792","0.0-1.0-173.0","0","0","77220","","null","","","null","19","","","","","","","","","","","","","","","",""
"","ISI","","html-keyboard-response","126","361800","0.0-1.0-174.0","0","0","77220","","null","","","null","19","NaN","","","","","","","","","","","","","","",""
"","S2","","html-keyboard-response","127","362064","0.0-1.0-175.0","0","0","77220","","null","","","null","19","","NaN","","","","","","","","","","","","","",""
"","response","","html-keyboard-response","128","362398","0.0-1.0-176.0-0.0","0","0","77220","","326","","","68","19","","","1","19","training","adjacent","GF","7","6","M.jpg","O.jpg","1","0","0","",""
"","feedback","","html-keyboard-response","129","363407","0.0-1.0-177.0-0.0","0","0","77220","","null","","","null","19","","","","","","","","","","","","","","","",""
"","time_out","","html-keyboard-response","130","365416","0.0-1.0-179.0-0.0","0","0","77220","","null","","","null","19","","","","","","","","","","","","","","","",""
"","ITI","","html-keyboard-response","131","366424","0.0-1.0-180.0","0","0","77220","","null","","","null","19","","","","","","","","","","","","","","","NaN",""
"","S1","","html-keyboard-response","132","366689","0.0-1.0-182.0","0","0","77220","","null","","","null","20","","","","","","","","","","","","","","","",""
"","ISI","","html-keyboard-response","133","367702","0.0-1.0-183.0","0","0","77220","","null","","","null","20","NaN","","","","","","","","","","","","","","",""
"","S2","","html-keyboard-response","134","367964","0.0-1.0-184.0","0","0","77220","","null","","","null","20","","NaN","","","","","","","","","","","","","",""
"","response","","html-keyboard-response","135","368889","0.0-1.0-185.0-0.0","0","0","77220","","917","","","75","20","","","1","20","training","adjacent","AB","1","2","R.jpg","N.jpg","0","1","0","",""
"","feedback","","html-keyboard-response","136","369903","0.0-1.0-186.0-0.0","0","0","77220","","null","","","null","20","","","","","","","","","","","","","","","",""
"","time_out","","html-keyboard-response","137","371913","0.0-1.0-188.0-0.0","0","0","77220","","null","","","null","20","","","","","","","","","","","","","","","",""
"","ITI","","html-keyboard-response","138","372922","0.0-1.0-189.0","0","0","77220","","null","","","null","20","","","","","","","","","","","","","","","NaN",""
"","S1","","html-keyboard-response","139","373187","0.0-1.0-191.0","0","0","77220","","null","","","null","21","","","","","","","","","","","","","","","",""
"","ISI","","html-keyboard-response","140","374198","0.0-1.0-192.0","0","0","77220","","null","","","null","21","NaN","","","","","","","","","","","","","","",""
"","S2","","html-keyboard-response","141","374462","0.0-1.0-193.0","0","0","77220","","null","","","null","21","","NaN","","","","","","","","","","","","","",""
"","response","","html-keyboard-response","142","374998","0.0-1.0-194.0-0.0","0","0","77220","","527","","","68","21","","","1","21","training","adjacent","ED","5","4","Q.jpg","P.jpg","1","0","0","",""
"","feedback","","html-keyboard-response","143","376016","0.0-1.0-195.0-0.0","0","0","77220","","null","","","null","21","","","","","","","","","","","","","","","",""
"","time_out","","html-keyboard-response","144","378029","0.0-1.0-197.0-0.0","0","0","77220","","null","","","null","21","","","","","","","","","","","","","","","",""
"","ITI","","html-keyboard-response","145","379040","0.0-1.0-198.0","0","0","77220","","null","","","null","21","","","","","","","","","","","","","","","NaN",""
"","S1","","html-keyboard-response","146","379303","0.0-1.0-200.0","0","0","77220","","null","","","null","22","","","","","","","","","","","","","","","",""
"","ISI","","html-keyboard-response","147","380312","0.0-1.0-201.0","0","0","77220","","null","","","null","22","NaN","","","","","","","","","","","","","","",""
"","S2","","html-keyboard-response","148","380576","0.0-1.0-202.0","0","0","77220","","null","","","null","22","","NaN","","","","","","","","","","","","","",""
"","response","","html-keyboard-response","149","381337","0.0-1.0-203.0-0.0","0","0","77220","","753","","","75","22","","","1","22","training","adjacent","AB","1","2","R.jpg","N.jpg","0","1","0","",""
"","feedback","","html-keyboard-response","150","382354","0.0-1.0-204.0-0.0","0","0","77220","","null","","","null","22","","","","","","","","","","","","","","","",""
"","time_out","","html-keyboard-response","151","384365","0.0-1.0-206.0-0.0","0","0","77220","","null","","","null","22","","","","","","","","","","","","","","","",""
"","ITI","","html-keyboard-response","152","385379","0.0-1.0-207.0","0","0","77220","","null","","","null","22","","","","","","","","","","","","","","","NaN",""
"","S1","","html-keyboard-response","153","385641","0.0-1.0-209.0","0","0","77220","","null","","","null","23","","","","","","","","","","","","","","","",""
"","ISI","","html-keyboard-response","154","386656","0.0-1.0-210.0","0","0","77220","","null","","","null","23","NaN","","","","","","","","","","","","","","",""
"","S2","","html-keyboard-response","155","386918","0.0-1.0-211.0","0","0","77220","","null","","","null","23","","NaN","","","","","","","","","","","","","",""
"","response","","html-keyboard-response","156","387470","0.0-1.0-212.0-0.0","0","0","77220","","540","","","68","23","","","1","23","training","adjacent","CD","3","4","L.jpg","P.jpg","1","1","1","",""
"","feedback","","html-keyboard-response","157","388483","0.0-1.0-213.0-0.0","0","0","77220","","null","","","null","23","","","","","","","","","","","","","","","",""
"","ITI","","html-keyboard-response","158","389496","0.0-1.0-216.0","0","0","77220","","null","","","null","23","","","","","","","","","","","","","","","NaN",""
"","S1","","html-keyboard-response","159","389760","0.0-1.0-218.0","0","0","77220","","null","","","null","24","","","","","","","","","","","","","","","",""
"","ISI","","html-keyboard-response","160","390775","0.0-1.0-219.0","0","0","77220","","null","","","null","24","NaN","","","","","","","","","","","","","","",""
"","S2","","html-keyboard-response","161","391037","0.0-1.0-220.0","0","0","77220","","null","","","null","24","","NaN","","","","","","","","","","","","","",""
"","response","","html-keyboard-response","162","391378","0.0-1.0-221.0-0.0","0","0","77220","","334","","","68","24","","","1","24","training","adjacent","GF","7","6","M.jpg","O.jpg","1","0","0","",""
"","feedback","","html-keyboard-response","163","392393","0.0-1.0-222.0-0.0","0","0","77220","","null","","","null","24","","","","","","","","","","","","","","","",""
"","time_out","","html-keyboard-response","164","394406","0.0-1.0-224.0-0.0","0","0","77220","","null","","","null","24","","","","","","","","","","","","","","","",""
"","ITI","","html-keyboard-response","165","395416","0.0-1.0-225.0","0","0","77220","","null","","","null","24","","","","","","","","","","","","","","","NaN",""
"","S1","","html-keyboard-response","166","395682","0.0-1.0-227.0","0","0","77220","","null","","","null","25","","","","","","","","","","","","","","","",""
"","ISI","","html-keyboard-response","167","396697","0.0-1.0-228.0","0","0","77220","","null","","","null","25","NaN","","","","","","","","","","","","","","",""
"","S2","","html-keyboard-response","168","396960","0.0-1.0-229.0","0","0","77220","","null","","","null","25","","NaN","","","","","","","","","","","","","",""
"","response","","html-keyboard-response","169","398211","0.0-1.0-230.0-0.0","0","0","77220","","1244","","","75","25","","","1","25","training","adjacent","BC","2","3","N.jpg","L.jpg","0","1","0","",""
"","feedback","","html-keyboard-response","170","399222","0.0-1.0-231.0-0.0","0","0","77220","","null","","","null","25","","","","","","","","","","","","","","","",""
"","time_out","","html-keyboard-response","171","401236","0.0-1.0-233.0-0.0","0","0","77220","","null","","","null","25","","","","","","","","","","","","","","","",""
"","ITI","","html-keyboard-response","172","402245","0.0-1.0-234.0","0","0","77220","","null","","","null","25","","","","","","","","","","","","","","","NaN",""
"","S1","","html-keyboard-response","173","402514","0.0-1.0-236.0","0","0","77220","","null","","","null","26","","","","","","","","","","","","","","","",""
"","ISI","","html-keyboard-response","174","403529","0.0-1.0-237.0","0","0","77220","","null","","","null","26","NaN","","","","","","","","","","","","","","",""
"","S2","","html-keyboard-response","175","403790","0.0-1.0-238.0","0","0","77220","","null","","","null","26","","NaN","","","","","","","","","","","","","",""
"","response","","html-keyboard-response","176","404392","0.0-1.0-239.0-0.0","0","0","77220","","594","","","75","26","","","1","26","training","adjacent","FE","6","5","O.jpg","Q.jpg","0","0","1","",""
"","feedback","","html-keyboard-response","177","405410","0.0-1.0-240.0-0.0","0","0","77220","","null","","","null","26","","","","","","","","","","","","","","","",""
"","ITI","","html-keyboard-response","178","406426","0.0-1.0-243.0","0","0","77220","","null","","","null","26","","","","","","","","","","","","","","","NaN",""
"","S1","","html-keyboard-response","179","406689","0.0-1.0-245.0","0","0","77220","","null","","","null","27","","","","","","","","","","","","","","","",""
"","ISI","","html-keyboard-response","180","407699","0.0-1.0-246.0","0","0","77220","","null","","","null","27","NaN","","","","","","","","","","","","","","",""
"","S2","","html-keyboard-response","181","407963","0.0-1.0-247.0","0","0","77220","","null","","","null","27","","NaN","","","","","","","","","","","","","",""
"","response","","html-keyboard-response","182","408237","0.0-1.0-248.0-0.0","0","0","77220","","266","","","75","27","","","1","27","training","adjacent","BC","2","3","N.jpg","L.jpg","0","1","0","",""
"","feedback","","html-keyboard-response","183","409258","0.0-1.0-249.0-0.0","0","0","77220","","null","","","null","27","","","","","","","","","","","","","","","",""
"","time_out","","html-keyboard-response","184","411271","0.0-1.0-251.0-0.0","0","0","77220","","null","","","null","27","","","","","","","","","","","","","","","",""
"","ITI","","html-keyboard-response","185","412286","0.0-1.0-252.0","0","0","77220","","null","","","null","27","","","","","","","","","","","","","","","NaN",""
"","S1","","html-keyboard-response","186","412549","0.0-1.0-254.0","0","0","77220","","null","","","null","28","","","","","","","","","","","","","","","",""
"","ISI","","html-keyboard-response","187","413561","0.0-1.0-255.0","0","0","77220","","null","","","null","28","NaN","","","","","","","","","","","","","","",""
"","S2","","html-keyboard-response","188","413826","0.0-1.0-256.0","0","0","77220","","null","","","null","28","","NaN","","","","","","","","","","","","","",""
"","response","","html-keyboard-response","189","414227","0.0-1.0-257.0-0.0","0","0","77220","","393","","","68","28","","","1","28","training","adjacent","EF","5","6","Q.jpg","O.jpg","1","1","1","",""
"","feedback","","html-keyboard-response","190","415240","0.0-1.0-258.0-0.0","0","0","77220","","null","","","null","28","","","","","","","","","","","","","","","",""
"","ITI","","html-keyboard-response","191","416255","0.0-1.0-261.0","0","0","77220","","null","","","null","28","","","","","","","","","","","","","","","NaN",""
"","S1","","html-keyboard-response","192","416518","0.0-1.0-263.0","0","0","77220","","null","","","null","29","","","","","","","","","","","","","","","",""
"","ISI","","html-keyboard-response","193","417533","0.0-1.0-264.0","0","0","77220","","null","","","null","29","NaN","","","","","","","","","","","","","","",""
"","S2","","html-keyboard-response","194","417793","0.0-1.0-265.0","0","0","77220","","null","","","null","29","","NaN","","","","","","","","","","","","","",""
"","response","","html-keyboard-response","195","418345","0.0-1.0-266.0-0.0","0","0","77220","","544","","","68","29","","","1","29","training","adjacent","AB","1","2","R.jpg","N.jpg","1","1","1","",""
"","feedback","","html-keyboard-response","196","419358","0.0-1.0-267.0-0.0","0","0","77220","","null","","","null","29","","","","","","","","","","","","","","","",""
"","ITI","","html-keyboard-response","197","420374","0.0-1.0-270.0","0","0","77220","","null","","","null","29","","","","","","","","","","","","","","","NaN",""
"","S1","","html-keyboard-response","198","420633","0.0-1.0-272.0","0","0","77220","","null","","","null","30","","","","","","","","","","","","","","","",""
"","ISI","","html-keyboard-response","199","421649","0.0-1.0-273.0","0","0","77220","","243","","","68","30","d","","","","","","","","","","","","","","",""
"","S2","","html-keyboard-response","200","421913","0.0-1.0-274.0","0","0","77220","","null","","","null","30","","NaN","","","","","","","","","","","","","",""
"","response","","html-keyboard-response","201","422021","0.0-1.0-275.0-0.0","0","0","77220","","96","","","68","30","","","1","30","training","adjacent","FE","6","5","O.jpg","Q.jpg","1","0","0","",""
"","feedback","","html-keyboard-response","202","423038","0.0-1.0-276.0-0.0","0","0","77220","","null","","","null","30","","","","","","","","","","","","","","","",""
"","time_out","","html-keyboard-response","203","425056","0.0-1.0-278.0-0.0","0","0","77220","","null","","","null","30","","","","","","","","","","","","","","","",""
"","ITI","","html-keyboard-response","204","426072","0.0-1.0-279.0","0","0","77220","","null","","","null","30","","","","","","","","","","","","","","","NaN",""
"","S1","","html-keyboard-response","205","426331","0.0-1.0-281.0","0","0","77220","","null","","","null","31","","","","","","","","","","","","","","","",""
"","ISI","","html-keyboard-response","206","427342","0.0-1.0-282.0","0","0","77220","","null","","","null","31","NaN","","","","","","","","","","","","","","",""
"","S2","","html-keyboard-response","207","427605","0.0-1.0-283.0","0","0","77220","","null","","","null","31","","NaN","","","","","","","","","","","","","",""
"","response","","html-keyboard-response","208","428119","0.0-1.0-284.0-0.0","0","0","77220","","505","","","75","31","","","1","31","training","adjacent","BA","2","1","N.jpg","R.jpg","0","0","1","",""
"","feedback","","html-keyboard-response","209","429134","0.0-1.0-285.0-0.0","0","0","77220","","null","","","null","31","","","","","","","","","","","","","","","",""
"","ITI","","html-keyboard-response","210","430150","0.0-1.0-288.0","0","0","77220","","null","","","null","31","","","","","","","","","","","","","","","NaN",""
"","S1","","html-keyboard-response","211","430413","0.0-1.0-290.0","0","0","77220","","null","","","null","32","","","","","","","","","","","","","","","",""
"","ISI","","html-keyboard-response","212","431428","0.0-1.0-291.0","0","0","77220","","null","","","null","32","NaN","","","","","","","","","","","","","","",""
"","S2","","html-keyboard-response","213","431691","0.0-1.0-292.0","0","0","77220","","null","","","null","32","","NaN","","","","","","","","","","","","","",""
"","response","","html-keyboard-response","214","432333","0.0-1.0-293.0-0.0","0","0","77220","","634","","","75","32","","","1","32","training","adjacent","BA","2","1","N.jpg","R.jpg","0","0","1","",""
"","feedback","","html-keyboard-response","215","433349","0.0-1.0-294.0-0.0","0","0","77220","","null","","","null","32","","","","","","","","","","","","","","","",""
"","ITI","","html-keyboard-response","216","434365","0.0-1.0-297.0","0","0","77220","","null","","","null","32","","","","","","","","","","","","","","","NaN",""
"","S1","","html-keyboard-response","217","434630","0.0-1.0-299.0","0","0","77220","","null","","","null","33","","","","","","","","","","","","","","","",""
"","ISI","","html-keyboard-response","218","435639","0.0-1.0-300.0","0","0","77220","","null","","","null","33","NaN","","","","","","","","","","","","","","",""
"","S2","","html-keyboard-response","219","435903","0.0-1.0-301.0","0","0","77220","","null","","","null","33","","NaN","","","","","","","","","","","","","",""
"","response","","html-keyboard-response","220","436676","0.0-1.0-302.0-0.0","0","0","77220","","764","","","68","33","","","1","33","training","adjacent","DC","4","3","P.jpg","L.jpg","1","0","0","",""
"","feedback","","html-keyboard-response","221","437688","0.0-1.0-303.0-0.0","0","0","77220","","null","","","null","33","","","","","","","","","","","","","","","",""
"","time_out","","html-keyboard-response","222","439704","0.0-1.0-305.0-0.0","0","0","77220","","null","","","null","33","","","","","","","","","","","","","","","",""
"","ITI","","html-keyboard-response","223","440717","0.0-1.0-306.0","0","0","77220","","null","","","null","33","","","","","","","","","","","","","","","NaN",""
"","S1","","html-keyboard-response","224","440982","0.0-1.0-308.0","0","0","77220","","null","","","null","34","","","","","","","","","","","","","","","",""
"","ISI","","html-keyboard-response","225","441995","0.0-1.0-309.0","0","0","77220","","null","","","null","34","NaN","","","","","","","","","","","","","","",""
"","S2","","html-keyboard-response","226","442259","0.0-1.0-310.0","0","0","77220","","null","","","null","34","","NaN","","","","","","","","","","","","","",""
"","response","","html-keyboard-response","227","442976","0.0-1.0-311.0-0.0","0","0","77220","","708","","","75","34","","","1","34","training","adjacent","FG","6","7","O.jpg","M.jpg","0","1","0","",""
"","feedback","","html-keyboard-response","228","443988","0.0-1.0-312.0-0.0","0","0","77220","","null","","","null","34","","","","","","","","","","","","","","","",""
"","time_out","","html-keyboard-response","229","446003","0.0-1.0-314.0-0.0","0","0","77220","","null","","","null","34","","","","","","","","","","","","","","","",""
"","ITI","","html-keyboard-response","230","447010","0.0-1.0-315.0","0","0","77220","","null","","","null","34","","","","","","","","","","","","","","","NaN",""
"","S1","","html-keyboard-response","231","447273","0.0-1.0-317.0","0","0","77220","","null","","","null","35","","","","","","","","","","","","","","","",""
"","ISI","","html-keyboard-response","232","448286","0.0-1.0-318.0","0","0","77220","","null","","","null","35","NaN","","","","","","","","","","","","","","",""
"","S2","","html-keyboard-response","233","448549","0.0-1.0-319.0","0","0","77220","","null","","","null","35","","NaN","","","","","","","","","","","","","",""
"","response","","html-keyboard-response","234","449156","0.0-1.0-320.0-0.0","0","0","77220","","598","","","75","35","","","1","35","training","adjacent","CB","3","2","L.jpg","N.jpg","0","0","1","",""
"","feedback","","html-keyboard-response","235","450172","0.0-1.0-321.0-0.0","0","0","77220","","null","","","null","35","","","","","","","","","","","","","","","",""
"","ITI","","html-keyboard-response","236","451183","0.0-1.0-324.0","0","0","77220","","null","","","null","35","","","","","","","","","","","","","","","NaN",""
"","S1","","html-keyboard-response","237","451446","0.0-1.0-326.0","0","0","77220","","null","","","null","36","","","","","","","","","","","","","","","",""
"","ISI","","html-keyboard-response","238","452456","0.0-1.0-327.0","0","0","77220","","null","","","null","36","NaN","","","","","","","","","","","","","","",""
"","S2","","html-keyboard-response","239","452718","0.0-1.0-328.0","0","0","77220","","null","","","null","36","","NaN","","","","","","","","","","","","","",""
"","response","","html-keyboard-response","240","453487","0.0-1.0-329.0-0.0","0","0","77220","","761","","","75","36","","","1","36","training","adjacent","ED","5","4","Q.jpg","P.jpg","0","0","1","",""
"","feedback","","html-keyboard-response","241","454502","0.0-1.0-330.0-0.0","0","0","77220","","null","","","null","36","","","","","","","","","","","","","","","",""
"","ITI","","html-keyboard-response","242","455516","0.0-1.0-333.0","0","0","77220","","null","","","null","36","","","","","","","","","","","","","","","NaN",""
"","S1","","html-keyboard-response","243","455778","0.0-1.0-335.0","0","0","77220","","null","","","null","37","","","","","","","","","","","","","","","",""
"","ISI","","html-keyboard-response","244","456790","0.0-1.0-336.0","0","0","77220","","null","","","null","37","NaN","","","","","","","","","","","","","","",""
"","S2","","html-keyboard-response","245","457053","0.0-1.0-337.0","0","0","77220","","null","","","null","37","","NaN","","","","","","","","","","","","","",""
"","response","","html-keyboard-response","246","458389","0.0-1.0-338.0-0.0","0","0","77220","","1327","","","68","37","","","1","37","training","adjacent","CB","3","2","L.jpg","N.jpg","1","0","0","",""
"","feedback","","html-keyboard-response","247","459404","0.0-1.0-339.0-0.0","0","0","77220","","null","","","null","37","","","","","","","","","","","","","","","",""
"","time_out","","html-keyboard-response","248","461416","0.0-1.0-341.0-0.0","0","0","77220","","null","","","null","37","","","","","","","","","","","","","","","",""
"","ITI","","html-keyboard-response","249","462431","0.0-1.0-342.0","0","0","77220","","null","","","null","37","","","","","","","","","","","","","","","NaN",""
"","S1","","html-keyboard-response","250","462695","0.0-1.0-344.0","0","0","77220","","null","","","null","38","","","","","","","","","","","","","","","",""
"","ISI","","html-keyboard-response","251","463708","0.0-1.0-345.0","0","0","77220","","null","","","null","38","NaN","","","","","","","","","","","","","","",""
"","S2","","html-keyboard-response","252","463972","0.0-1.0-346.0","0","0","77220","","null","","","null","38","","NaN","","","","","","","","","","","","","",""
"","response","","html-keyboard-response","253","464557","0.0-1.0-347.0-0.0","0","0","77220","","577","","","68","38","","","1","38","training","adjacent","GF","7","6","M.jpg","O.jpg","1","0","0","",""
"","feedback","","html-keyboard-response","254","465572","0.0-1.0-348.0-0.0","0","0","77220","","null","","","null","38","","","","","","","","","","","","","","","",""
"","time_out","","html-keyboard-response","255","467588","0.0-1.0-350.0-0.0","0","0","77220","","null","","","null","38","","","","","","","","","","","","","","","",""
"","ITI","","html-keyboard-response","256","468603","0.0-1.0-351.0","0","0","77220","","null","","","null","38","","","","","","","","","","","","","","","NaN",""
"","S1","","html-keyboard-response","257","468869","0.0-1.0-353.0","0","0","77220","","null","","","null","39","","","","","","","","","","","","","","","",""
"","ISI","","html-keyboard-response","258","469876","0.0-1.0-354.0","0","0","77220","","null","","","null","39","NaN","","","","","","","","","","","","","","",""
"","S2","","html-keyboard-response","259","470138","0.0-1.0-355.0","0","0","77220","","null","","","null","39","","NaN","","","","","","","","","","","","","",""
"","response","","html-keyboard-response","260","470626","0.0-1.0-356.0-0.0","0","0","77220","","479","","","75","39","","","1","39","training","adjacent","GF","7","6","M.jpg","O.jpg","0","0","1","",""
"","feedback","","html-keyboard-response","261","471639","0.0-1.0-357.0-0.0","0","0","77220","","null","","","null","39","","","","","","","","","","","","","","","",""
"","ITI","","html-keyboard-response","262","472650","0.0-1.0-360.0","0","0","77220","","null","","","null","39","","","","","","","","","","","","","","","NaN",""
"","S1","","html-keyboard-response","263","472912","0.0-1.0-362.0","0","0","77220","","null","","","null","40","","","","","","","","","","","","","","","",""
"","ISI","","html-keyboard-response","264","473921","0.0-1.0-363.0","0","0","77220","","null","","","null","40","NaN","","","","","","","","","","","","","","",""
"","S2","","html-keyboard-response","265","474182","0.0-1.0-364.0","0","0","77220","","null","","","null","40","","NaN","","","","","","","","","","","","","",""
"","response","","html-keyboard-response","266","474782","0.0-1.0-365.0-0.0","0","0","77220","","592","","","68","40","","","1","40","training","adjacent","DC","4","3","P.jpg","L.jpg","1","0","0","",""
"","feedback","","html-keyboard-response","267","475794","0.0-1.0-366.0-0.0","0","0","77220","","null","","","null","40","","","","","","","","","","","","","","","",""
"","time_out","","html-keyboard-response","268","477806","0.0-1.0-368.0-0.0","0","0","77220","","null","","","null","40","","","","","","","","","","","","","","","",""
"","ITI","","html-keyboard-response","269","478818","0.0-1.0-369.0","0","0","77220","","null","","","null","40","","","","","","","","","","","","","","","NaN",""
"","S1","","html-keyboard-response","270","479082","0.0-1.0-371.0","0","0","77220","","null","","","null","41","","","","","","","","","","","","","","","",""
"","ISI","","html-keyboard-response","271","480096","0.0-1.0-372.0","0","0","77220","","null","","","null","41","NaN","","","","","","","","","","","","","","",""
"","S2","","html-keyboard-response","272","480358","0.0-1.0-373.0","0","0","77220","","null","","","null","41","","NaN","","","","","","","","","","","","","",""
"","response","","html-keyboard-response","273","480920","0.0-1.0-374.0-0.0","0","0","77220","","552","","","75","41","","","1","41","training","adjacent","FE","6","5","O.jpg","Q.jpg","0","0","1","",""
"","feedback","","html-keyboard-response","274","481935","0.0-1.0-375.0-0.0","0","0","77220","","null","","","null","41","","","","","","","","","","","","","","","",""
"","ITI","","html-keyboard-response","275","482951","0.0-1.0-378.0","0","0","77220","","null","","","null","41","","","","","","","","","","","","","","","NaN",""
"","S1","","html-keyboard-response","276","483215","0.0-1.0-380.0","0","0","77220","","null","","","null","42","","","","","","","","","","","","","","","",""
"","ISI","","html-keyboard-response","277","484224","0.0-1.0-381.0","0","0","77220","","null","","","null","42","NaN","","","","","","","","","","","","","","",""
"","S2","","html-keyboard-response","278","484488","0.0-1.0-382.0","0","0","77220","","null","","","null","42","","NaN","","","","","","","","","","","","","",""
"","response","","html-keyboard-response","279","484968","0.0-1.0-383.0-0.0","0","0","77220","","471","","","75","42","","","1","42","training","adjacent","FG","6","7","O.jpg","M.jpg","0","1","0","",""
"","feedback","","html-keyboard-response","280","485980","0.0-1.0-384.0-0.0","0","0","77220","","null","","","null","42","","","","","","","","","","","","","","","",""
"","time_out","","html-keyboard-response","281","487992","0.0-1.0-386.0-0.0","0","0","77220","","null","","","null","42","","","","","","","","","","","","","","","",""
"","ITI","","html-keyboard-response","282","489012","0.0-1.0-387.0","0","0","77220","","null","","","null","42","","","","","","","","","","","","","","","NaN",""
"","S1","","html-keyboard-response","283","489274","0.0-1.0-389.0","0","0","77220","","null","","","null","43","","","","","","","","","","","","","","","",""
"","ISI","","html-keyboard-response","284","490288","0.0-1.0-390.0","0","0","77220","","null","","","null","43","NaN","","","","","","","","","","","","","","",""
"","S2","","html-keyboard-response","285","490556","0.0-1.0-391.0","0","0","77220","","null","","","null","43","","NaN","","","","","","","","","","","","","",""
"","response","","html-keyboard-response","286","491083","0.0-1.0-392.0-0.0","0","0","77220","","519","","","75","43","","","1","43","training","adjacent","DE","4","5","P.jpg","Q.jpg","0","1","0","",""
"","feedback","","html-keyboard-response","287","492096","0.0-1.0-393.0-0.0","0","0","77220","","null","","","null","43","","","","","","","","","","","","","","","",""
"","time_out","","html-keyboard-response","288","494111","0.0-1.0-395.0-0.0","0","0","77220","","null","","","null","43","","","","","","","","","","","","","","","",""
"","ITI","","html-keyboard-response","289","495126","0.0-1.0-396.0","0","0","77220","","null","","","null","43","","","","","","","","","","","","","","","NaN",""
"","S1","","html-keyboard-response","290","495390","0.0-1.0-398.0","0","0","77220","","null","","","null","44","","","","","","","","","","","","","","","",""
"","ISI","","html-keyboard-response","291","496402","0.0-1.0-399.0","0","0","77220","","null","","","null","44","NaN","","","","","","","","","","","","","","",""
"","S2","","html-keyboard-response","292","496665","0.0-1.0-400.0","0","0","77220","","null","","","null","44","","NaN","","","","","","","","","","","","","",""
"","response","","html-keyboard-response","293","497308","0.0-1.0-401.0-0.0","0","0","77220","","634","","","75","44","","","1","44","training","adjacent","DE","4","5","P.jpg","Q.jpg","0","1","0","",""
"","feedback","","html-keyboard-response","294","498327","0.0-1.0-402.0-0.0","0","0","77220","","null","","","null","44","","","","","","","","","","","","","","","",""
"","time_out","","html-keyboard-response","295","500345","0.0-1.0-404.0-0.0","0","0","77220","","null","","","null","44","","","","","","","","","","","","","","","",""
"","ITI","","html-keyboard-response","296","501356","0.0-1.0-405.0","0","0","77220","","null","","","null","44","","","","","","","","","","","","","","","NaN",""
"","S1","","html-keyboard-response","297","501620","0.0-1.0-407.0","0","0","77220","","null","","","null","45","","","","","","","","","","","","","","","",""
"","ISI","","html-keyboard-response","298","502633","0.0-1.0-408.0","0","0","77220","","null","","","null","45","NaN","","","","","","","","","","","","","","",""
"","S2","","html-keyboard-response","299","502896","0.0-1.0-409.0","0","0","77220","","null","","","null","45","","NaN","","","","","","","","","","","","","",""
"","response","","html-keyboard-response","300","503659","0.0-1.0-410.0-0.0","0","0","77220","","754","","","68","45","","","1","45","training","adjacent","ED","5","4","Q.jpg","P.jpg","1","0","0","",""
"","feedback","","html-keyboard-response","301","504676","0.0-1.0-411.0-0.0","0","0","77220","","null","","","null","45","","","","","","","","","","","","","","","",""
"","time_out","","html-keyboard-response","302","506689","0.0-1.0-413.0-0.0","0","0","77220","","null","","","null","45","","","","","","","","","","","","","","","",""
"","ITI","","html-keyboard-response","303","507702","0.0-1.0-414.0","0","0","77220","","null","","","null","45","","","","","","","","","","","","","","","NaN",""
"","S1","","html-keyboard-response","304","507965","0.0-1.0-416.0","0","0","77220","","null","","","null","46","","","","","","","","","","","","","","","",""
"","ISI","","html-keyboard-response","305","508976","0.0-1.0-417.0","0","0","77220","","null","","","null","46","NaN","","","","","","","","","","","","","","",""
"","S2","","html-keyboard-response","306","509240","0.0-1.0-418.0","0","0","77220","","null","","","null","46","","NaN","","","","","","","","","","","","","",""
"","response","","html-keyboard-response","307","509700","0.0-1.0-419.0-0.0","0","0","77220","","451","","","75","46","","","1","46","training","adjacent","CD","3","4","L.jpg","P.jpg","0","1","0","",""
"","feedback","","html-keyboard-response","308","510711","0.0-1.0-420.0-0.0","0","0","77220","","null","","","null","46","","","","","","","","","","","","","","","",""
"","time_out","","html-keyboard-response","309","512724","0.0-1.0-422.0-0.0","0","0","77220","","null","","","null","46","","","","","","","","","","","","","","","",""
"","ITI","","html-keyboard-response","310","513735","0.0-1.0-423.0","0","0","77220","","null","","","null","46","","","","","","","","","","","","","","","NaN",""
"","S1","","html-keyboard-response","311","513998","0.0-1.0-425.0","0","0","77220","","null","","","null","47","","","","","","","","","","","","","","","",""
"","ISI","","html-keyboard-response","312","515008","0.0-1.0-426.0","0","0","77220","","null","","","null","47","NaN","","","","","","","","","","","","","","",""
"","S2","","html-keyboard-response","313","515272","0.0-1.0-427.0","0","0","77220","","null","","","null","47","","NaN","","","","","","","","","","","","","",""
"","response","","html-keyboard-response","314","515792","0.0-1.0-428.0-0.0","0","0","77220","","513","","","75","47","","","1","47","training","adjacent","FG","6","7","O.jpg","M.jpg","0","1","0","",""
"","feedback","","html-keyboard-response","315","516811","0.0-1.0-429.0-0.0","0","0","77220","","null","","","null","47","","","","","","","","","","","","","","","",""
"","time_out","","html-keyboard-response","316","518824","0.0-1.0-431.0-0.0","0","0","77220","","null","","","null","47","","","","","","","","","","","","","","","",""
"","ITI","","html-keyboard-response","317","519834","0.0-1.0-432.0","0","0","77220","","null","","","null","47","","","","","","","","","","","","","","","NaN",""
"","block_over","","html-keyboard-response","318","540911","0.0-1.0-433.0-0.0","0","0","77220","","21065","","","32","47","","","","","","","","","","","","","","","",""
"","S1","","html-keyboard-response","319","541171","0.0-1.0-434.0","0","0","77220","","null","","","null","48","","","","","","","","","","","","","","","",""
"","ISI","","html-keyboard-response","320","542184","0.0-1.0-435.0","0","0","77220","","null","","","null","48","NaN","","","","","","","","","","","","","","",""
"","S2","","html-keyboard-response","321","542450","0.0-1.0-436.0","0","0","77220","","null","","","null","48","","NaN","","","","","","","","","","","","","",""
"","response","","html-keyboard-response","322","542870","0.0-1.0-437.0-0.0","0","0","77220","","411","","","68","48","","","2","48","training","adjacent","GF","7","6","M.jpg","O.jpg","1","0","0","",""
"","feedback","","html-keyboard-response","323","543881","0.0-1.0-438.0-0.0","0","0","77220","","null","","","null","48","","","","","","","","","","","","","","","",""
"","time_out","","html-keyboard-response","324","545892","0.0-1.0-440.0-0.0","0","0","77220","","null","","","null","48","","","","","","","","","","","","","","","",""
"","ITI","","html-keyboard-response","325","546910","0.0-1.0-441.0","0","0","77220","","null","","","null","48","","","","","","","","","","","","","","","NaN",""
"","S1","","html-keyboard-response","326","547171","0.0-1.0-443.0","0","0","77220","","null","","","null","49","","","","","","","","","","","","","","","",""
"","ISI","","html-keyboard-response","327","548179","0.0-1.0-444.0","0","0","77220","","null","","","null","49","NaN","","","","","","","","","","","","","","",""
"","S2","","html-keyboard-response","328","548444","0.0-1.0-445.0","0","0","77220","","null","","","null","49","","NaN","","","","","","","","","","","","","",""
"","response","","html-keyboard-response","329","548962","0.0-1.0-446.0-0.0","0","0","77220","","510","","","75","49","","","2","49","training","adjacent","EF","5","6","Q.jpg","O.jpg","0","1","0","",""
"","feedback","","html-keyboard-response","330","549976","0.0-1.0-447.0-0.0","0","0","77220","","null","","","null","49","","","","","","","","","","","","","","","",""
"","time_out","","html-keyboard-response","331","551984","0.0-1.0-449.0-0.0","0","0","77220","","null","","","null","49","","","","","","","","","","","","","","","",""
"","ITI","","html-keyboard-response","332","552996","0.0-1.0-450.0","0","0","77220","","null","","","null","49","","","","","","","","","","","","","","","NaN",""
"","S1","","html-keyboard-response","333","553261","0.0-1.0-452.0","0","0","77220","","null","","","null","50","","","","","","","","","","","","","","","",""
"","ISI","","html-keyboard-response","334","554276","0.0-1.0-453.0","0","0","77220","","null","","","null","50","NaN","","","","","","","","","","","","","","",""
"","S2","","html-keyboard-response","335","554537","0.0-1.0-454.0","0","0","77220","","null","","","null","50","","NaN","","","","","","","","","","","","","",""
"","response","","html-keyboard-response","336","554970","0.0-1.0-455.0-0.0","0","0","77220","","425","","","68","50","","","2","50","training","adjacent","CB","3","2","L.jpg","N.jpg","1","0","0","",""
"","feedback","","html-keyboard-response","337","555986","0.0-1.0-456.0-0.0","0","0","77220","","null","","","null","50","","","","","","","","","","","","","","","",""
"","time_out","","html-keyboard-response","338","558002","0.0-1.0-458.0-0.0","0","0","77220","","null","","","null","50","","","","","","","","","","","","","","","",""
"","ITI","","html-keyboard-response","339","559014","0.0-1.0-459.0","0","0","77220","","null","","","null","50","","","","","","","","","","","","","","","NaN",""
"","S1","","html-keyboard-response","340","559278","0.0-1.0-461.0","0","0","77220","","null","","","null","51","","","","","","","","","","","","","","","",""
"","ISI","","html-keyboard-response","341","560286","0.0-1.0-462.0","0","0","77220","","null","","","null","51","NaN","","","","","","","","","","","","","","",""
"","S2","","html-keyboard-response","342","560550","0.0-1.0-463.0","0","0","77220","","null","","","null","51","","NaN","","","","","","","","","","","","","",""
"","response","","html-keyboard-response","343","561139","0.0-1.0-464.0-0.0","0","0","77220","","580","","","68","51","","","2","51","training","adjacent","CD","3","4","L.jpg","P.jpg","1","1","1","",""
"","feedback","","html-keyboard-response","344","562151","0.0-1.0-465.0-0.0","0","0","77220","","null","","","null","51","","","","","","","","","","","","","","","",""
"","ITI","","html-keyboard-response","345","563170","0.0-1.0-468.0","0","0","77220","","null","","","null","51","","","","","","","","","","","","","","","NaN",""
"","S1","","html-keyboard-response","346","563435","0.0-1.0-470.0","0","0","77220","","null","","","null","52","","","","","","","","","","","","","","","",""
"","ISI","","html-keyboard-response","347","564445","0.0-1.0-471.0","0","0","77220","","null","","","null","52","NaN","","","","","","","","","","","","","","",""
"","S2","","html-keyboard-response","348","564708","0.0-1.0-472.0","0","0","77220","","null","","","null","52","","NaN","","","","","","","","","","","","","",""
"","response","","html-keyboard-response","349","565276","0.0-1.0-473.0-0.0","0","0","77220","","561","","","68","52","","","2","52","training","adjacent","BC","2","3","N.jpg","L.jpg","1","1","1","",""
"","feedback","","html-keyboard-response","350","566291","0.0-1.0-474.0-0.0","0","0","77220","","null","","","null","52","","","","","","","","","","","","","","","",""
"","ITI","","html-keyboard-response","351","567304","0.0-1.0-477.0","0","0","77220","","null","","","null","52","","","","","","","","","","","","","","","NaN",""
"","S1","","html-keyboard-response","352","567561","0.0-1.0-479.0","0","0","77220","","null","","","null","53","","","","","","","","","","","","","","","",""
"","ISI","","html-keyboard-response","353","568573","0.0-1.0-480.0","0","0","77220","","null","","","null","53","NaN","","","","","","","","","","","","","","",""
"","S2","","html-keyboard-response","354","568834","0.0-1.0-481.0","0","0","77220","","null","","","null","53","","NaN","","","","","","","","","","","","","",""
"","response","","html-keyboard-response","355","569365","0.0-1.0-482.0-0.0","0","0","77220","","522","","","68","53","","","2","53","training","adjacent","AB","1","2","R.jpg","N.jpg","1","1","1","",""
"","feedback","","html-keyboard-response","356","570376","0.0-1.0-483.0-0.0","0","0","77220","","null","","","null","53","","","","","","","","","","","","","","","",""
"","ITI","","html-keyboard-response","357","571388","0.0-1.0-486.0","0","0","77220","","null","","","null","53","","","","","","","","","","","","","","","NaN",""
"","S1","","html-keyboard-response","358","571650","0.0-1.0-488.0","0","0","77220","","null","","","null","54","","","","","","","","","","","","","","","",""
"","ISI","","html-keyboard-response","359","572659","0.0-1.0-489.0","0","0","77220","","null","","","null","54","NaN","","","","","","","","","","","","","","",""
"","S2","","html-keyboard-response","360","572923","0.0-1.0-490.0","0","0","77220","","null","","","null","54","","NaN","","","","","","","","","","","","","",""
"","response","","html-keyboard-response","361","573607","0.0-1.0-491.0-0.0","0","0","77220","","676","","","68","54","","","2","54","training","adjacent","CD","3","4","L.jpg","P.jpg","1","1","1","",""
"","feedback","","html-keyboard-response","362","574626","0.0-1.0-492.0-0.0","0","0","77220","","null","","","null","54","","","","","","","","","","","","","","","",""
"","ITI","","html-keyboard-response","363","575636","0.0-1.0-495.0","0","0","77220","","null","","","null","54","","","","","","","","","","","","","","","NaN",""
"","S1","","html-keyboard-response","364","575897","0.0-1.0-497.0","0","0","77220","","null","","","null","55","","","","","","","","","","","","","","","",""
"","ISI","","html-keyboard-response","365","576906","0.0-1.0-498.0","0","0","77220","","null","","","null","55","NaN","","","","","","","","","","","","","","",""
"","S2","","html-keyboard-response","366","577166","0.0-1.0-499.0","0","0","77220","","null","","","null","55","","NaN","","","","","","","","","","","","","",""
"","response","","html-keyboard-response","367","577736","0.0-1.0-500.0-0.0","0","0","77220","","561","","","68","55","","","2","55","training","adjacent","DE","4","5","P.jpg","Q.jpg","1","1","1","",""
"","feedback","","html-keyboard-response","368","578752","0.0-1.0-501.0-0.0","0","0","77220","","null","","","null","55","","","","","","","","","","","","","","","",""
"","ITI","","html-keyboard-response","369","579769","0.0-1.0-504.0","0","0","77220","","null","","","null","55","","","","","","","","","","","","","","","NaN",""
"","S1","","html-keyboard-response","370","580035","0.0-1.0-506.0","0","0","77220","","null","","","null","56","","","","","","","","","","","","","","","",""
"","ISI","","html-keyboard-response","371","581051","0.0-1.0-507.0","0","0","77220","","null","","","null","56","NaN","","","","","","","","","","","","","","",""
"","S2","","html-keyboard-response","372","581314","0.0-1.0-508.0","0","0","77220","","null","","","null","56","","NaN","","","","","","","","","","","","","",""
"","response","","html-keyboard-response","373","581892","0.0-1.0-509.0-0.0","0","0","77220","","569","","","75","56","","","2","56","training","adjacent","EF","5","6","Q.jpg","O.jpg","0","1","0","",""
"","feedback","","html-keyboard-response","374","582906","0.0-1.0-510.0-0.0","0","0","77220","","null","","","null","56","","","","","","","","","","","","","","","",""
"","time_out","","html-keyboard-response","375","584914","0.0-1.0-512.0-0.0","0","0","77220","","null","","","null","56","","","","","","","","","","","","","","","",""
"","ITI","","html-keyboard-response","376","585928","0.0-1.0-513.0","0","0","77220","","null","","","null","56","","","","","","","","","","","","","","","NaN",""
"","S1","","html-keyboard-response","377","586192","0.0-1.0-515.0","0","0","77220","","null","","","null","57","","","","","","","","","","","","","","","",""
"","ISI","","html-keyboard-response","378","587207","0.0-1.0-516.0","0","0","77220","","null","","","null","57","NaN","","","","","","","","","","","","","","",""
"","S2","","html-keyboard-response","379","587471","0.0-1.0-517.0","0","0","77220","","null","","","null","57","","NaN","","","","","","","","","","","","","",""
"","response","","html-keyboard-response","380","587917","0.0-1.0-518.0-0.0","0","0","77220","","437","","","68","57","","","2","57","training","adjacent","BA","2","1","N.jpg","R.jpg","1","0","0","",""
"","feedback","","html-keyboard-response","381","588943","0.0-1.0-519.0-0.0","0","0","77220","","null","","","null","57","","","","","","","","","","","","","","","",""
"","time_out","","html-keyboard-response","382","590955","0.0-1.0-521.0-0.0","0","0","77220","","null","","","null","57","","","","","","","","","","","","","","","",""
"","ITI","","html-keyboard-response","383","591970","0.0-1.0-522.0","0","0","77220","","null","","","null","57","","","","","","","","","","","","","","","NaN",""
"","S1","","html-keyboard-response","384","592232","0.0-1.0-524.0","0","0","77220","","null","","","null","58","","","","","","","","","","","","","","","",""
"","ISI","","html-keyboard-response","385","593247","0.0-1.0-525.0","0","0","77220","","null","","","null","58","NaN","","","","","","","","","","","","","","",""
"","S2","","html-keyboard-response","386","593511","0.0-1.0-526.0","0","0","77220","","null","","","null","58","","NaN","","","","","","","","","","","","","",""
"","response","","html-keyboard-response","387","593978","0.0-1.0-527.0-0.0","0","0","77220","","458","","","68","58","","","2","58","training","adjacent","CD","3","4","L.jpg","P.jpg","1","1","1","",""
"","feedback","","html-keyboard-response","388","594993","0.0-1.0-528.0-0.0","0","0","77220","","null","","","null","58","","","","","","","","","","","","","","","",""
"","ITI","","html-keyboard-response","389","596009","0.0-1.0-531.0","0","0","77220","","null","","","null","58","","","","","","","","","","","","","","","NaN",""
"","S1","","html-keyboard-response","390","596272","0.0-1.0-533.0","0","0","77220","","null","","","null","59","","","","","","","","","","","","","","","",""
"","ISI","","html-keyboard-response","391","597283","0.0-1.0-534.0","0","0","77220","","null","","","null","59","NaN","","","","","","","","","","","","","","",""
"","S2","","html-keyboard-response","392","597546","0.0-1.0-535.0","0","0","77220","","null","","","null","59","","NaN","","","","","","","","","","","","","",""
"","response","","html-keyboard-response","393","597989","0.0-1.0-536.0-0.0","0","0","77220","","436","","","68","59","","","2","59","training","adjacent","ED","5","4","Q.jpg","P.jpg","1","0","0","",""
"","feedback","","html-keyboard-response","394","599010","0.0-1.0-537.0-0.0","0","0","77220","","null","","","null","59","","","","","","","","","","","","","","","",""
"","time_out","","html-keyboard-response","395","601025","0.0-1.0-539.0-0.0","0","0","77220","","null","","","null","59","","","","","","","","","","","","","","","",""
"","ITI","","html-keyboard-response","396","602036","0.0-1.0-540.0","0","0","77220","","null","","","null","59","","","","","","","","","","","","","","","NaN",""
"","S1","","html-keyboard-response","397","602300","0.0-1.0-542.0","0","0","77220","","null","","","null","60","","","","","","","","","","","","","","","",""
"","ISI","","html-keyboard-response","398","603315","0.0-1.0-543.0","0","0","77220","","null","","","null","60","NaN","","","","","","","","","","","","","","",""
"","S2","","html-keyboard-response","399","603575","0.0-1.0-544.0","0","0","77220","","null","","","null","60","","NaN","","","","","","","","","","","","","",""
"","response","","html-keyboard-response","400","605235","0.0-1.0-545.0-0.0","0","0","77220","","1652","","","68","60","","","2","60","training","adjacent","GF","7","6","M.jpg","O.jpg","1","0","0","",""
"","feedback","","html-keyboard-response","401","606251","0.0-1.0-546.0-0.0","0","0","77220","","null","","","null","60","","","","","","","","","","","","","","","",""
"","time_out","","html-keyboard-response","402","608263","0.0-1.0-548.0-0.0","0","0","77220","","null","","","null","60","","","","","","","","","","","","","","","",""
"","ITI","","html-keyboard-response","403","609276","0.0-1.0-549.0","0","0","77220","","null","","","null","60","","","","","","","","","","","","","","","NaN",""
"","S1","","html-keyboard-response","404","609540","0.0-1.0-551.0","0","0","77220","","null","","","null","61","","","","","","","","","","","","","","","",""
"","ISI","","html-keyboard-response","405","610551","0.0-1.0-552.0","0","0","77220","","null","","","null","61","NaN","","","","","","","","","","","","","","",""
"","S2","","html-keyboard-response","406","610813","0.0-1.0-553.0","0","0","77220","","null","","","null","61","","NaN","","","","","","","","","","","","","",""
"","response","","html-keyboard-response","407","611585","0.0-1.0-554.0-0.0","0","0","77220","","764","","","75","61","","","2","61","training","adjacent","FE","6","5","O.jpg","Q.jpg","0","0","1","",""
"","feedback","","html-keyboard-response","408","612599","0.0-1.0-555.0-0.0","0","0","77220","","null","","","null","61","","","","","","","","","","","","","","","",""
"","ITI","","html-keyboard-response","409","613614","0.0-1.0-558.0","0","0","77220","","null","","","null","61","","","","","","","","","","","","","","","NaN",""
"","S1","","html-keyboard-response","410","613881","0.0-1.0-560.0","0","0","77220","","null","","","null","62","","","","","","","","","","","","","","","",""
"","ISI","","html-keyboard-response","411","614892","0.0-1.0-561.0","0","0","77220","","null","","","null","62","NaN","","","","","","","","","","","","","","",""
"","S2","","html-keyboard-response","412","615163","0.0-1.0-562.0","0","0","77220","","null","","","null","62","","NaN","","","","","","","","","","","","","",""
"","response","","html-keyboard-response","413","616375","0.0-1.0-563.0-0.0","0","0","77220","","1203","","","75","62","","","2","62","training","adjacent","BA","2","1","N.jpg","R.jpg","0","0","1","",""
"","feedback","","html-keyboard-response","414","617386","0.0-1.0-564.0-0.0","0","0","77220","","null","","","null","62","","","","","","","","","","","","","","","",""
"","ITI","","html-keyboard-response","415","618406","0.0-1.0-567.0","0","0","77220","","null","","","null","62","","","","","","","","","","","","","","","NaN",""
"","S1","","html-keyboard-response","416","618666","0.0-1.0-569.0","0","0","77220","","null","","","null","63","","","","","","","","","","","","","","","",""
"","ISI","","html-keyboard-response","417","619680","0.0-1.0-570.0","0","0","77220","","null","","","null","63","NaN","","","","","","","","","","","","","","",""
"","S2","","html-keyboard-response","418","619943","0.0-1.0-571.0","0","0","77220","","null","","","null","63","","NaN","","","","","","","","","","","","","",""
"","response","","html-keyboard-response","419","620983","0.0-1.0-572.0-0.0","0","0","77220","","1032","","","75","63","","","2","63","training","adjacent","ED","5","4","Q.jpg","P.jpg","0","0","1","",""
"","feedback","","html-keyboard-response","420","622007","0.0-1.0-573.0-0.0","0","0","77220","","null","","","null","63","","","","","","","","","","","","","","","",""
"","ITI","","html-keyboard-response","421","623021","0.0-1.0-576.0","0","0","77220","","null","","","null","63","","","","","","","","","","","","","","","NaN",""
"","S1","","html-keyboard-response","422","623284","0.0-1.0-578.0","0","0","77220","","null","","","null","64","","","","","","","","","","","","","","","",""
"","ISI","","html-keyboard-response","423","624299","0.0-1.0-579.0","0","0","77220","","null","","","null","64","NaN","","","","","","","","","","","","","","",""
"","S2","","html-keyboard-response","424","624561","0.0-1.0-580.0","0","0","77220","","null","","","null","64","","NaN","","","","","","","","","","","","","",""
"","response","","html-keyboard-response","425","625068","0.0-1.0-581.0-0.0","0","0","77220","","498","","","75","64","","","2","64","training","adjacent","DC","4","3","P.jpg","L.jpg","0","0","1","",""
"","feedback","","html-keyboard-response","426","626087","0.0-1.0-582.0-0.0","0","0","77220","","null","","","null","64","","","","","","","","","","","","","","","",""
"","ITI","","html-keyboard-response","427","627096","0.0-1.0-585.0","0","0","77220","","null","","","null","64","","","","","","","","","","","","","","","NaN",""
"","S1","","html-keyboard-response","428","627359","0.0-1.0-587.0","0","0","77220","","null","","","null","65","","","","","","","","","","","","","","","",""
"","ISI","","html-keyboard-response","429","628373","0.0-1.0-588.0","0","0","77220","","null","","","null","65","NaN","","","","","","","","","","","","","","",""
"","S2","","html-keyboard-response","430","628634","0.0-1.0-589.0","0","0","77220","","null","","","null","65","","NaN","","","","","","","","","","","","","",""
"","response","","html-keyboard-response","431","629166","0.0-1.0-590.0-0.0","0","0","77220","","523","","","75","65","","","2","65","training","adjacent","EF","5","6","Q.jpg","O.jpg","0","1","0","",""
"","feedback","","html-keyboard-response","432","630181","0.0-1.0-591.0-0.0","0","0","77220","","null","","","null","65","","","","","","","","","","","","","","","",""
"","time_out","","html-keyboard-response","433","632193","0.0-1.0-593.0-0.0","0","0","77220","","null","","","null","65","","","","","","","","","","","","","","","",""
"","ITI","","html-keyboard-response","434","633209","0.0-1.0-594.0","0","0","77220","","null","","","null","65","","","","","","","","","","","","","","","NaN",""
"","S1","","html-keyboard-response","435","633473","0.0-1.0-596.0","0","0","77220","","null","","","null","66","","","","","","","","","","","","","","","",""
"","ISI","","html-keyboard-response","436","634482","0.0-1.0-597.0","0","0","77220","","null","","","null","66","NaN","","","","","","","","","","","","","","",""
"","S2","","html-keyboard-response","437","634749","0.0-1.0-598.0","0","0","77220","","null","","","null","66","","NaN","","","","","","","","","","","","","",""
"","response","","html-keyboard-response","438","636233","0.0-1.0-599.0-0.0","0","0","77220","","1475","","","68","66","","","2","66","training","adjacent","DC","4","3","P.jpg","L.jpg","1","0","0","",""
"","feedback","","html-keyboard-response","439","637257","0.0-1.0-600.0-0.0","0","0","77220","","null","","","null","66","","","","","","","","","","","","","","","",""
"","time_out","","html-keyboard-response","440","639275","0.0-1.0-602.0-0.0","0","0","77220","","null","","","null","66","","","","","","","","","","","","","","","",""
"","ITI","","html-keyboard-response","441","640291","0.0-1.0-603.0","0","0","77220","","null","","","null","66","","","","","","","","","","","","","","","NaN",""
"","S1","","html-keyboard-response","442","640556","0.0-1.0-605.0","0","0","77220","","null","","","null","67","","","","","","","","","","","","","","","",""
"","ISI","","html-keyboard-response","443","641565","0.0-1.0-606.0","0","0","77220","","null","","","null","67","NaN","","","","","","","","","","","","","","",""
"","S2","","html-keyboard-response","444","641828","0.0-1.0-607.0","0","0","77220","","null","","","null","67","","NaN","","","","","","","","","","","","","",""
"","response","","html-keyboard-response","445","642867","0.0-1.0-608.0-0.0","0","0","77220","","1030","","","68","67","","","2","67","training","adjacent","DC","4","3","P.jpg","L.jpg","1","0","0","",""
"","feedback","","html-keyboard-response","446","643884","0.0-1.0-609.0-0.0","0","0","77220","","null","","","null","67","","","","","","","","","","","","","","","",""
"","time_out","","html-keyboard-response","447","645902","0.0-1.0-611.0-0.0","0","0","77220","","null","","","null","67","","","","","","","","","","","","","","","",""
"","ITI","","html-keyboard-response","448","646914","0.0-1.0-612.0","0","0","77220","","null","","","null","67","","","","","","","","","","","","","","","NaN",""
"","S1","","html-keyboard-response","449","647176","0.0-1.0-614.0","0","0","77220","","null","","","null","68","","","","","","","","","","","","","","","",""
"","ISI","","html-keyboard-response","450","648191","0.0-1.0-615.0","0","0","77220","","null","","","null","68","NaN","","","","","","","","","","","","","","",""
"","S2","","html-keyboard-response","451","648455","0.0-1.0-616.0","0","0","77220","","null","","","null","68","","NaN","","","","","","","","","","","","","",""
"","response","","html-keyboard-response","452","648637","0.0-1.0-617.0-0.0","0","0","77220","","173","","","75","68","","","2","68","training","adjacent","BC","2","3","N.jpg","L.jpg","0","1","0","",""
"","feedback","","html-keyboard-response","453","649650","0.0-1.0-618.0-0.0","0","0","77220","","null","","","null","68","","","","","","","","","","","","","","","",""
"","time_out","","html-keyboard-response","454","651672","0.0-1.0-620.0-0.0","0","0","77220","","null","","","null","68","","","","","","","","","","","","","","","",""
"","ITI","","html-keyboard-response","455","652684","0.0-1.0-621.0","0","0","77220","","null","","","null","68","","","","","","","","","","","","","","","NaN",""
"","S1","","html-keyboard-response","456","652947","0.0-1.0-623.0","0","0","77220","","null","","","null","69","","","","","","","","","","","","","","","",""
"","ISI","","html-keyboard-response","457","653958","0.0-1.0-624.0","0","0","77220","","null","","","null","69","NaN","","","","","","","","","","","","","","",""
"","S2","","html-keyboard-response","458","654224","0.0-1.0-625.0","0","0","77220","","null","","","null","69","","NaN","","","","","","","","","","","","","",""
"","response","","html-keyboard-response","459","654640","0.0-1.0-626.0-0.0","0","0","77220","","409","","","75","69","","","2","69","training","adjacent","CB","3","2","L.jpg","N.jpg","0","0","1","",""
"","feedback","","html-keyboard-response","460","655658","0.0-1.0-627.0-0.0","0","0","77220","","null","","","null","69","","","","","","","","","","","","","","","",""
"","ITI","","html-keyboard-response","461","656671","0.0-1.0-630.0","0","0","77220","","null","","","null","69","","","","","","","","","","","","","","","NaN",""
"","S1","","html-keyboard-response","462","656937","0.0-1.0-632.0","0","0","77220","","null","","","null","70","","","","","","","","","","","","","","","",""
"","ISI","","html-keyboard-response","463","657950","0.0-1.0-633.0","0","0","77220","","null","","","null","70","NaN","","","","","","","","","","","","","","",""
"","S2","","html-keyboard-response","464","658212","0.0-1.0-634.0","0","0","77220","","null","","","null","70","","NaN","","","","","","","","","","","","","",""
"","response","","html-keyboard-response","465","658735","0.0-1.0-635.0-0.0","0","0","77220","","516","","","75","70","","","2","70","training","adjacent","GF","7","6","M.jpg","O.jpg","0","0","1","",""
"","feedback","","html-keyboard-response","466","659746","0.0-1.0-636.0-0.0","0","0","77220","","null","","","null","70","","","","","","","","","","","","","","","",""
"","ITI","","html-keyboard-response","467","660758","0.0-1.0-639.0","0","0","77220","","null","","","null","70","","","","","","","","","","","","","","","NaN",""
"","S1","","html-keyboard-response","468","661018","0.0-1.0-641.0","0","0","77220","","null","","","null","71","","","","","","","","","","","","","","","",""
"","ISI","","html-keyboard-response","469","662033","0.0-1.0-642.0","0","0","77220","","null","","","null","71","NaN","","","","","","","","","","","","","","",""
"","S2","","html-keyboard-response","470","662296","0.0-1.0-643.0","0","0","77220","","null","","","null","71","","NaN","","","","","","","","","","","","","",""
"","response","","html-keyboard-response","471","663584","0.0-1.0-644.0-0.0","0","0","77220","","1277","","","75","71","","","2","71","training","adjacent","DC","4","3","P.jpg","L.jpg","0","0","1","",""
"","feedback","","html-keyboard-response","472","664597","0.0-1.0-645.0-0.0","0","0","77220","","null","","","null","71","","","","","","","","","","","","","","","",""
"","ITI","","html-keyboard-response","473","665622","0.0-1.0-648.0","0","0","77220","","null","","","null","71","","","","","","","","","","","","","","","NaN",""
"","S1","","html-keyboard-response","474","665884","0.0-1.0-650.0","0","0","77220","","null","","","null","72","","","","","","","","","","","","","","","",""
"","ISI","","html-keyboard-response","475","666893","0.0-1.0-651.0","0","0","77220","","null","","","null","72","NaN","","","","","","","","","","","","","","",""
"","S2","","html-keyboard-response","476","667156","0.0-1.0-652.0","0","0","77220","","null","","","null","72","","NaN","","","","","","","","","","","","","",""
"","response","","html-keyboard-response","477","667690","0.0-1.0-653.0-0.0","0","0","77220","","526","","","68","72","","","2","72","training","adjacent","BA","2","1","N.jpg","R.jpg","1","0","0","",""
"","feedback","","html-keyboard-response","478","668706","0.0-1.0-654.0-0.0","0","0","77220","","null","","","null","72","","","","","","","","","","","","","","","",""
"","time_out","","html-keyboard-response","479","670718","0.0-1.0-656.0-0.0","0","0","77220","","null","","","null","72","","","","","","","","","","","","","","","",""
"","ITI","","html-keyboard-response","480","671733","0.0-1.0-657.0","0","0","77220","","null","","","null","72","","","","","","","","","","","","","","","NaN",""
"","S1","","html-keyboard-response","481","671995","0.0-1.0-659.0","0","0","77220","","null","","","null","73","","","","","","","","","","","","","","","",""
"","ISI","","html-keyboard-response","482","673006","0.0-1.0-660.0","0","0","77220","","null","","","null","73","NaN","","","","","","","","","","","","","","",""
"","S2","","html-keyboard-response","483","673270","0.0-1.0-661.0","0","0","77220","","null","","","null","73","","NaN","","","","","","","","","","","","","",""
"","response","","html-keyboard-response","484","673834","0.0-1.0-662.0-0.0","0","0","77220","","556","","","68","73","","","2","73","training","adjacent","DE","4","5","P.jpg","Q.jpg","1","1","1","",""
"","feedback","","html-keyboard-response","485","674851","0.0-1.0-663.0-0.0","0","0","77220","","null","","","null","73","","","","","","","","","","","","","","","",""
"","ITI","","html-keyboard-response","486","675873","0.0-1.0-666.0","0","0","77220","","null","","","null","73","","","","","","","","","","","","","","","NaN",""
"","S1","","html-keyboard-response","487","676136","0.0-1.0-668.0","0","0","77220","","null","","","null","74","","","","","","","","","","","","","","","",""
"","ISI","","html-keyboard-response","488","677148","0.0-1.0-669.0","0","0","77220","","null","","","null","74","NaN","","","","","","","","","","","","","","",""
"","S2","","html-keyboard-response","489","677411","0.0-1.0-670.0","0","0","77220","","null","","","null","74","","NaN","","","","","","","","","","","","","",""
"","response","","html-keyboard-response","490","677944","0.0-1.0-671.0-0.0","0","0","77220","","521","","","68","74","","","2","74","training","adjacent","CB","3","2","L.jpg","N.jpg","1","0","0","",""
"","feedback","","html-keyboard-response","491","678962","0.0-1.0-672.0-0.0","0","0","77220","","null","","","null","74","","","","","","","","","","","","","","","",""
"","time_out","","html-keyboard-response","492","680982","0.0-1.0-674.0-0.0","0","0","77220","","null","","","null","74","","","","","","","","","","","","","","","",""
"","ITI","","html-keyboard-response","493","681997","0.0-1.0-675.0","0","0","77220","","null","","","null","74","","","","","","","","","","","","","","","NaN",""
"","S1","","html-keyboard-response","494","682260","0.0-1.0-677.0","0","0","77220","","null","","","null","75","","","","","","","","","","","","","","","",""
"","ISI","","html-keyboard-response","495","683272","0.0-1.0-678.0","0","0","77220","","null","","","null","75","NaN","","","","","","","","","","","","","","",""
"","S2","","html-keyboard-response","496","683536","0.0-1.0-679.0","0","0","77220","","null","","","null","75","","NaN","","","","","","","","","","","","","",""
"","response","","html-keyboard-response","497","685299","0.0-1.0-680.0-0.0","0","0","77220","","null","","","null","75","","","2","75","training","adjacent","BC","2","3","N.jpg","L.jpg","NaN","1","0","",""
"","too_slow_prompt","","html-keyboard-response","498","686322","0.0-1.0-682.0-0.0","1","0","77220","","null","","","null","","","","","","","","","","","","","","","","",""
"","time_out","","html-keyboard-response","499","688336","0.0-1.0-683.0-0.0","0","0","77220","","null","","","null","75","","","","","","","","","","","","","","","",""
"","ITI","","html-keyboard-response","500","689356","0.0-1.0-684.0","0","0","77220","","null","","","null","75","","","","","","","","","","","","","","","NaN",""
"","S1","","html-keyboard-response","501","689620","0.0-1.0-686.0","0","0","77220","","null","","","null","76","","","","","","","","","","","","","","","",""
"","ISI","","html-keyboard-response","502","690633","0.0-1.0-687.0","0","0","77220","","null","","","null","76","NaN","","","","","","","","","","","","","","",""
"","S2","","html-keyboard-response","503","690896","0.0-1.0-688.0","0","0","77220","","null","","","null","76","","NaN","","","","","","","","","","","","","",""
"","response","","html-keyboard-response","504","691349","0.0-1.0-689.0-0.0","0","0","77220","","444","","","75","76","","","2","76","training","adjacent","BC","2","3","N.jpg","L.jpg","0","1","0","",""
"","feedback","","html-keyboard-response","505","692363","0.0-1.0-690.0-0.0","0","0","77220","","null","","","null","76","","","","","","","","","","","","","","","",""
"","time_out","","html-keyboard-response","506","694379","0.0-1.0-692.0-0.0","0","0","77220","","null","","","null","76","","","","","","","","","","","","","","","",""
"","ITI","","html-keyboard-response","507","695395","0.0-1.0-693.0","0","0","77220","","null","","","null","76","","","","","","","","","","","","","","","NaN",""
"","S1","","html-keyboard-response","508","695658","0.0-1.0-695.0","0","0","77220","","null","","","null","77","","","","","","","","","","","","","","","",""
"","ISI","","html-keyboard-response","509","696672","0.0-1.0-696.0","0","0","77220","","null","","","null","77","NaN","","","","","","","","","","","","","","",""
"","S2","","html-keyboard-response","510","696935","0.0-1.0-697.0","0","0","77220","","null","","","null","77","","NaN","","","","","","","","","","","","","",""
"","response","","html-keyboard-response","511","697396","0.0-1.0-698.0-0.0","0","0","77220","","453","","","68","77","","","2","77","training","adjacent","AB","1","2","R.jpg","N.jpg","1","1","1","",""
"","feedback","","html-keyboard-response","512","698411","0.0-1.0-699.0-0.0","0","0","77220","","null","","","null","77","","","","","","","","","","","","","","","",""
"","ITI","","html-keyboard-response","513","699424","0.0-1.0-702.0","0","0","77220","","null","","","null","77","","","","","","","","","","","","","","","NaN",""
"","S1","","html-keyboard-response","514","699688","0.0-1.0-704.0","0","0","77220","","null","","","null","78","","","","","","","","","","","","","","","",""
"","ISI","","html-keyboard-response","515","700698","0.0-1.0-705.0","0","0","77220","","null","","","null","78","NaN","","","","","","","","","","","","","","",""
"","S2","","html-keyboard-response","516","700963","0.0-1.0-706.0","0","0","77220","","null","","","null","78","","NaN","","","","","","","","","","","","","",""
"","response","","html-keyboard-response","517","701556","0.0-1.0-707.0-0.0","0","0","77220","","586","","","68","78","","","2","78","training","adjacent","CD","3","4","L.jpg","P.jpg","1","1","1","",""
"","feedback","","html-keyboard-response","518","702575","0.0-1.0-708.0-0.0","0","0","77220","","null","","","null","78","","","","","","","","","","","","","","","",""
"","ITI","","html-keyboard-response","519","703592","0.0-1.0-711.0","0","0","77220","","null","","","null","78","","","","","","","","","","","","","","","NaN",""
"","S1","","html-keyboard-response","520","703855","0.0-1.0-713.0","0","0","77220","","null","","","null","79","","","","","","","","","","","","","","","",""
"","ISI","","html-keyboard-response","521","704866","0.0-1.0-714.0","0","0","77220","","null","","","null","79","NaN","","","","","","","","","","","","","","",""
"","S2","","html-keyboard-response","522","705127","0.0-1.0-715.0","0","0","77220","","null","","","null","79","","NaN","","","","","","","","","","","","","",""
"","response","","html-keyboard-response","523","705592","0.0-1.0-716.0-0.0","0","0","77220","","456","","","68","79","","","2","79","training","adjacent","FG","6","7","O.jpg","M.jpg","1","1","1","",""
"","feedback","","html-keyboard-response","524","706609","0.0-1.0-717.0-0.0","0","0","77220","","null","","","null","79","","","","","","","","","","","","","","","",""
"","ITI","","html-keyboard-response","525","707622","0.0-1.0-720.0","0","0","77220","","null","","","null","79","","","","","","","","","","","","","","","NaN",""
"","S1","","html-keyboard-response","526","707884","0.0-1.0-722.0","0","0","77220","","null","","","null","80","","","","","","","","","","","","","","","",""
"","ISI","","html-keyboard-response","527","708897","0.0-1.0-723.0","0","0","77220","","null","","","null","80","NaN","","","","","","","","","","","","","","",""
"","S2","","html-keyboard-response","528","709160","0.0-1.0-724.0","0","0","77220","","null","","","null","80","","NaN","","","","","","","","","","","","","",""
"","response","","html-keyboard-response","529","709344","0.0-1.0-725.0-0.0","0","0","77220","","176","","","68","80","","","2","80","training","adjacent","DE","4","5","P.jpg","Q.jpg","1","1","1","",""
"","feedback","","html-keyboard-response","530","710368","0.0-1.0-726.0-0.0","0","0","77220","","null","","","null","80","","","","","","","","","","","","","","","",""
"","ITI","","html-keyboard-response","531","711382","0.0-1.0-729.0","0","0","77220","","null","","","null","80","","","","","","","","","","","","","","","NaN",""
"","S1","","html-keyboard-response","532","711644","0.0-1.0-731.0","0","0","77220","","null","","","null","81","","","","","","","","","","","","","","","",""
"","ISI","","html-keyboard-response","533","712657","0.0-1.0-732.0","0","0","77220","","null","","","null","81","NaN","","","","","","","","","","","","","","",""
"","S2","","html-keyboard-response","534","712921","0.0-1.0-733.0","0","0","77220","","null","","","null","81","","NaN","","","","","","","","","","","","","",""
"","response","","html-keyboard-response","535","713420","0.0-1.0-734.0-0.0","0","0","77220","","489","","","68","81","","","2","81","training","adjacent","DE","4","5","P.jpg","Q.jpg","1","1","1","",""
"","feedback","","html-keyboard-response","536","714432","0.0-1.0-735.0-0.0","0","0","77220","","null","","","null","81","","","","","","","","","","","","","","","",""
"","ITI","","html-keyboard-response","537","715452","0.0-1.0-738.0","0","0","77220","","null","","","null","81","","","","","","","","","","","","","","","NaN",""
"","S1","","html-keyboard-response","538","715717","0.0-1.0-740.0","0","0","77220","","null","","","null","82","","","","","","","","","","","","","","","",""
"","ISI","","html-keyboard-response","539","716729","0.0-1.0-741.0","0","0","77220","","null","","","null","82","NaN","","","","","","","","","","","","","","",""
"","S2","","html-keyboard-response","540","716994","0.0-1.0-742.0","0","0","77220","","null","","","null","82","","NaN","","","","","","","","","","","","","",""
"","response","","html-keyboard-response","541","717002","0.0-1.0-743.0-0.0","0","0","77220","","1","","","68","82","","","2","82","training","adjacent","CB","3","2","L.jpg","N.jpg","1","0","0","",""
"","feedback","","html-keyboard-response","542","718016","0.0-1.0-744.0-0.0","0","0","77220","","null","","","null","82","","","","","","","","","","","","","","","",""
"","time_out","","html-keyboard-response","543","720031","0.0-1.0-746.0-0.0","0","0","77220","","null","","","null","82","","","","","","","","","","","","","","","",""
"","ITI","","html-keyboard-response","544","721047","0.0-1.0-747.0","0","0","77220","","null","","","null","82","","","","","","","","","","","","","","","NaN",""
"","S1","","html-keyboard-response","545","721309","0.0-1.0-749.0","0","0","77220","","null","","","null","83","","","","","","","","","","","","","","","",""
"","ISI","","html-keyboard-response","546","722329","0.0-1.0-750.0","0","0","77220","","null","","","null","83","NaN","","","","","","","","","","","","","","",""
"","S2","","html-keyboard-response","547","722591","0.0-1.0-751.0","0","0","77220","","null","","","null","83","","NaN","","","","","","","","","","","","","",""
"","response","","html-keyboard-response","548","722922","0.0-1.0-752.0-0.0","0","0","77220","","322","","","68","83","","","2","83","training","adjacent","FE","6","5","O.jpg","Q.jpg","1","0","0","",""
"","feedback","","html-keyboard-response","549","723942","0.0-1.0-753.0-0.0","0","0","77220","","null","","","null","83","","","","","","","","","","","","","","","",""
"","time_out","","html-keyboard-response","550","725955","0.0-1.0-755.0-0.0","0","0","77220","","null","","","null","83","","","","","","","","","","","","","","","",""
"","ITI","","html-keyboard-response","551","726965","0.0-1.0-756.0","0","0","77220","","null","","","null","83","","","","","","","","","","","","","","","NaN",""
"","S1","","html-keyboard-response","552","727227","0.0-1.0-758.0","0","0","77220","","null","","","null","84","","","","","","","","","","","","","","","",""
"","ISI","","html-keyboard-response","553","728241","0.0-1.0-759.0","0","0","77220","","null","","","null","84","NaN","","","","","","","","","","","","","","",""
"","S2","","html-keyboard-response","554","728503","0.0-1.0-760.0","0","0","77220","","null","","","null","84","","NaN","","","","","","","","","","","","","",""
"","response","","html-keyboard-response","555","728873","0.0-1.0-761.0-0.0","0","0","77220","","359","","","75","84","","","2","84","training","adjacent","ED","5","4","Q.jpg","P.jpg","0","0","1","",""
"","feedback","","html-keyboard-response","556","729889","0.0-1.0-762.0-0.0","0","0","77220","","null","","","null","84","","","","","","","","","","","","","","","",""
"","ITI","","html-keyboard-response","557","730913","0.0-1.0-765.0","0","0","77220","","103","","","75","84","","","","","","","","","","","","","","","k",""
"","S1","","html-keyboard-response","558","731179","0.0-1.0-767.0","0","0","77220","","null","","","null","85","","","","","","","","","","","","","","","",""
"","ISI","","html-keyboard-response","559","732195","0.0-1.0-768.0","0","0","77220","","null","","","null","85","NaN","","","","","","","","","","","","","","",""
"","S2","","html-keyboard-response","560","732459","0.0-1.0-769.0","0","0","77220","","null","","","null","85","","NaN","","","","","","","","","","","","","",""
"","response","","html-keyboard-response","561","733032","0.0-1.0-770.0-0.0","0","0","77220","","565","","","75","85","","","2","85","training","adjacent","GF","7","6","M.jpg","O.jpg","0","0","1","",""
"","feedback","","html-keyboard-response","562","734050","0.0-1.0-771.0-0.0","0","0","77220","","null","","","null","85","","","","","","","","","","","","","","","",""
"","ITI","","html-keyboard-response","563","735065","0.0-1.0-774.0","0","0","77220","","null","","","null","85","","","","","","","","","","","","","","","NaN",""
"","S1","","html-keyboard-response","564","735329","0.0-1.0-776.0","0","0","77220","","null","","","null","86","","","","","","","","","","","","","","","",""
"","ISI","","html-keyboard-response","565","736342","0.0-1.0-777.0","0","0","77220","","null","","","null","86","NaN","","","","","","","","","","","","","","",""
"","S2","","html-keyboard-response","566","736606","0.0-1.0-778.0","0","0","77220","","null","","","null","86","","NaN","","","","","","","","","","","","","",""
"","response","","html-keyboard-response","567","737016","0.0-1.0-779.0-0.0","0","0","77220","","401","","","75","86","","","2","86","training","adjacent","FG","6","7","O.jpg","M.jpg","0","1","0","",""
"","feedback","","html-keyboard-response","568","738029","0.0-1.0-780.0-0.0","0","0","77220","","null","","","null","86","","","","","","","","","","","","","","","",""
"","time_out","","html-keyboard-response","569","740047","0.0-1.0-782.0-0.0","0","0","77220","","null","","","null","86","","","","","","","","","","","","","","","",""
"","ITI","","html-keyboard-response","570","741056","0.0-1.0-783.0","0","0","77220","","null","","","null","86","","","","","","","","","","","","","","","NaN",""
"","S1","","html-keyboard-response","571","741321","0.0-1.0-785.0","0","0","77220","","null","","","null","87","","","","","","","","","","","","","","","",""
"","ISI","","html-keyboard-response","572","742331","0.0-1.0-786.0","0","0","77220","","null","","","null","87","NaN","","","","","","","","","","","","","","",""
"","S2","","html-keyboard-response","573","742592","0.0-1.0-787.0","0","0","77220","","null","","","null","87","","NaN","","","","","","","","","","","","","",""
"","response","","html-keyboard-response","574","743025","0.0-1.0-788.0-0.0","0","0","77220","","426","","","68","87","","","2","87","training","adjacent","FE","6","5","O.jpg","Q.jpg","1","0","0","",""
"","feedback","","html-keyboard-response","575","744050","0.0-1.0-789.0-0.0","0","0","77220","","null","","","null","87","","","","","","","","","","","","","","","",""
"","time_out","","html-keyboard-response","576","746061","0.0-1.0-791.0-0.0","0","0","77220","","null","","","null","87","","","","","","","","","","","","","","","",""
"","ITI","","html-keyboard-response","577","747085","0.0-1.0-792.0","0","0","77220","","null","","","null","87","","","","","","","","","","","","","","","NaN",""
"","S1","","html-keyboard-response","578","747354","0.0-1.0-794.0","0","0","77220","","null","","","null","88","","","","","","","","","","","","","","","",""
"","ISI","","html-keyboard-response","579","748364","0.0-1.0-795.0","0","0","77220","","null","","","null","88","NaN","","","","","","","","","","","","","","",""
"","S2","","html-keyboard-response","580","748628","0.0-1.0-796.0","0","0","77220","","null","","","null","88","","NaN","","","","","","","","","","","","","",""
"","response","","html-keyboard-response","581","748969","0.0-1.0-797.0-0.0","0","0","77220","","332","","","75","88","","","2","88","training","adjacent","BA","2","1","N.jpg","R.jpg","0","0","1","",""
"","feedback","","html-keyboard-response","582","749985","0.0-1.0-798.0-0.0","0","0","77220","","null","","","null","88","","","","","","","","","","","","","","","",""
