"success","ttype","start_time","trial_type","trial_index","time_elapsed","internal_node_id","warning","missed_checkup","PID","view_history","rt","responses","repeat_instructions","key_press","index","keypress_isi","keypress_S2","block","trial_num","phase","group_type","pair_type","S1_stim","S2_stim","S1_img","S2_img","S1_chosen","S1_higher","accuracy","keypress_iti","total_bonus_tally"
"true","full_screen","d08052022hr1309","fullscreen","0","11968","0.0-0.0","0","0","85528","","","","","","","","","","","","","","","","","","","","","",""
"","instructions","","instructions","1","47508","0.0-1.0-0.0-0.0","0","0","85528","[{""page_index"":0,""viewing_time"":5185},{""page_index"":1,""viewing_time"":16423},{""page_index"":2,""viewing_time"":12096},{""page_index"":3,""viewing_time"":1832}]","35537","","","","","","","","","","","","","","","","","","","",""
"","comprehension_check","","survey-multi-choice","2","66979","0.0-1.0-0.0-1.0","0","0","85528","","19468","{""Q0"":""True"",""Q1"":""D"",""Q2"":""Only when the screen 'MAKE A CHOICE' is shown"",""Q3"":""Green mark"",""Q4"":""either D or K""}","1","","","","","","","","","","","","","","","","","",""
"","missed_instruction_checkup","","html-keyboard-response","3","69254","0.0-1.0-0.0-2.0-0.0","0","1","85528","","2270","","","32","","","","","","","","","","","","","","","","",""
"","instructions","","instructions","4","96187","0.0-1.0-0.1-0.1","0","0","85528","[{""page_index"":0,""viewing_time"":6851},{""page_index"":1,""viewing_time"":13592},{""page_index"":2,""viewing_time"":5392},{""page_index"":3,""viewing_time"":1096}]","26931","","","","","","","","","","","","","","","","","","","",""
"","comprehension_check","","survey-multi-choice","5","112771","0.0-1.0-0.1-1.1","0","0","85528","","16581","{""Q0"":""True"",""Q1"":""D"",""Q2"":""Once the second image appears and while the screen 'MAKE A CHOICE' is shown"",""Q3"":""Green mark"",""Q4"":""either D or K""}","0","","","","","","","","","","","","","","","","","",""
"","start_exp","","html-keyboard-response","6","131172","0.0-1.0-1.0","0","0","85528","","18398","","","32","","","","","","","","","","","","","","","","",""
"","S1","","html-keyboard-response","7","131426","0.0-1.0-2.0","0","0","85528","","null","","","null","0","","","","","","","","","","","","","","","",""
"","ISI","","html-keyboard-response","8","133429","0.0-1.0-3.0","0","0","85528","","null","","","null","0","NaN","","","","","","","","","","","","","","",""
"","S2","","html-keyboard-response","9","133682","0.0-1.0-4.0","0","0","85528","","null","","","null","0","","NaN","","","","","","","","","","","","","",""
"","response","","html-keyboard-response","10","134916","0.0-1.0-5.0-0.0","0","0","85528","","1231","","","68","0","","","1","0","training","adjacent","BA","2","1","O.jpg","M.jpg","1","0","0","",""
"","feedback","","html-keyboard-response","11","135921","0.0-1.0-6.0-0.0","0","0","85528","","null","","","null","0","","","","","","","","","","","","","","","",""
"","time_out","","html-keyboard-response","12","137923","0.0-1.0-8.0-0.0","0","0","85528","","null","","","null","0","","","","","","","","","","","","","","","",""
"","ITI","","html-keyboard-response","13","138927","0.0-1.0-9.0","0","0","85528","","null","","","null","0","","","","","","","","","","","","","","","NaN",""
"","S1","","html-keyboard-response","14","139182","0.0-1.0-11.0","0","0","85528","","null","","","null","1","","","","","","","","","","","","","","","",""
"","ISI","","html-keyboard-response","15","141185","0.0-1.0-12.0","0","0","85528","","null","","","null","1","NaN","","","","","","","","","","","","","","",""
"","S2","","html-keyboard-response","16","141439","0.0-1.0-13.0","0","0","85528","","null","","","null","1","","NaN","","","","","","","","","","","","","",""
"","response","","html-keyboard-response","17","142053","0.0-1.0-14.0-0.0","0","0","85528","","612","","","75","1","","","1","1","training","adjacent","GF","7","6","L.jpg","P.jpg","0","0","1","",""
"","feedback","","html-keyboard-response","18","143056","0.0-1.0-15.0-0.0","0","0","85528","","null","","","null","1","","","","","","","","","","","","","","","",""
"","ITI","","html-keyboard-response","19","144059","0.0-1.0-18.0","0","0","85528","","null","","","null","1","","","","","","","","","","","","","","","NaN",""
"","S1","","html-keyboard-response","20","144313","0.0-1.0-20.0","0","0","85528","","null","","","null","2","","","","","","","","","","","","","","","",""
"","ISI","","html-keyboard-response","21","146316","0.0-1.0-21.0","0","0","85528","","null","","","null","2","NaN","","","","","","","","","","","","","","",""
"","S2","","html-keyboard-response","22","146570","0.0-1.0-22.0","0","0","85528","","null","","","null","2","","NaN","","","","","","","","","","","","","",""
"","response","","html-keyboard-response","23","147092","0.0-1.0-23.0-0.0","0","0","85528","","519","","","75","2","","","1","2","training","adjacent","GF","7","6","L.jpg","P.jpg","0","0","1","",""
"","feedback","","html-keyboard-response","24","148095","0.0-1.0-24.0-0.0","0","0","85528","","null","","","null","2","","","","","","","","","","","","","","","",""
"","ITI","","html-keyboard-response","25","149097","0.0-1.0-27.0","0","0","85528","","null","","","null","2","","","","","","","","","","","","","","","NaN",""
"","S1","","html-keyboard-response","26","149351","0.0-1.0-29.0","0","0","85528","","null","","","null","3","","","","","","","","","","","","","","","",""
"","ISI","","html-keyboard-response","27","151354","0.0-1.0-30.0","0","0","85528","","null","","","null","3","NaN","","","","","","","","","","","","","","",""
"","S2","","html-keyboard-response","28","151607","0.0-1.0-31.0","0","0","85528","","null","","","null","3","","NaN","","","","","","","","","","","","","",""
"","response","","html-keyboard-response","29","152482","0.0-1.0-32.0-0.0","0","0","85528","","873","","","68","3","","","1","3","training","adjacent","AB","1","2","M.jpg","O.jpg","1","1","1","",""
"","feedback","","html-keyboard-response","30","153486","0.0-1.0-33.0-0.0","0","0","85528","","null","","","null","3","","","","","","","","","","","","","","","",""
"","ITI","","html-keyboard-response","31","154490","0.0-1.0-36.0","0","0","85528","","null","","","null","3","","","","","","","","","","","","","","","NaN",""
"","S1","","html-keyboard-response","32","154742","0.0-1.0-38.0","0","0","85528","","null","","","null","4","","","","","","","","","","","","","","","",""
"","ISI","","html-keyboard-response","33","156744","0.0-1.0-39.0","0","0","85528","","null","","","null","4","NaN","","","","","","","","","","","","","","",""
"","S2","","html-keyboard-response","34","157002","0.0-1.0-40.0","0","0","85528","","null","","","null","4","","NaN","","","","","","","","","","","","","",""
"","response","","html-keyboard-response","35","157460","0.0-1.0-41.0-0.0","0","0","85528","","455","","","68","4","","","1","4","training","adjacent","FE","6","5","P.jpg","Q.jpg","1","0","0","",""
"","feedback","","html-keyboard-response","36","158464","0.0-1.0-42.0-0.0","0","0","85528","","null","","","null","4","","","","","","","","","","","","","","","",""
"","time_out","","html-keyboard-response","37","160466","0.0-1.0-44.0-0.0","0","0","85528","","null","","","null","4","","","","","","","","","","","","","","","",""
"","ITI","","html-keyboard-response","38","161469","0.0-1.0-45.0","0","0","85528","","null","","","null","4","","","","","","","","","","","","","","","NaN",""
"","S1","","html-keyboard-response","39","161722","0.0-1.0-47.0","0","0","85528","","null","","","null","5","","","","","","","","","","","","","","","",""
"","ISI","","html-keyboard-response","40","163724","0.0-1.0-48.0","0","0","85528","","null","","","null","5","NaN","","","","","","","","","","","","","","",""
"","S2","","html-keyboard-response","41","163977","0.0-1.0-49.0","0","0","85528","","null","","","null","5","","NaN","","","","","","","","","","","","","",""
"","response","","html-keyboard-response","42","164629","0.0-1.0-50.0-0.0","0","0","85528","","649","","","75","5","","","1","5","training","adjacent","DC","4","3","N.jpg","R.jpg","0","0","1","",""
"","feedback","","html-keyboard-response","43","165633","0.0-1.0-51.0-0.0","0","0","85528","","null","","","null","5","","","","","","","","","","","","","","","",""
"","ITI","","html-keyboard-response","44","166636","0.0-1.0-54.0","0","0","85528","","null","","","null","5","","","","","","","","","","","","","","","NaN",""
"","S1","","html-keyboard-response","45","166890","0.0-1.0-56.0","0","0","85528","","null","","","null","6","","","","","","","","","","","","","","","",""
"","ISI","","html-keyboard-response","46","168893","0.0-1.0-57.0","0","0","85528","","null","","","null","6","NaN","","","","","","","","","","","","","","",""
"","S2","","html-keyboard-response","47","169146","0.0-1.0-58.0","0","0","85528","","null","","","null","6","","NaN","","","","","","","","","","","","","",""
"","response","","html-keyboard-response","48","169572","0.0-1.0-59.0-0.0","0","0","85528","","423","","","68","6","","","1","6","training","adjacent","BC","2","3","O.jpg","R.jpg","1","1","1","",""
"","feedback","","html-keyboard-response","49","170576","0.0-1.0-60.0-0.0","0","0","85528","","null","","","null","6","","","","","","","","","","","","","","","",""
"","ITI","","html-keyboard-response","50","171579","0.0-1.0-63.0","0","0","85528","","null","","","null","6","","","","","","","","","","","","","","","NaN",""
"","S1","","html-keyboard-response","51","171832","0.0-1.0-65.0","0","0","85528","","null","","","null","7","","","","","","","","","","","","","","","",""
"","ISI","","html-keyboard-response","52","173834","0.0-1.0-66.0","0","0","85528","","null","","","null","7","NaN","","","","","","","","","","","","","","",""
"","S2","","html-keyboard-response","53","174088","0.0-1.0-67.0","0","0","85528","","null","","","null","7","","NaN","","","","","","","","","","","","","",""
"","response","","html-keyboard-response","54","174660","0.0-1.0-68.0-0.0","0","0","85528","","569","","","68","7","","","1","7","training","adjacent","DE","4","5","N.jpg","Q.jpg","1","1","1","",""
"","feedback","","html-keyboard-response","55","175664","0.0-1.0-69.0-0.0","0","0","85528","","null","","","null","7","","","","","","","","","","","","","","","",""
"","ITI","","html-keyboard-response","56","176666","0.0-1.0-72.0","0","0","85528","","null","","","null","7","","","","","","","","","","","","","","","NaN",""
"","S1","","html-keyboard-response","57","176918","0.0-1.0-74.0","0","0","85528","","null","","","null","8","","","","","","","","","","","","","","","",""
"","ISI","","html-keyboard-response","58","178921","0.0-1.0-75.0","0","0","85528","","null","","","null","8","NaN","","","","","","","","","","","","","","",""
"","S2","","html-keyboard-response","59","179173","0.0-1.0-76.0","0","0","85528","","null","","","null","8","","NaN","","","","","","","","","","","","","",""
"","response","","html-keyboard-response","60","179794","0.0-1.0-77.0-0.0","0","0","85528","","619","","","75","8","","","1","8","training","adjacent","DC","4","3","N.jpg","R.jpg","0","0","1","",""
"","feedback","","html-keyboard-response","61","180797","0.0-1.0-78.0-0.0","0","0","85528","","null","","","null","8","","","","","","","","","","","","","","","",""
"","ITI","","html-keyboard-response","62","181799","0.0-1.0-81.0","0","0","85528","","null","","","null","8","","","","","","","","","","","","","","","NaN",""
"","S1","","html-keyboard-response","63","182052","0.0-1.0-83.0","0","0","85528","","null","","","null","9","","","","","","","","","","","","","","","",""
"","ISI","","html-keyboard-response","64","184055","0.0-1.0-84.0","0","0","85528","","null","","","null","9","NaN","","","","","","","","","","","","","","",""
"","S2","","html-keyboard-response","65","184309","0.0-1.0-85.0","0","0","85528","","null","","","null","9","","NaN","","","","","","","","","","","","","",""
"","response","","html-keyboard-response","66","185188","0.0-1.0-86.0-0.0","0","0","85528","","876","","","68","9","","","1","9","training","adjacent","ED","5","4","Q.jpg","N.jpg","1","0","0","",""
"","feedback","","html-keyboard-response","67","186192","0.0-1.0-87.0-0.0","0","0","85528","","null","","","null","9","","","","","","","","","","","","","","","",""
"","time_out","","html-keyboard-response","68","188196","0.0-1.0-89.0-0.0","0","0","85528","","null","","","null","9","","","","","","","","","","","","","","","",""
"","ITI","","html-keyboard-response","69","189200","0.0-1.0-90.0","0","0","85528","","null","","","null","9","","","","","","","","","","","","","","","NaN",""
"","S1","","html-keyboard-response","70","189454","0.0-1.0-92.0","0","0","85528","","null","","","null","10","","","","","","","","","","","","","","","",""
"","ISI","","html-keyboard-response","71","191457","0.0-1.0-93.0","0","0","85528","","null","","","null","10","NaN","","","","","","","","","","","","","","",""
"","S2","","html-keyboard-response","72","191711","0.0-1.0-94.0","0","0","85528","","null","","","null","10","","NaN","","","","","","","","","","","","","",""
"","response","","html-keyboard-response","73","192020","0.0-1.0-95.0-0.0","0","0","85528","","307","","","68","10","","","1","10","training","adjacent","BC","2","3","O.jpg","R.jpg","1","1","1","",""
"","feedback","","html-keyboard-response","74","193023","0.0-1.0-96.0-0.0","0","0","85528","","null","","","null","10","","","","","","","","","","","","","","","",""
"","ITI","","html-keyboard-response","75","194027","0.0-1.0-99.0","0","0","85528","","null","","","null","10","","","","","","","","","","","","","","","NaN",""
"","S1","","html-keyboard-response","76","194280","0.0-1.0-101.0","0","0","85528","","null","","","null","11","","","","","","","","","","","","","","","",""
"","ISI","","html-keyboard-response","77","196282","0.0-1.0-102.0","0","0","85528","","null","","","null","11","NaN","","","","","","","","","","","","","","",""
"","S2","","html-keyboard-response","78","196536","0.0-1.0-103.0","0","0","85528","","null","","","null","11","","NaN","","","","","","","","","","","","","",""
"","response","","html-keyboard-response","79","197140","0.0-1.0-104.0-0.0","0","0","85528","","602","","","68","11","","","1","11","training","adjacent","AB","1","2","M.jpg","O.jpg","1","1","1","",""
"","feedback","","html-keyboard-response","80","198144","0.0-1.0-105.0-0.0","0","0","85528","","null","","","null","11","","","","","","","","","","","","","","","",""
"","ITI","","html-keyboard-response","81","199147","0.0-1.0-108.0","0","0","85528","","null","","","null","11","","","","","","","","","","","","","","","NaN",""
"","S1","","html-keyboard-response","82","199400","0.0-1.0-110.0","0","0","85528","","null","","","null","12","","","","","","","","","","","","","","","",""
"","ISI","","html-keyboard-response","83","201409","0.0-1.0-111.0","0","0","85528","","null","","","null","12","NaN","","","","","","","","","","","","","","",""
"","S2","","html-keyboard-response","84","201663","0.0-1.0-112.0","0","0","85528","","null","","","null","12","","NaN","","","","","","","","","","","","","",""
"","response","","html-keyboard-response","85","202243","0.0-1.0-113.0-0.0","0","0","85528","","579","","","75","12","","","1","12","training","adjacent","EF","5","6","Q.jpg","P.jpg","0","1","0","",""
"","feedback","","html-keyboard-response","86","203249","0.0-1.0-114.0-0.0","0","0","85528","","null","","","null","12","","","","","","","","","","","","","","","",""
"","time_out","","html-keyboard-response","87","205252","0.0-1.0-116.0-0.0","0","0","85528","","null","","","null","12","","","","","","","","","","","","","","","",""
"","ITI","","html-keyboard-response","88","206255","0.0-1.0-117.0","0","0","85528","","null","","","null","12","","","","","","","","","","","","","","","NaN",""
"","S1","","html-keyboard-response","89","206509","0.0-1.0-119.0","0","0","85528","","null","","","null","13","","","","","","","","","","","","","","","",""
"","ISI","","html-keyboard-response","90","208511","0.0-1.0-120.0","0","0","85528","","null","","","null","13","NaN","","","","","","","","","","","","","","",""
"","S2","","html-keyboard-response","91","208764","0.0-1.0-121.0","0","0","85528","","null","","","null","13","","NaN","","","","","","","","","","","","","",""
"","response","","html-keyboard-response","92","209010","0.0-1.0-122.0-0.0","0","0","85528","","244","","","68","13","","","1","13","training","adjacent","BC","2","3","O.jpg","R.jpg","1","1","1","",""
"","feedback","","html-keyboard-response","93","210013","0.0-1.0-123.0-0.0","0","0","85528","","null","","","null","13","","","","","","","","","","","","","","","",""
"","ITI","","html-keyboard-response","94","211017","0.0-1.0-126.0","0","0","85528","","null","","","null","13","","","","","","","","","","","","","","","NaN",""
"","S1","","html-keyboard-response","95","211271","0.0-1.0-128.0","0","0","85528","","null","","","null","14","","","","","","","","","","","","","","","",""
"","ISI","","html-keyboard-response","96","213274","0.0-1.0-129.0","0","0","85528","","null","","","null","14","NaN","","","","","","","","","","","","","","",""
"","S2","","html-keyboard-response","97","213527","0.0-1.0-130.0","0","0","85528","","null","","","null","14","","NaN","","","","","","","","","","","","","",""
"","response","","html-keyboard-response","98","213715","0.0-1.0-131.0-0.0","0","0","85528","","187","","","75","14","","","1","14","training","adjacent","ED","5","4","Q.jpg","N.jpg","0","0","1","",""
"","feedback","","html-keyboard-response","99","214729","0.0-1.0-132.0-0.0","0","0","85528","","null","","","null","14","","","","","","","","","","","","","","","",""
"","ITI","","html-keyboard-response","100","215733","0.0-1.0-135.0","0","0","85528","","null","","","null","14","","","","","","","","","","","","","","","NaN",""
"","S1","","html-keyboard-response","101","215987","0.0-1.0-137.0","0","0","85528","","null","","","null","15","","","","","","","","","","","","","","","",""
"","ISI","","html-keyboard-response","102","217990","0.0-1.0-138.0","0","0","85528","","null","","","null","15","NaN","","","","","","","","","","","","","","",""
"","S2","","html-keyboard-response","103","218243","0.0-1.0-139.0","0","0","85528","","null","","","null","15","","NaN","","","","","","","","","","","","","",""
"","response","","html-keyboard-response","104","218707","0.0-1.0-140.0-0.0","0","0","85528","","461","","","75","15","","","1","15","training","adjacent","CB","3","2","R.jpg","O.jpg","0","0","1","",""
"","feedback","","html-keyboard-response","105","219711","0.0-1.0-141.0-0.0","0","0","85528","","null","","","null","15","","","","","","","","","","","","","","","",""
"","ITI","","html-keyboard-response","106","220715","0.0-1.0-144.0","0","0","85528","","null","","","null","15","","","","","","","","","","","","","","","NaN",""
"","S1","","html-keyboard-response","107","220969","0.0-1.0-146.0","0","0","85528","","null","","","null","16","","","","","","","","","","","","","","","",""
"","ISI","","html-keyboard-response","108","222971","0.0-1.0-147.0","0","0","85528","","null","","","null","16","NaN","","","","","","","","","","","","","","",""
"","S2","","html-keyboard-response","109","223224","0.0-1.0-148.0","0","0","85528","","null","","","null","16","","NaN","","","","","","","","","","","","","",""
"","response","","html-keyboard-response","110","223844","0.0-1.0-149.0-0.0","0","0","85528","","617","","","75","16","","","1","16","training","adjacent","GF","7","6","L.jpg","P.jpg","0","0","1","",""
"","feedback","","html-keyboard-response","111","224847","0.0-1.0-150.0-0.0","0","0","85528","","null","","","null","16","","","","","","","","","","","","","","","",""
"","ITI","","html-keyboard-response","112","225849","0.0-1.0-153.0","0","0","85528","","null","","","null","16","","","","","","","","","","","","","","","NaN",""
"","S1","","html-keyboard-response","113","226102","0.0-1.0-155.0","0","0","85528","","null","","","null","17","","","","","","","","","","","","","","","",""
"","ISI","","html-keyboard-response","114","228105","0.0-1.0-156.0","0","0","85528","","null","","","null","17","NaN","","","","","","","","","","","","","","",""
"","S2","","html-keyboard-response","115","228359","0.0-1.0-157.0","0","0","85528","","null","","","null","17","","NaN","","","","","","","","","","","","","",""
"","response","","html-keyboard-response","116","228836","0.0-1.0-158.0-0.0","0","0","85528","","475","","","68","17","","","1","17","training","adjacent","BA","2","1","O.jpg","M.jpg","1","0","0","",""
"","feedback","","html-keyboard-response","117","229839","0.0-1.0-159.0-0.0","0","0","85528","","null","","","null","17","","","","","","","","","","","","","","","",""
"","time_out","","html-keyboard-response","118","231842","0.0-1.0-161.0-0.0","0","0","85528","","null","","","null","17","","","","","","","","","","","","","","","",""
"","ITI","","html-keyboard-response","119","232846","0.0-1.0-162.0","0","0","85528","","null","","","null","17","","","","","","","","","","","","","","","NaN",""
"","S1","","html-keyboard-response","120","233099","0.0-1.0-164.0","0","0","85528","","null","","","null","18","","","","","","","","","","","","","","","",""
"","ISI","","html-keyboard-response","121","235102","0.0-1.0-165.0","0","0","85528","","null","","","null","18","NaN","","","","","","","","","","","","","","",""
"","S2","","html-keyboard-response","122","235355","0.0-1.0-166.0","0","0","85528","","null","","","null","18","","NaN","","","","","","","","","","","","","",""
"","response","","html-keyboard-response","123","235780","0.0-1.0-167.0-0.0","0","0","85528","","422","","","75","18","","","1","18","training","adjacent","DE","4","5","N.jpg","Q.jpg","0","1","0","",""
"","feedback","","html-keyboard-response","124","236783","0.0-1.0-168.0-0.0","0","0","85528","","null","","","null","18","","","","","","","","","","","","","","","",""
"","time_out","","html-keyboard-response","125","238787","0.0-1.0-170.0-0.0","0","0","85528","","null","","","null","18","","","","","","","","","","","","","","","",""
"","ITI","","html-keyboard-response","126","239790","0.0-1.0-171.0","0","0","85528","","null","","","null","18","","","","","","","","","","","","","","","NaN",""
"","S1","","html-keyboard-response","127","240043","0.0-1.0-173.0","0","0","85528","","null","","","null","19","","","","","","","","","","","","","","","",""
"","ISI","","html-keyboard-response","128","242046","0.0-1.0-174.0","0","0","85528","","null","","","null","19","NaN","","","","","","","","","","","","","","",""
"","S2","","html-keyboard-response","129","242299","0.0-1.0-175.0","0","0","85528","","null","","","null","19","","NaN","","","","","","","","","","","","","",""
"","response","","html-keyboard-response","130","242419","0.0-1.0-176.0-0.0","0","0","85528","","118","","","75","19","","","1","19","training","adjacent","EF","5","6","Q.jpg","P.jpg","0","1","0","",""
"","feedback","","html-keyboard-response","131","243423","0.0-1.0-177.0-0.0","0","0","85528","","null","","","null","19","","","","","","","","","","","","","","","",""
"","time_out","","html-keyboard-response","132","245426","0.0-1.0-179.0-0.0","0","0","85528","","null","","","null","19","","","","","","","","","","","","","","","",""
"","ITI","","html-keyboard-response","133","246430","0.0-1.0-180.0","0","0","85528","","null","","","null","19","","","","","","","","","","","","","","","NaN",""
"","S1","","html-keyboard-response","134","246684","0.0-1.0-182.0","0","0","85528","","null","","","null","20","","","","","","","","","","","","","","","",""
"","ISI","","html-keyboard-response","135","248687","0.0-1.0-183.0","0","0","85528","","null","","","null","20","NaN","","","","","","","","","","","","","","",""
"","S2","","html-keyboard-response","136","248940","0.0-1.0-184.0","0","0","85528","","null","","","null","20","","NaN","","","","","","","","","","","","","",""
"","response","","html-keyboard-response","137","249396","0.0-1.0-185.0-0.0","0","0","85528","","454","","","68","20","","","1","20","training","adjacent","FE","6","5","P.jpg","Q.jpg","1","0","0","",""
"","feedback","","html-keyboard-response","138","250399","0.0-1.0-186.0-0.0","0","0","85528","","null","","","null","20","","","","","","","","","","","","","","","",""
"","time_out","","html-keyboard-response","139","252403","0.0-1.0-188.0-0.0","0","0","85528","","null","","","null","20","","","","","","","","","","","","","","","",""
"","ITI","","html-keyboard-response","140","253406","0.0-1.0-189.0","0","0","85528","","null","","","null","20","","","","","","","","","","","","","","","NaN",""
"","S1","","html-keyboard-response","141","253660","0.0-1.0-191.0","0","0","85528","","null","","","null","21","","","","","","","","","","","","","","","",""
"","ISI","","html-keyboard-response","142","255662","0.0-1.0-192.0","0","0","85528","","null","","","null","21","NaN","","","","","","","","","","","","","","",""
"","S2","","html-keyboard-response","143","255915","0.0-1.0-193.0","0","0","85528","","null","","","null","21","","NaN","","","","","","","","","","","","","",""
"","response","","html-keyboard-response","144","256116","0.0-1.0-194.0-0.0","0","0","85528","","198","","","68","21","","","1","21","training","adjacent","FG","6","7","P.jpg","L.jpg","1","1","1","",""
"","feedback","","html-keyboard-response","145","257121","0.0-1.0-195.0-0.0","0","0","85528","","null","","","null","21","","","","","","","","","","","","","","","",""
"","ITI","","html-keyboard-response","146","258125","0.0-1.0-198.0","0","0","85528","","null","","","null","21","","","","","","","","","","","","","","","NaN",""
"","S1","","html-keyboard-response","147","258380","0.0-1.0-200.0","0","0","85528","","null","","","null","22","","","","","","","","","","","","","","","",""
"","ISI","","html-keyboard-response","148","260383","0.0-1.0-201.0","0","0","85528","","null","","","null","22","NaN","","","","","","","","","","","","","","",""
"","S2","","html-keyboard-response","149","260649","0.0-1.0-202.0","0","0","85528","","null","","","null","22","","NaN","","","","","","","","","","","","","",""
"","response","","html-keyboard-response","150","261124","0.0-1.0-203.0-0.0","0","0","85528","","472","","","75","22","","","1","22","training","adjacent","CD","3","4","R.jpg","N.jpg","0","1","0","",""
"","feedback","","html-keyboard-response","151","262129","0.0-1.0-204.0-0.0","0","0","85528","","null","","","null","22","","","","","","","","","","","","","","","",""
"","time_out","","html-keyboard-response","152","264132","0.0-1.0-206.0-0.0","0","0","85528","","null","","","null","22","","","","","","","","","","","","","","","",""
"","ITI","","html-keyboard-response","153","265136","0.0-1.0-207.0","0","0","85528","","null","","","null","22","","","","","","","","","","","","","","","NaN",""
"","S1","","html-keyboard-response","154","265390","0.0-1.0-209.0","0","0","85528","","null","","","null","23","","","","","","","","","","","","","","","",""
"","ISI","","html-keyboard-response","155","267393","0.0-1.0-210.0","0","0","85528","","null","","","null","23","NaN","","","","","","","","","","","","","","",""
"","S2","","html-keyboard-response","156","267646","0.0-1.0-211.0","0","0","85528","","null","","","null","23","","NaN","","","","","","","","","","","","","",""
"","response","","html-keyboard-response","157","268100","0.0-1.0-212.0-0.0","0","0","85528","","451","","","75","23","","","1","23","training","adjacent","CB","3","2","R.jpg","O.jpg","0","0","1","",""
"","feedback","","html-keyboard-response","158","269103","0.0-1.0-213.0-0.0","0","0","85528","","null","","","null","23","","","","","","","","","","","","","","","",""
"","ITI","","html-keyboard-response","159","270105","0.0-1.0-216.0","0","0","85528","","null","","","null","23","","","","","","","","","","","","","","","NaN",""
"","S1","","html-keyboard-response","160","270358","0.0-1.0-218.0","0","0","85528","","null","","","null","24","","","","","","","","","","","","","","","",""
"","ISI","","html-keyboard-response","161","272361","0.0-1.0-219.0","0","0","85528","","null","","","null","24","NaN","","","","","","","","","","","","","","",""
"","S2","","html-keyboard-response","162","272615","0.0-1.0-220.0","0","0","85528","","null","","","null","24","","NaN","","","","","","","","","","","","","",""
"","response","","html-keyboard-response","163","272914","0.0-1.0-221.0-0.0","0","0","85528","","297","","","68","24","","","1","24","training","adjacent","FG","6","7","P.jpg","L.jpg","1","1","1","",""
"","feedback","","html-keyboard-response","164","273917","0.0-1.0-222.0-0.0","0","0","85528","","null","","","null","24","","","","","","","","","","","","","","","",""
"","ITI","","html-keyboard-response","165","274921","0.0-1.0-225.0","0","0","85528","","null","","","null","24","","","","","","","","","","","","","","","NaN",""
"","S1","","html-keyboard-response","166","275173","0.0-1.0-227.0","0","0","85528","","null","","","null","25","","","","","","","","","","","","","","","",""
"","ISI","","html-keyboard-response","167","277177","0.0-1.0-228.0","0","0","85528","","null","","","null","25","NaN","","","","","","","","","","","","","","",""
"","S2","","html-keyboard-response","168","277431","0.0-1.0-229.0","0","0","85528","","null","","","null","25","","NaN","","","","","","","","","","","","","",""
"","response","","html-keyboard-response","169","277970","0.0-1.0-230.0-0.0","0","0","85528","","537","","","68","25","","","1","25","training","adjacent","CD","3","4","R.jpg","N.jpg","1","1","1","",""
"","feedback","","html-keyboard-response","170","278973","0.0-1.0-231.0-0.0","0","0","85528","","null","","","null","25","","","","","","","","","","","","","","","",""
"","ITI","","html-keyboard-response","171","279974","0.0-1.0-234.0","0","0","85528","","null","","","null","25","","","","","","","","","","","","","","","NaN",""
"","S1","","html-keyboard-response","172","280228","0.0-1.0-236.0","0","0","85528","","null","","","null","26","","","","","","","","","","","","","","","",""
"","ISI","","html-keyboard-response","173","282230","0.0-1.0-237.0","0","0","85528","","null","","","null","26","NaN","","","","","","","","","","","","","","",""
"","S2","","html-keyboard-response","174","282484","0.0-1.0-238.0","0","0","85528","","null","","","null","26","","NaN","","","","","","","","","","","","","",""
"","response","","html-keyboard-response","175","283346","0.0-1.0-239.0-0.0","0","0","85528","","860","","","68","26","","","1","26","training","adjacent","FE","6","5","P.jpg","Q.jpg","1","0","0","",""
"","feedback","","html-keyboard-response","176","284348","0.0-1.0-240.0-0.0","0","0","85528","","null","","","null","26","","","","","","","","","","","","","","","",""
"","time_out","","html-keyboard-response","177","286351","0.0-1.0-242.0-0.0","0","0","85528","","null","","","null","26","","","","","","","","","","","","","","","",""
"","ITI","","html-keyboard-response","178","287354","0.0-1.0-243.0","0","0","85528","","null","","","null","26","","","","","","","","","","","","","","","NaN",""
"","S1","","html-keyboard-response","179","287608","0.0-1.0-245.0","0","0","85528","","null","","","null","27","","","","","","","","","","","","","","","",""
"","ISI","","html-keyboard-response","180","289611","0.0-1.0-246.0","0","0","85528","","null","","","null","27","NaN","","","","","","","","","","","","","","",""
"","S2","","html-keyboard-response","181","289864","0.0-1.0-247.0","0","0","85528","","null","","","null","27","","NaN","","","","","","","","","","","","","",""
"","response","","html-keyboard-response","182","290227","0.0-1.0-248.0-0.0","0","0","85528","","361","","","75","27","","","1","27","training","adjacent","CB","3","2","R.jpg","O.jpg","0","0","1","",""
"","feedback","","html-keyboard-response","183","291231","0.0-1.0-249.0-0.0","0","0","85528","","null","","","null","27","","","","","","","","","","","","","","","",""
"","ITI","","html-keyboard-response","184","292235","0.0-1.0-252.0","0","0","85528","","null","","","null","27","","","","","","","","","","","","","","","NaN",""
"","S1","","html-keyboard-response","185","292489","0.0-1.0-254.0","0","0","85528","","null","","","null","28","","","","","","","","","","","","","","","",""
"","ISI","","html-keyboard-response","186","294492","0.0-1.0-255.0","0","0","85528","","null","","","null","28","NaN","","","","","","","","","","","","","","",""
"","S2","","html-keyboard-response","187","294746","0.0-1.0-256.0","0","0","85528","","null","","","null","28","","NaN","","","","","","","","","","","","","",""
"","response","","html-keyboard-response","188","295140","0.0-1.0-257.0-0.0","0","0","85528","","391","","","68","28","","","1","28","training","adjacent","AB","1","2","M.jpg","O.jpg","1","1","1","",""
"","feedback","","html-keyboard-response","189","296145","0.0-1.0-258.0-0.0","0","0","85528","","null","","","null","28","","","","","","","","","","","","","","","",""
"","ITI","","html-keyboard-response","190","297147","0.0-1.0-261.0","0","0","85528","","null","","","null","28","","","","","","","","","","","","","","","NaN",""
"","S1","","html-keyboard-response","191","297400","0.0-1.0-263.0","0","0","85528","","null","","","null","29","","","","","","","","","","","","","","","",""
"","ISI","","html-keyboard-response","192","299404","0.0-1.0-264.0","0","0","85528","","null","","","null","29","NaN","","","","","","","","","","","","","","",""
"","S2","","html-keyboard-response","193","299662","0.0-1.0-265.0","0","0","85528","","null","","","null","29","","NaN","","","","","","","","","","","","","",""
"","response","","html-keyboard-response","194","300227","0.0-1.0-266.0-0.0","0","0","85528","","564","","","68","29","","","1","29","training","adjacent","ED","5","4","Q.jpg","N.jpg","1","0","0","",""
"","feedback","","html-keyboard-response","195","301234","0.0-1.0-267.0-0.0","0","0","85528","","null","","","null","29","","","","","","","","","","","","","","","",""
"","time_out","","html-keyboard-response","196","303237","0.0-1.0-269.0-0.0","0","0","85528","","null","","","null","29","","","","","","","","","","","","","","","",""
"","ITI","","html-keyboard-response","197","304240","0.0-1.0-270.0","0","0","85528","","null","","","null","29","","","","","","","","","","","","","","","NaN",""
"","S1","","html-keyboard-response","198","304494","0.0-1.0-272.0","0","0","85528","","null","","","null","30","","","","","","","","","","","","","","","",""
"","ISI","","html-keyboard-response","199","306498","0.0-1.0-273.0","0","0","85528","","null","","","null","30","NaN","","","","","","","","","","","","","","",""
"","S2","","html-keyboard-response","200","306753","0.0-1.0-274.0","0","0","85528","","null","","","null","30","","NaN","","","","","","","","","","","","","",""
"","response","","html-keyboard-response","201","307412","0.0-1.0-275.0-0.0","0","0","85528","","657","","","68","30","","","1","30","training","adjacent","FG","6","7","P.jpg","L.jpg","1","1","1","",""
"","feedback","","html-keyboard-response","202","308416","0.0-1.0-276.0-0.0","0","0","85528","","null","","","null","30","","","","","","","","","","","","","","","",""
"","ITI","","html-keyboard-response","203","309420","0.0-1.0-279.0","0","0","85528","","null","","","null","30","","","","","","","","","","","","","","","NaN",""
"","S1","","html-keyboard-response","204","309674","0.0-1.0-281.0","0","0","85528","","null","","","null","31","","","","","","","","","","","","","","","",""
"","ISI","","html-keyboard-response","205","311676","0.0-1.0-282.0","0","0","85528","","null","","","null","31","NaN","","","","","","","","","","","","","","",""
"","S2","","html-keyboard-response","206","311930","0.0-1.0-283.0","0","0","85528","","null","","","null","31","","NaN","","","","","","","","","","","","","",""
"","response","","html-keyboard-response","207","312307","0.0-1.0-284.0-0.0","0","0","85528","","375","","","75","31","","","1","31","training","adjacent","CB","3","2","R.jpg","O.jpg","0","0","1","",""
"","feedback","","html-keyboard-response","208","313312","0.0-1.0-285.0-0.0","0","0","85528","","null","","","null","31","","","","","","","","","","","","","","","",""
"","ITI","","html-keyboard-response","209","314315","0.0-1.0-288.0","0","0","85528","","null","","","null","31","","","","","","","","","","","","","","","NaN",""
"","S1","","html-keyboard-response","210","314570","0.0-1.0-290.0","0","0","85528","","null","","","null","32","","","","","","","","","","","","","","","",""
"","ISI","","html-keyboard-response","211","316572","0.0-1.0-291.0","0","0","85528","","null","","","null","32","NaN","","","","","","","","","","","","","","",""
"","S2","","html-keyboard-response","212","316826","0.0-1.0-292.0","0","0","85528","","null","","","null","32","","NaN","","","","","","","","","","","","","",""
"","response","","html-keyboard-response","213","317220","0.0-1.0-293.0-0.0","0","0","85528","","391","","","68","32","","","1","32","training","adjacent","BC","2","3","O.jpg","R.jpg","1","1","1","",""
"","feedback","","html-keyboard-response","214","318225","0.0-1.0-294.0-0.0","0","0","85528","","null","","","null","32","","","","","","","","","","","","","","","",""
"","ITI","","html-keyboard-response","215","319228","0.0-1.0-297.0","0","0","85528","","null","","","null","32","","","","","","","","","","","","","","","NaN",""
"","S1","","html-keyboard-response","216","319482","0.0-1.0-299.0","0","0","85528","","null","","","null","33","","","","","","","","","","","","","","","",""
"","ISI","","html-keyboard-response","217","321490","0.0-1.0-300.0","0","0","85528","","null","","","null","33","NaN","","","","","","","","","","","","","","",""
"","S2","","html-keyboard-response","218","321744","0.0-1.0-301.0","0","0","85528","","null","","","null","33","","NaN","","","","","","","","","","","","","",""
"","response","","html-keyboard-response","219","322163","0.0-1.0-302.0-0.0","0","0","85528","","417","","","75","33","","","1","33","training","adjacent","EF","5","6","Q.jpg","P.jpg","0","1","0","",""
"","feedback","","html-keyboard-response","220","323167","0.0-1.0-303.0-0.0","0","0","85528","","null","","","null","33","","","","","","","","","","","","","","","",""
"","time_out","","html-keyboard-response","221","325169","0.0-1.0-305.0-0.0","0","0","85528","","null","","","null","33","","","","","","","","","","","","","","","",""
"","ITI","","html-keyboard-response","222","326172","0.0-1.0-306.0","0","0","85528","","null","","","null","33","","","","","","","","","","","","","","","NaN",""
"","S1","","html-keyboard-response","223","326426","0.0-1.0-308.0","0","0","85528","","null","","","null","34","","","","","","","","","","","","","","","",""
"","ISI","","html-keyboard-response","224","328429","0.0-1.0-309.0","0","0","85528","","null","","","null","34","NaN","","","","","","","","","","","","","","",""
"","S2","","html-keyboard-response","225","328683","0.0-1.0-310.0","0","0","85528","","null","","","null","34","","NaN","","","","","","","","","","","","","",""
"","response","","html-keyboard-response","226","329202","0.0-1.0-311.0-0.0","0","0","85528","","519","","","75","34","","","1","34","training","adjacent","DC","4","3","N.jpg","R.jpg","0","0","1","",""
"","feedback","","html-keyboard-response","227","330206","0.0-1.0-312.0-0.0","0","0","85528","","null","","","null","34","","","","","","","","","","","","","","","",""
"","ITI","","html-keyboard-response","228","331210","0.0-1.0-315.0","0","0","85528","","null","","","null","34","","","","","","","","","","","","","","","NaN",""
"","S1","","html-keyboard-response","229","331463","0.0-1.0-317.0","0","0","85528","","null","","","null","35","","","","","","","","","","","","","","","",""
"","ISI","","html-keyboard-response","230","333464","0.0-1.0-318.0","0","0","85528","","null","","","null","35","NaN","","","","","","","","","","","","","","",""
"","S2","","html-keyboard-response","231","333717","0.0-1.0-319.0","0","0","85528","","null","","","null","35","","NaN","","","","","","","","","","","","","",""
"","response","","html-keyboard-response","232","334244","0.0-1.0-320.0-0.0","0","0","85528","","525","","","75","35","","","1","35","training","adjacent","DE","4","5","N.jpg","Q.jpg","0","1","0","",""
"","feedback","","html-keyboard-response","233","335248","0.0-1.0-321.0-0.0","0","0","85528","","null","","","null","35","","","","","","","","","","","","","","","",""
"","time_out","","html-keyboard-response","234","337250","0.0-1.0-323.0-0.0","0","0","85528","","null","","","null","35","","","","","","","","","","","","","","","",""
"","ITI","","html-keyboard-response","235","338253","0.0-1.0-324.0","0","0","85528","","null","","","null","35","","","","","","","","","","","","","","","NaN",""
"","S1","","html-keyboard-response","236","338505","0.0-1.0-326.0","0","0","85528","","null","","","null","36","","","","","","","","","","","","","","","",""
"","ISI","","html-keyboard-response","237","340508","0.0-1.0-327.0","0","0","85528","","null","","","null","36","NaN","","","","","","","","","","","","","","",""
"","S2","","html-keyboard-response","238","340761","0.0-1.0-328.0","0","0","85528","","null","","","null","36","","NaN","","","","","","","","","","","","","",""
"","response","","html-keyboard-response","239","341332","0.0-1.0-329.0-0.0","0","0","85528","","569","","","68","36","","","1","36","training","adjacent","CD","3","4","R.jpg","N.jpg","1","1","1","",""
"","feedback","","html-keyboard-response","240","342339","0.0-1.0-330.0-0.0","0","0","85528","","null","","","null","36","","","","","","","","","","","","","","","",""
"","ITI","","html-keyboard-response","241","343343","0.0-1.0-333.0","0","0","85528","","null","","","null","36","","","","","","","","","","","","","","","NaN",""
"","S1","","html-keyboard-response","242","343596","0.0-1.0-335.0","0","0","85528","","null","","","null","37","","","","","","","","","","","","","","","",""
"","ISI","","html-keyboard-response","243","345599","0.0-1.0-336.0","0","0","85528","","null","","","null","37","NaN","","","","","","","","","","","","","","",""
"","S2","","html-keyboard-response","244","345853","0.0-1.0-337.0","0","0","85528","","null","","","null","37","","NaN","","","","","","","","","","","","","",""
"","response","","html-keyboard-response","245","346450","0.0-1.0-338.0-0.0","0","0","85528","","596","","","75","37","","","1","37","training","adjacent","BA","2","1","O.jpg","M.jpg","0","0","1","",""
"","feedback","","html-keyboard-response","246","347453","0.0-1.0-339.0-0.0","0","0","85528","","null","","","null","37","","","","","","","","","","","","","","","",""
"","ITI","","html-keyboard-response","247","348457","0.0-1.0-342.0","0","0","85528","","null","","","null","37","","","","","","","","","","","","","","","NaN",""
"","S1","","html-keyboard-response","248","348710","0.0-1.0-344.0","0","0","85528","","null","","","null","38","","","","","","","","","","","","","","","",""
"","ISI","","html-keyboard-response","249","350713","0.0-1.0-345.0","0","0","85528","","null","","","null","38","NaN","","","","","","","","","","","","","","",""
"","S2","","html-keyboard-response","250","350967","0.0-1.0-346.0","0","0","85528","","null","","","null","38","","NaN","","","","","","","","","","","","","",""
"","response","","html-keyboard-response","251","351171","0.0-1.0-347.0-0.0","0","0","85528","","203","","","75","38","","","1","38","training","adjacent","DC","4","3","N.jpg","R.jpg","0","0","1","",""
"","feedback","","html-keyboard-response","252","352173","0.0-1.0-348.0-0.0","0","0","85528","","null","","","null","38","","","","","","","","","","","","","","","",""
"","ITI","","html-keyboard-response","253","353177","0.0-1.0-351.0","0","0","85528","","null","","","null","38","","","","","","","","","","","","","","","NaN",""
"","S1","","html-keyboard-response","254","353431","0.0-1.0-353.0","0","0","85528","","null","","","null","39","","","","","","","","","","","","","","","",""
"","ISI","","html-keyboard-response","255","355434","0.0-1.0-354.0","0","0","85528","","null","","","null","39","NaN","","","","","","","","","","","","","","",""
"","S2","","html-keyboard-response","256","355693","0.0-1.0-355.0","0","0","85528","","null","","","null","39","","NaN","","","","","","","","","","","","","",""
"","response","","html-keyboard-response","257","355860","0.0-1.0-356.0-0.0","0","0","85528","","164","","","68","39","","","1","39","training","adjacent","BA","2","1","O.jpg","M.jpg","1","0","0","",""
"","feedback","","html-keyboard-response","258","356864","0.0-1.0-357.0-0.0","0","0","85528","","null","","","null","39","","","","","","","","","","","","","","","",""
"","time_out","","html-keyboard-response","259","358868","0.0-1.0-359.0-0.0","0","0","85528","","null","","","null","39","","","","","","","","","","","","","","","",""
"","ITI","","html-keyboard-response","260","359870","0.0-1.0-360.0","0","0","85528","","null","","","null","39","","","","","","","","","","","","","","","NaN",""
"","S1","","html-keyboard-response","261","360123","0.0-1.0-362.0","0","0","85528","","null","","","null","40","","","","","","","","","","","","","","","",""
"","ISI","","html-keyboard-response","262","362126","0.0-1.0-363.0","0","0","85528","","null","","","null","40","NaN","","","","","","","","","","","","","","",""
"","S2","","html-keyboard-response","263","362380","0.0-1.0-364.0","0","0","85528","","null","","","null","40","","NaN","","","","","","","","","","","","","",""
"","response","","html-keyboard-response","264","362740","0.0-1.0-365.0-0.0","0","0","85528","","359","","","68","40","","","1","40","training","adjacent","FE","6","5","P.jpg","Q.jpg","1","0","0","",""
"","feedback","","html-keyboard-response","265","363744","0.0-1.0-366.0-0.0","0","0","85528","","null","","","null","40","","","","","","","","","","","","","","","",""
"","time_out","","html-keyboard-response","266","365749","0.0-1.0-368.0-0.0","0","0","85528","","null","","","null","40","","","","","","","","","","","","","","","",""
"","ITI","","html-keyboard-response","267","366752","0.0-1.0-369.0","0","0","85528","","null","","","null","40","","","","","","","","","","","","","","","NaN",""
"","S1","","html-keyboard-response","268","367005","0.0-1.0-371.0","0","0","85528","","null","","","null","41","","","","","","","","","","","","","","","",""
"","ISI","","html-keyboard-response","269","369008","0.0-1.0-372.0","0","0","85528","","null","","","null","41","NaN","","","","","","","","","","","","","","",""
"","S2","","html-keyboard-response","270","369261","0.0-1.0-373.0","0","0","85528","","null","","","null","41","","NaN","","","","","","","","","","","","","",""
"","response","","html-keyboard-response","271","369668","0.0-1.0-374.0-0.0","0","0","85528","","404","","","68","41","","","1","41","training","adjacent","AB","1","2","M.jpg","O.jpg","1","1","1","",""
"","feedback","","html-keyboard-response","272","370672","0.0-1.0-375.0-0.0","0","0","85528","","null","","","null","41","","","","","","","","","","","","","","","",""
"","ITI","","html-keyboard-response","273","371676","0.0-1.0-378.0","0","0","85528","","null","","","null","41","","","","","","","","","","","","","","","NaN",""
"","S1","","html-keyboard-response","274","371929","0.0-1.0-380.0","0","0","85528","","null","","","null","42","","","","","","","","","","","","","","","",""
"","ISI","","html-keyboard-response","275","373932","0.0-1.0-381.0","0","0","85528","","null","","","null","42","NaN","","","","","","","","","","","","","","",""
"","S2","","html-keyboard-response","276","374185","0.0-1.0-382.0","0","0","85528","","null","","","null","42","","NaN","","","","","","","","","","","","","",""
"","response","","html-keyboard-response","277","374724","0.0-1.0-383.0-0.0","0","0","85528","","536","","","75","42","","","1","42","training","adjacent","DE","4","5","N.jpg","Q.jpg","0","1","0","",""
"","feedback","","html-keyboard-response","278","375727","0.0-1.0-384.0-0.0","0","0","85528","","null","","","null","42","","","","","","","","","","","","","","","",""
"","time_out","","html-keyboard-response","279","377731","0.0-1.0-386.0-0.0","0","0","85528","","null","","","null","42","","","","","","","","","","","","","","","",""
"","ITI","","html-keyboard-response","280","378735","0.0-1.0-387.0","0","0","85528","","null","","","null","42","","","","","","","","","","","","","","","NaN",""
"","S1","","html-keyboard-response","281","378990","0.0-1.0-389.0","0","0","85528","","null","","","null","43","","","","","","","","","","","","","","","",""
"","ISI","","html-keyboard-response","282","380993","0.0-1.0-390.0","0","0","85528","","null","","","null","43","NaN","","","","","","","","","","","","","","",""
"","S2","","html-keyboard-response","283","381255","0.0-1.0-391.0","0","0","85528","","null","","","null","43","","NaN","","","","","","","","","","","","","",""
"","response","","html-keyboard-response","284","381779","0.0-1.0-392.0-0.0","0","0","85528","","521","","","75","43","","","1","43","training","adjacent","GF","7","6","L.jpg","P.jpg","0","0","1","",""
"","feedback","","html-keyboard-response","285","382784","0.0-1.0-393.0-0.0","0","0","85528","","null","","","null","43","","","","","","","","","","","","","","","",""
"","ITI","","html-keyboard-response","286","383788","0.0-1.0-396.0","0","0","85528","","null","","","null","43","","","","","","","","","","","","","","","NaN",""
"","S1","","html-keyboard-response","287","384041","0.0-1.0-398.0","0","0","85528","","null","","","null","44","","","","","","","","","","","","","","","",""
"","ISI","","html-keyboard-response","288","386045","0.0-1.0-399.0","0","0","85528","","null","","","null","44","NaN","","","","","","","","","","","","","","",""
"","S2","","html-keyboard-response","289","386299","0.0-1.0-400.0","0","0","85528","","null","","","null","44","","NaN","","","","","","","","","","","","","",""
"","response","","html-keyboard-response","290","386852","0.0-1.0-401.0-0.0","0","0","85528","","550","","","75","44","","","1","44","training","adjacent","EF","5","6","Q.jpg","P.jpg","0","1","0","",""
"","feedback","","html-keyboard-response","291","387855","0.0-1.0-402.0-0.0","0","0","85528","","null","","","null","44","","","","","","","","","","","","","","","",""
"","time_out","","html-keyboard-response","292","389863","0.0-1.0-404.0-0.0","0","0","85528","","null","","","null","44","","","","","","","","","","","","","","","",""
"","ITI","","html-keyboard-response","293","390866","0.0-1.0-405.0","0","0","85528","","null","","","null","44","","","","","","","","","","","","","","","NaN",""
"","S1","","html-keyboard-response","294","391120","0.0-1.0-407.0","0","0","85528","","null","","","null","45","","","","","","","","","","","","","","","",""
"","ISI","","html-keyboard-response","295","393124","0.0-1.0-408.0","0","0","85528","","null","","","null","45","NaN","","","","","","","","","","","","","","",""
"","S2","","html-keyboard-response","296","393379","0.0-1.0-409.0","0","0","85528","","null","","","null","45","","NaN","","","","","","","","","","","","","",""
"","response","","html-keyboard-response","297","393827","0.0-1.0-410.0-0.0","0","0","85528","","446","","","68","45","","","1","45","training","adjacent","FG","6","7","P.jpg","L.jpg","1","1","1","",""
"","feedback","","html-keyboard-response","298","394831","0.0-1.0-411.0-0.0","0","0","85528","","null","","","null","45","","","","","","","","","","","","","","","",""
"","ITI","","html-keyboard-response","299","395834","0.0-1.0-414.0","0","0","85528","","null","","","null","45","","","","","","","","","","","","","","","NaN",""
"","S1","","html-keyboard-response","300","396091","0.0-1.0-416.0","0","0","85528","","null","","","null","46","","","","","","","","","","","","","","","",""
"","ISI","","html-keyboard-response","301","398094","0.0-1.0-417.0","0","0","85528","","null","","","null","46","NaN","","","","","","","","","","","","","","",""
"","S2","","html-keyboard-response","302","398347","0.0-1.0-418.0","0","0","85528","","null","","","null","46","","NaN","","","","","","","","","","","","","",""
"","response","","html-keyboard-response","303","398995","0.0-1.0-419.0-0.0","0","0","85528","","645","","","68","46","","","1","46","training","adjacent","CD","3","4","R.jpg","N.jpg","1","1","1","",""
"","feedback","","html-keyboard-response","304","399999","0.0-1.0-420.0-0.0","0","0","85528","","null","","","null","46","","","","","","","","","","","","","","","",""
"","ITI","","html-keyboard-response","305","401003","0.0-1.0-423.0","0","0","85528","","null","","","null","46","","","","","","","","","","","","","","","NaN",""
"","S1","","html-keyboard-response","306","401256","0.0-1.0-425.0","0","0","85528","","null","","","null","47","","","","","","","","","","","","","","","",""
"","ISI","","html-keyboard-response","307","403259","0.0-1.0-426.0","0","0","85528","","null","","","null","47","NaN","","","","","","","","","","","","","","",""
"","S2","","html-keyboard-response","308","403513","0.0-1.0-427.0","0","0","85528","","null","","","null","47","","NaN","","","","","","","","","","","","","",""
"","response","","html-keyboard-response","309","404083","0.0-1.0-428.0-0.0","0","0","85528","","567","","","75","47","","","1","47","training","adjacent","ED","5","4","Q.jpg","N.jpg","0","0","1","",""
"","feedback","","html-keyboard-response","310","405088","0.0-1.0-429.0-0.0","0","0","85528","","null","","","null","47","","","","","","","","","","","","","","","",""
"","ITI","","html-keyboard-response","311","406091","0.0-1.0-432.0","0","0","85528","","null","","","null","47","","","","","","","","","","","","","","","NaN",""
"","block_over","","html-keyboard-response","312","411091","0.0-1.0-433.0-0.0","0","0","85528","","4997","","","32","47","","","","","","","","","","","","","","","",""
"","S1","","html-keyboard-response","313","411345","0.0-1.0-434.0","0","0","85528","","null","","","null","48","","","","","","","","","","","","","","","",""
"","ISI","","html-keyboard-response","314","413347","0.0-1.0-435.0","0","0","85528","","null","","","null","48","NaN","","","","","","","","","","","","","","",""
"","S2","","html-keyboard-response","315","413601","0.0-1.0-436.0","0","0","85528","","null","","","null","48","","NaN","","","","","","","","","","","","","",""
"","response","","html-keyboard-response","316","414035","0.0-1.0-437.0-0.0","0","0","85528","","432","","","75","48","","","2","48","training","adjacent","EF","5","6","Q.jpg","P.jpg","0","1","0","",""
"","feedback","","html-keyboard-response","317","415040","0.0-1.0-438.0-0.0","0","0","85528","","null","","","null","48","","","","","","","","","","","","","","","",""
"","time_out","","html-keyboard-response","318","417042","0.0-1.0-440.0-0.0","0","0","85528","","null","","","null","48","","","","","","","","","","","","","","","",""
"","ITI","","html-keyboard-response","319","418045","0.0-1.0-441.0","0","0","85528","","null","","","null","48","","","","","","","","","","","","","","","NaN",""
"","S1","","html-keyboard-response","320","418298","0.0-1.0-443.0","0","0","85528","","null","","","null","49","","","","","","","","","","","","","","","",""
"","ISI","","html-keyboard-response","321","420302","0.0-1.0-444.0","0","0","85528","","null","","","null","49","NaN","","","","","","","","","","","","","","",""
"","S2","","html-keyboard-response","322","420555","0.0-1.0-445.0","0","0","85528","","null","","","null","49","","NaN","","","","","","","","","","","","","",""
"","response","","html-keyboard-response","323","421043","0.0-1.0-446.0-0.0","0","0","85528","","485","","","68","49","","","2","49","training","adjacent","FE","6","5","P.jpg","Q.jpg","1","0","0","",""
"","feedback","","html-keyboard-response","324","422045","0.0-1.0-447.0-0.0","0","0","85528","","null","","","null","49","","","","","","","","","","","","","","","",""
"","time_out","","html-keyboard-response","325","424049","0.0-1.0-449.0-0.0","0","0","85528","","null","","","null","49","","","","","","","","","","","","","","","",""
"","ITI","","html-keyboard-response","326","425052","0.0-1.0-450.0","0","0","85528","","null","","","null","49","","","","","","","","","","","","","","","NaN",""
"","S1","","html-keyboard-response","327","425306","0.0-1.0-452.0","0","0","85528","","null","","","null","50","","","","","","","","","","","","","","","",""
"","ISI","","html-keyboard-response","328","427308","0.0-1.0-453.0","0","0","85528","","null","","","null","50","NaN","","","","","","","","","","","","","","",""
"","S2","","html-keyboard-response","329","427561","0.0-1.0-454.0","0","0","85528","","null","","","null","50","","NaN","","","","","","","","","","","","","",""
"","response","","html-keyboard-response","330","428355","0.0-1.0-455.0-0.0","0","0","85528","","791","","","75","50","","","2","50","training","adjacent","BA","2","1","O.jpg","M.jpg","0","0","1","",""
"","feedback","","html-keyboard-response","331","429360","0.0-1.0-456.0-0.0","0","0","85528","","null","","","null","50","","","","","","","","","","","","","","","",""
"","ITI","","html-keyboard-response","332","430364","0.0-1.0-459.0","0","0","85528","","null","","","null","50","","","","","","","","","","","","","","","NaN",""
"","S1","","html-keyboard-response","333","430618","0.0-1.0-461.0","0","0","85528","","null","","","null","51","","","","","","","","","","","","","","","",""
"","ISI","","html-keyboard-response","334","432622","0.0-1.0-462.0","0","0","85528","","null","","","null","51","NaN","","","","","","","","","","","","","","",""
"","S2","","html-keyboard-response","335","432875","0.0-1.0-463.0","0","0","85528","","null","","","null","51","","NaN","","","","","","","","","","","","","",""
"","response","","html-keyboard-response","336","433315","0.0-1.0-464.0-0.0","0","0","85528","","437","","","68","51","","","2","51","training","adjacent","GF","7","6","L.jpg","P.jpg","1","0","0","",""
"","feedback","","html-keyboard-response","337","434320","0.0-1.0-465.0-0.0","0","0","85528","","null","","","null","51","","","","","","","","","","","","","","","",""
"","time_out","","html-keyboard-response","338","436323","0.0-1.0-467.0-0.0","0","0","85528","","null","","","null","51","","","","","","","","","","","","","","","",""
"","ITI","","html-keyboard-response","339","437325","0.0-1.0-468.0","0","0","85528","","null","","","null","51","","","","","","","","","","","","","","","NaN",""
"","S1","","html-keyboard-response","340","437577","0.0-1.0-470.0","0","0","85528","","null","","","null","52","","","","","","","","","","","","","","","",""
"","ISI","","html-keyboard-response","341","439580","0.0-1.0-471.0","0","0","85528","","null","","","null","52","NaN","","","","","","","","","","","","","","",""
"","S2","","html-keyboard-response","342","439835","0.0-1.0-472.0","0","0","85528","","null","","","null","52","","NaN","","","","","","","","","","","","","",""
"","response","","html-keyboard-response","343","440372","0.0-1.0-473.0-0.0","0","0","85528","","534","","","68","52","","","2","52","training","adjacent","CB","3","2","R.jpg","O.jpg","1","0","0","",""
"","feedback","","html-keyboard-response","344","441374","0.0-1.0-474.0-0.0","0","0","85528","","null","","","null","52","","","","","","","","","","","","","","","",""
"","time_out","","html-keyboard-response","345","443377","0.0-1.0-476.0-0.0","0","0","85528","","null","","","null","52","","","","","","","","","","","","","","","",""
"","ITI","","html-keyboard-response","346","444380","0.0-1.0-477.0","0","0","85528","","null","","","null","52","","","","","","","","","","","","","","","NaN",""
"","S1","","html-keyboard-response","347","444634","0.0-1.0-479.0","0","0","85528","","null","","","null","53","","","","","","","","","","","","","","","",""
"","ISI","","html-keyboard-response","348","446636","0.0-1.0-480.0","0","0","85528","","null","","","null","53","NaN","","","","","","","","","","","","","","",""
"","S2","","html-keyboard-response","349","446890","0.0-1.0-481.0","0","0","85528","","null","","","null","53","","NaN","","","","","","","","","","","","","",""
"","response","","html-keyboard-response","350","447602","0.0-1.0-482.0-0.0","0","0","85528","","711","","","68","53","","","2","53","training","adjacent","ED","5","4","Q.jpg","N.jpg","1","0","0","",""
"","feedback","","html-keyboard-response","351","448605","0.0-1.0-483.0-0.0","0","0","85528","","null","","","null","53","","","","","","","","","","","","","","","",""
"","time_out","","html-keyboard-response","352","450608","0.0-1.0-485.0-0.0","0","0","85528","","null","","","null","53","","","","","","","","","","","","","","","",""
"","ITI","","html-keyboard-response","353","451611","0.0-1.0-486.0","0","0","85528","","null","","","null","53","","","","","","","","","","","","","","","NaN",""
"","S1","","html-keyboard-response","354","451865","0.0-1.0-488.0","0","0","85528","","null","","","null","54","","","","","","","","","","","","","","","",""
"","ISI","","html-keyboard-response","355","453868","0.0-1.0-489.0","0","0","85528","","null","","","null","54","NaN","","","","","","","","","","","","","","",""
"","S2","","html-keyboard-response","356","454122","0.0-1.0-490.0","0","0","85528","","null","","","null","54","","NaN","","","","","","","","","","","","","",""
"","response","","html-keyboard-response","357","454546","0.0-1.0-491.0-0.0","0","0","85528","","422","","","75","54","","","2","54","training","adjacent","CB","3","2","R.jpg","O.jpg","0","0","1","",""
"","feedback","","html-keyboard-response","358","455549","0.0-1.0-492.0-0.0","0","0","85528","","null","","","null","54","","","","","","","","","","","","","","","",""
"","ITI","","html-keyboard-response","359","456554","0.0-1.0-495.0","0","0","85528","","null","","","null","54","","","","","","","","","","","","","","","NaN",""
"","S1","","html-keyboard-response","360","456807","0.0-1.0-497.0","0","0","85528","","null","","","null","55","","","","","","","","","","","","","","","",""
"","ISI","","html-keyboard-response","361","458811","0.0-1.0-498.0","0","0","85528","","null","","","null","55","NaN","","","","","","","","","","","","","","",""
"","S2","","html-keyboard-response","362","459065","0.0-1.0-499.0","0","0","85528","","null","","","null","55","","NaN","","","","","","","","","","","","","",""
"","response","","html-keyboard-response","363","459715","0.0-1.0-500.0-0.0","0","0","85528","","647","","","68","55","","","2","55","training","adjacent","AB","1","2","M.jpg","O.jpg","1","1","1","",""
"","feedback","","html-keyboard-response","364","460720","0.0-1.0-501.0-0.0","0","0","85528","","null","","","null","55","","","","","","","","","","","","","","","",""
"","ITI","","html-keyboard-response","365","461724","0.0-1.0-504.0","0","0","85528","","null","","","null","55","","","","","","","","","","","","","","","NaN",""
"","S1","","html-keyboard-response","366","461978","0.0-1.0-506.0","0","0","85528","","null","","","null","56","","","","","","","","","","","","","","","",""
"","ISI","","html-keyboard-response","367","463981","0.0-1.0-507.0","0","0","85528","","null","","","null","56","NaN","","","","","","","","","","","","","","",""
"","S2","","html-keyboard-response","368","464235","0.0-1.0-508.0","0","0","85528","","null","","","null","56","","NaN","","","","","","","","","","","","","",""
"","response","","html-keyboard-response","369","464756","0.0-1.0-509.0-0.0","0","0","85528","","518","","","75","56","","","2","56","training","adjacent","DE","4","5","N.jpg","Q.jpg","0","1","0","",""
"","feedback","","html-keyboard-response","370","465760","0.0-1.0-510.0-0.0","0","0","85528","","null","","","null","56","","","","","","","","","","","","","","","",""
"","time_out","","html-keyboard-response","371","467764","0.0-1.0-512.0-0.0","0","0","85528","","null","","","null","56","","","","","","","","","","","","","","","",""
"","ITI","","html-keyboard-response","372","468767","0.0-1.0-513.0","0","0","85528","","null","","","null","56","","","","","","","","","","","","","","","NaN",""
"","S1","","html-keyboard-response","373","469021","0.0-1.0-515.0","0","0","85528","","null","","","null","57","","","","","","","","","","","","","","","",""
"","ISI","","html-keyboard-response","374","471024","0.0-1.0-516.0","0","0","85528","","null","","","null","57","NaN","","","","","","","","","","","","","","",""
"","S2","","html-keyboard-response","375","471279","0.0-1.0-517.0","0","0","85528","","null","","","null","57","","NaN","","","","","","","","","","","","","",""
"","response","","html-keyboard-response","376","471827","0.0-1.0-518.0-0.0","0","0","85528","","546","","","68","57","","","2","57","training","adjacent","CD","3","4","R.jpg","N.jpg","1","1","1","",""
"","feedback","","html-keyboard-response","377","472832","0.0-1.0-519.0-0.0","0","0","85528","","null","","","null","57","","","","","","","","","","","","","","","",""
"","ITI","","html-keyboard-response","378","473836","0.0-1.0-522.0","0","0","85528","","null","","","null","57","","","","","","","","","","","","","","","NaN",""
"","S1","","html-keyboard-response","379","474090","0.0-1.0-524.0","0","0","85528","","null","","","null","58","","","","","","","","","","","","","","","",""
"","ISI","","html-keyboard-response","380","476093","0.0-1.0-525.0","0","0","85528","","null","","","null","58","NaN","","","","","","","","","","","","","","",""
"","S2","","html-keyboard-response","381","476347","0.0-1.0-526.0","0","0","85528","","null","","","null","58","","NaN","","","","","","","","","","","","","",""
"","response","","html-keyboard-response","382","476707","0.0-1.0-527.0-0.0","0","0","85528","","358","","","68","58","","","2","58","training","adjacent","FE","6","5","P.jpg","Q.jpg","1","0","0","",""
"","feedback","","html-keyboard-response","383","477711","0.0-1.0-528.0-0.0","0","0","85528","","null","","","null","58","","","","","","","","","","","","","","","",""
"","time_out","","html-keyboard-response","384","479713","0.0-1.0-530.0-0.0","0","0","85528","","null","","","null","58","","","","","","","","","","","","","","","",""
"","ITI","","html-keyboard-response","385","480727","0.0-1.0-531.0","0","0","85528","","null","","","null","58","","","","","","","","","","","","","","","NaN",""
"","S1","","html-keyboard-response","386","480979","0.0-1.0-533.0","0","0","85528","","null","","","null","59","","","","","","","","","","","","","","","",""
"","ISI","","html-keyboard-response","387","482980","0.0-1.0-534.0","0","0","85528","","null","","","null","59","NaN","","","","","","","","","","","","","","",""
"","S2","","html-keyboard-response","388","483233","0.0-1.0-535.0","0","0","85528","","null","","","null","59","","NaN","","","","","","","","","","","","","",""
"","response","","html-keyboard-response","389","483971","0.0-1.0-536.0-0.0","0","0","85528","","735","","","68","59","","","2","59","training","adjacent","DE","4","5","N.jpg","Q.jpg","1","1","1","",""
"","feedback","","html-keyboard-response","390","484974","0.0-1.0-537.0-0.0","0","0","85528","","null","","","null","59","","","","","","","","","","","","","","","",""
"","ITI","","html-keyboard-response","391","485978","0.0-1.0-540.0","0","0","85528","","null","","","null","59","","","","","","","","","","","","","","","NaN",""
"","S1","","html-keyboard-response","392","486232","0.0-1.0-542.0","0","0","85528","","null","","","null","60","","","","","","","","","","","","","","","",""
"","ISI","","html-keyboard-response","393","488233","0.0-1.0-543.0","0","0","85528","","null","","","null","60","NaN","","","","","","","","","","","","","","",""
"","S2","","html-keyboard-response","394","488487","0.0-1.0-544.0","0","0","85528","","null","","","null","60","","NaN","","","","","","","","","","","","","",""
"","response","","html-keyboard-response","395","489139","0.0-1.0-545.0-0.0","0","0","85528","","650","","","68","60","","","2","60","training","adjacent","ED","5","4","Q.jpg","N.jpg","1","0","0","",""
"","feedback","","html-keyboard-response","396","490144","0.0-1.0-546.0-0.0","0","0","85528","","null","","","null","60","","","","","","","","","","","","","","","",""
"","time_out","","html-keyboard-response","397","492147","0.0-1.0-548.0-0.0","0","0","85528","","null","","","null","60","","","","","","","","","","","","","","","",""
"","ITI","","html-keyboard-response","398","493150","0.0-1.0-549.0","0","0","85528","","null","","","null","60","","","","","","","","","","","","","","","NaN",""
"","S1","","html-keyboard-response","399","493404","0.0-1.0-551.0","0","0","85528","","null","","","null","61","","","","","","","","","","","","","","","",""
"","ISI","","html-keyboard-response","400","495407","0.0-1.0-552.0","0","0","85528","","null","","","null","61","NaN","","","","","","","","","","","","","","",""
"","S2","","html-keyboard-response","401","495661","0.0-1.0-553.0","0","0","85528","","null","","","null","61","","NaN","","","","","","","","","","","","","",""
"","response","","html-keyboard-response","402","496275","0.0-1.0-554.0-0.0","0","0","85528","","611","","","68","61","","","2","61","training","adjacent","FG","6","7","P.jpg","L.jpg","1","1","1","",""
"","feedback","","html-keyboard-response","403","497279","0.0-1.0-555.0-0.0","0","0","85528","","null","","","null","61","","","","","","","","","","","","","","","",""
"","ITI","","html-keyboard-response","404","498284","0.0-1.0-558.0","0","0","85528","","null","","","null","61","","","","","","","","","","","","","","","NaN",""
"","S1","","html-keyboard-response","405","498539","0.0-1.0-560.0","0","0","85528","","null","","","null","62","","","","","","","","","","","","","","","",""
"","ISI","","html-keyboard-response","406","500542","0.0-1.0-561.0","0","0","85528","","null","","","null","62","NaN","","","","","","","","","","","","","","",""
"","S2","","html-keyboard-response","407","500795","0.0-1.0-562.0","0","0","85528","","null","","","null","62","","NaN","","","","","","","","","","","","","",""
"","response","","html-keyboard-response","408","501332","0.0-1.0-563.0-0.0","0","0","85528","","534","","","68","62","","","2","62","training","adjacent","BC","2","3","O.jpg","R.jpg","1","1","1","",""
"","feedback","","html-keyboard-response","409","502336","0.0-1.0-564.0-0.0","0","0","85528","","null","","","null","62","","","","","","","","","","","","","","","",""
"","ITI","","html-keyboard-response","410","503340","0.0-1.0-567.0","0","0","85528","","null","","","null","62","","","","","","","","","","","","","","","NaN",""
"","S1","","html-keyboard-response","411","503595","0.0-1.0-569.0","0","0","85528","","null","","","null","63","","","","","","","","","","","","","","","",""
"","ISI","","html-keyboard-response","412","505610","0.0-1.0-570.0","0","0","85528","","null","","","null","63","NaN","","","","","","","","","","","","","","",""
"","S2","","html-keyboard-response","413","505864","0.0-1.0-571.0","0","0","85528","","null","","","null","63","","NaN","","","","","","","","","","","","","",""
"","response","","html-keyboard-response","414","506323","0.0-1.0-572.0-0.0","0","0","85528","","456","","","68","63","","","2","63","training","adjacent","DE","4","5","N.jpg","Q.jpg","1","1","1","",""
"","feedback","","html-keyboard-response","415","507327","0.0-1.0-573.0-0.0","0","0","85528","","null","","","null","63","","","","","","","","","","","","","","","",""
"","ITI","","html-keyboard-response","416","508338","0.0-1.0-576.0","0","0","85528","","null","","","null","63","","","","","","","","","","","","","","","NaN",""
"","S1","","html-keyboard-response","417","508590","0.0-1.0-578.0","0","0","85528","","null","","","null","64","","","","","","","","","","","","","","","",""
"","ISI","","html-keyboard-response","418","510592","0.0-1.0-579.0","0","0","85528","","null","","","null","64","NaN","","","","","","","","","","","","","","",""
"","S2","","html-keyboard-response","419","510847","0.0-1.0-580.0","0","0","85528","","null","","","null","64","","NaN","","","","","","","","","","","","","",""
"","response","","html-keyboard-response","420","511202","0.0-1.0-581.0-0.0","0","0","85528","","353","","","68","64","","","2","64","training","adjacent","DC","4","3","N.jpg","R.jpg","1","0","0","",""
"","feedback","","html-keyboard-response","421","512207","0.0-1.0-582.0-0.0","0","0","85528","","null","","","null","64","","","","","","","","","","","","","","","",""
"","time_out","","html-keyboard-response","422","514209","0.0-1.0-584.0-0.0","0","0","85528","","null","","","null","64","","","","","","","","","","","","","","","",""
"","ITI","","html-keyboard-response","423","515213","0.0-1.0-585.0","0","0","85528","","null","","","null","64","","","","","","","","","","","","","","","NaN",""
"","S1","","html-keyboard-response","424","515467","0.0-1.0-587.0","0","0","85528","","null","","","null","65","","","","","","","","","","","","","","","",""
"","ISI","","html-keyboard-response","425","517471","0.0-1.0-588.0","0","0","85528","","null","","","null","65","NaN","","","","","","","","","","","","","","",""
"","S2","","html-keyboard-response","426","517724","0.0-1.0-589.0","0","0","85528","","null","","","null","65","","NaN","","","","","","","","","","","","","",""
"","response","","html-keyboard-response","427","518145","0.0-1.0-590.0-0.0","0","0","85528","","420","","","68","65","","","2","65","training","adjacent","FG","6","7","P.jpg","L.jpg","1","1","1","",""
"","feedback","","html-keyboard-response","428","519154","0.0-1.0-591.0-0.0","0","0","85528","","null","","","null","65","","","","","","","","","","","","","","","",""
"","ITI","","html-keyboard-response","429","520157","0.0-1.0-594.0","0","0","85528","","null","","","null","65","","","","","","","","","","","","","","","NaN",""
"","S1","","html-keyboard-response","430","520410","0.0-1.0-596.0","0","0","85528","","null","","","null","66","","","","","","","","","","","","","","","",""
"","ISI","","html-keyboard-response","431","522412","0.0-1.0-597.0","0","0","85528","","null","","","null","66","NaN","","","","","","","","","","","","","","",""
"","S2","","html-keyboard-response","432","522666","0.0-1.0-598.0","0","0","85528","","null","","","null","66","","NaN","","","","","","","","","","","","","",""
"","response","","html-keyboard-response","433","523155","0.0-1.0-599.0-0.0","0","0","85528","","486","","","68","66","","","2","66","training","adjacent","FE","6","5","P.jpg","Q.jpg","1","0","0","",""
"","feedback","","html-keyboard-response","434","524158","0.0-1.0-600.0-0.0","0","0","85528","","null","","","null","66","","","","","","","","","","","","","","","",""
"","time_out","","html-keyboard-response","435","526162","0.0-1.0-602.0-0.0","0","0","85528","","null","","","null","66","","","","","","","","","","","","","","","",""
"","ITI","","html-keyboard-response","436","527165","0.0-1.0-603.0","0","0","85528","","null","","","null","66","","","","","","","","","","","","","","","NaN",""
"","S1","","html-keyboard-response","437","527419","0.0-1.0-605.0","0","0","85528","","null","","","null","67","","","","","","","","","","","","","","","",""
"","ISI","","html-keyboard-response","438","529423","0.0-1.0-606.0","0","0","85528","","null","","","null","67","NaN","","","","","","","","","","","","","","",""
"","S2","","html-keyboard-response","439","529678","0.0-1.0-607.0","0","0","85528","","null","","","null","67","","NaN","","","","","","","","","","","","","",""
"","response","","html-keyboard-response","440","530227","0.0-1.0-608.0-0.0","0","0","85528","","546","","","75","67","","","2","67","training","adjacent","BA","2","1","O.jpg","M.jpg","0","0","1","",""
"","feedback","","html-keyboard-response","441","531231","0.0-1.0-609.0-0.0","0","0","85528","","null","","","null","67","","","","","","","","","","","","","","","",""
"","ITI","","html-keyboard-response","442","532235","0.0-1.0-612.0","0","0","85528","","null","","","null","67","","","","","","","","","","","","","","","NaN",""
"","S1","","html-keyboard-response","443","532490","0.0-1.0-614.0","0","0","85528","","null","","","null","68","","","","","","","","","","","","","","","",""
"","ISI","","html-keyboard-response","444","534493","0.0-1.0-615.0","0","0","85528","","null","","","null","68","NaN","","","","","","","","","","","","","","",""
"","S2","","html-keyboard-response","445","534746","0.0-1.0-616.0","0","0","85528","","null","","","null","68","","NaN","","","","","","","","","","","","","",""
"","response","","html-keyboard-response","446","535442","0.0-1.0-617.0-0.0","0","0","85528","","694","","","75","68","","","2","68","training","adjacent","CB","3","2","R.jpg","O.jpg","0","0","1","",""
"","feedback","","html-keyboard-response","447","536445","0.0-1.0-618.0-0.0","0","0","85528","","null","","","null","68","","","","","","","","","","","","","","","",""
"","ITI","","html-keyboard-response","448","537449","0.0-1.0-621.0","0","0","85528","","null","","","null","68","","","","","","","","","","","","","","","NaN",""
"","S1","","html-keyboard-response","449","537702","0.0-1.0-623.0","0","0","85528","","null","","","null","69","","","","","","","","","","","","","","","",""
"","ISI","","html-keyboard-response","450","539705","0.0-1.0-624.0","0","0","85528","","null","","","null","69","NaN","","","","","","","","","","","","","","",""
"","S2","","html-keyboard-response","451","539958","0.0-1.0-625.0","0","0","85528","","null","","","null","69","","NaN","","","","","","","","","","","","","",""
"","response","","html-keyboard-response","452","540145","0.0-1.0-626.0-0.0","0","0","85528","","184","","","68","69","","","2","69","training","adjacent","BC","2","3","O.jpg","R.jpg","1","1","1","",""
"","feedback","","html-keyboard-response","453","541149","0.0-1.0-627.0-0.0","0","0","85528","","null","","","null","69","","","","","","","","","","","","","","","",""
"","ITI","","html-keyboard-response","454","542153","0.0-1.0-630.0","0","0","85528","","null","","","null","69","","","","","","","","","","","","","","","NaN",""
"","S1","","html-keyboard-response","455","542407","0.0-1.0-632.0","0","0","85528","","null","","","null","70","","","","","","","","","","","","","","","",""
"","ISI","","html-keyboard-response","456","544410","0.0-1.0-633.0","0","0","85528","","null","","","null","70","NaN","","","","","","","","","","","","","","",""
"","S2","","html-keyboard-response","457","544663","0.0-1.0-634.0","0","0","85528","","null","","","null","70","","NaN","","","","","","","","","","","","","",""
"","response","","html-keyboard-response","458","544979","0.0-1.0-635.0-0.0","0","0","85528","","314","","","75","70","","","2","70","training","adjacent","GF","7","6","L.jpg","P.jpg","0","0","1","",""
"","feedback","","html-keyboard-response","459","545984","0.0-1.0-636.0-0.0","0","0","85528","","null","","","null","70","","","","","","","","","","","","","","","",""
"","ITI","","html-keyboard-response","460","546987","0.0-1.0-639.0","0","0","85528","","null","","","null","70","","","","","","","","","","","","","","","NaN",""
"","S1","","html-keyboard-response","461","547240","0.0-1.0-641.0","0","0","85528","","null","","","null","71","","","","","","","","","","","","","","","",""
"","ISI","","html-keyboard-response","462","549243","0.0-1.0-642.0","0","0","85528","","null","","","null","71","NaN","","","","","","","","","","","","","","",""
"","S2","","html-keyboard-response","463","549497","0.0-1.0-643.0","0","0","85528","","null","","","null","71","","NaN","","","","","","","","","","","","","",""
"","response","","html-keyboard-response","464","549971","0.0-1.0-644.0-0.0","0","0","85528","","471","","","68","71","","","2","71","training","adjacent","FG","6","7","P.jpg","L.jpg","1","1","1","",""
"","feedback","","html-keyboard-response","465","550975","0.0-1.0-645.0-0.0","0","0","85528","","null","","","null","71","","","","","","","","","","","","","","","",""
"","ITI","","html-keyboard-response","466","551979","0.0-1.0-648.0","0","0","85528","","null","","","null","71","","","","","","","","","","","","","","","NaN",""
"","S1","","html-keyboard-response","467","552233","0.0-1.0-650.0","0","0","85528","","null","","","null","72","","","","","","","","","","","","","","","",""
"","ISI","","html-keyboard-response","468","554236","0.0-1.0-651.0","0","0","85528","","null","","","null","72","NaN","","","","","","","","","","","","","","",""
"","S2","","html-keyboard-response","469","554490","0.0-1.0-652.0","0","0","85528","","null","","","null","72","","NaN","","","","","","","","","","","","","",""
"","response","","html-keyboard-response","470","554961","0.0-1.0-653.0-0.0","0","0","85528","","469","","","75","72","","","2","72","training","adjacent","BA","2","1","O.jpg","M.jpg","0","0","1","",""
"","feedback","","html-keyboard-response","471","555964","0.0-1.0-654.0-0.0","0","0","85528","","null","","","null","72","","","","","","","","","","","","","","","",""
"","ITI","","html-keyboard-response","472","556967","0.0-1.0-657.0","0","0","85528","","null","","","null","72","","","","","","","","","","","","","","","NaN",""
"","S1","","html-keyboard-response","473","557221","0.0-1.0-659.0","0","0","85528","","null","","","null","73","","","","","","","","","","","","","","","",""
"","ISI","","html-keyboard-response","474","559225","0.0-1.0-660.0","0","0","85528","","null","","","null","73","NaN","","","","","","","","","","","","","","",""
"","S2","","html-keyboard-response","475","559479","0.0-1.0-661.0","0","0","85528","","null","","","null","73","","NaN","","","","","","","","","","","","","",""
"","response","","html-keyboard-response","476","560147","0.0-1.0-662.0-0.0","0","0","85528","","665","","","75","73","","","2","73","training","adjacent","EF","5","6","Q.jpg","P.jpg","0","1","0","",""
"","feedback","","html-keyboard-response","477","561151","0.0-1.0-663.0-0.0","0","0","85528","","null","","","null","73","","","","","","","","","","","","","","","",""
"","time_out","","html-keyboard-response","478","563154","0.0-1.0-665.0-0.0","0","0","85528","","null","","","null","73","","","","","","","","","","","","","","","",""
"","ITI","","html-keyboard-response","479","564158","0.0-1.0-666.0","0","0","85528","","null","","","null","73","","","","","","","","","","","","","","","NaN",""
"","S1","","html-keyboard-response","480","564412","0.0-1.0-668.0","0","0","85528","","null","","","null","74","","","","","","","","","","","","","","","",""
"","ISI","","html-keyboard-response","481","566415","0.0-1.0-669.0","0","0","85528","","null","","","null","74","NaN","","","","","","","","","","","","","","",""
"","S2","","html-keyboard-response","482","566669","0.0-1.0-670.0","0","0","85528","","null","","","null","74","","NaN","","","","","","","","","","","","","",""
"","response","","html-keyboard-response","483","567059","0.0-1.0-671.0-0.0","0","0","85528","","388","","","68","74","","","2","74","training","adjacent","AB","1","2","M.jpg","O.jpg","1","1","1","",""
"","feedback","","html-keyboard-response","484","568064","0.0-1.0-672.0-0.0","0","0","85528","","null","","","null","74","","","","","","","","","","","","","","","",""
"","ITI","","html-keyboard-response","485","569068","0.0-1.0-675.0","0","0","85528","","null","","","null","74","","","","","","","","","","","","","","","NaN",""
"","S1","","html-keyboard-response","486","569321","0.0-1.0-677.0","0","0","85528","","null","","","null","75","","","","","","","","","","","","","","","",""
"","ISI","","html-keyboard-response","487","571323","0.0-1.0-678.0","0","0","85528","","null","","","null","75","NaN","","","","","","","","","","","","","","",""
"","S2","","html-keyboard-response","488","571576","0.0-1.0-679.0","0","0","85528","","null","","","null","75","","NaN","","","","","","","","","","","","","",""
"","response","","html-keyboard-response","489","572099","0.0-1.0-680.0-0.0","0","0","85528","","521","","","68","75","","","2","75","training","adjacent","AB","1","2","M.jpg","O.jpg","1","1","1","",""
"","feedback","","html-keyboard-response","490","573103","0.0-1.0-681.0-0.0","0","0","85528","","null","","","null","75","","","","","","","","","","","","","","","",""
"","ITI","","html-keyboard-response","491","574106","0.0-1.0-684.0","0","0","85528","","null","","","null","75","","","","","","","","","","","","","","","NaN",""
"","S1","","html-keyboard-response","492","574359","0.0-1.0-686.0","0","0","85528","","null","","","null","76","","","","","","","","","","","","","","","",""
"","ISI","","html-keyboard-response","493","576363","0.0-1.0-687.0","0","0","85528","","null","","","null","76","NaN","","","","","","","","","","","","","","",""
"","S2","","html-keyboard-response","494","576617","0.0-1.0-688.0","0","0","85528","","null","","","null","76","","NaN","","","","","","","","","","","","","",""
"","response","","html-keyboard-response","495","577171","0.0-1.0-689.0-0.0","0","0","85528","","551","","","75","76","","","2","76","training","adjacent","BC","2","3","O.jpg","R.jpg","0","1","0","",""
"","feedback","","html-keyboard-response","496","578175","0.0-1.0-690.0-0.0","0","0","85528","","null","","","null","76","","","","","","","","","","","","","","","",""
"","time_out","","html-keyboard-response","497","580179","0.0-1.0-692.0-0.0","0","0","85528","","null","","","null","76","","","","","","","","","","","","","","","",""
"","ITI","","html-keyboard-response","498","581182","0.0-1.0-693.0","0","0","85528","","null","","","null","76","","","","","","","","","","","","","","","NaN",""
"","S1","","html-keyboard-response","499","581435","0.0-1.0-695.0","0","0","85528","","null","","","null","77","","","","","","","","","","","","","","","",""
"","ISI","","html-keyboard-response","500","583438","0.0-1.0-696.0","0","0","85528","","null","","","null","77","NaN","","","","","","","","","","","","","","",""
"","S2","","html-keyboard-response","501","583691","0.0-1.0-697.0","0","0","85528","","null","","","null","77","","NaN","","","","","","","","","","","","","",""
"","response","","html-keyboard-response","502","584195","0.0-1.0-698.0-0.0","0","0","85528","","501","","","68","77","","","2","77","training","adjacent","FG","6","7","P.jpg","L.jpg","1","1","1","",""
"","feedback","","html-keyboard-response","503","585199","0.0-1.0-699.0-0.0","0","0","85528","","null","","","null","77","","","","","","","","","","","","","","","",""
"","ITI","","html-keyboard-response","504","586204","0.0-1.0-702.0","0","0","85528","","null","","","null","77","","","","","","","","","","","","","","","NaN",""
"","S1","","html-keyboard-response","505","586459","0.0-1.0-704.0","0","0","85528","","null","","","null","78","","","","","","","","","","","","","","","",""
"","ISI","","html-keyboard-response","506","588461","0.0-1.0-705.0","0","0","85528","","null","","","null","78","NaN","","","","","","","","","","","","","","",""
"","S2","","html-keyboard-response","507","588714","0.0-1.0-706.0","0","0","85528","","null","","","null","78","","NaN","","","","","","","","","","","","","",""
"","response","","html-keyboard-response","508","589459","0.0-1.0-707.0-0.0","0","0","85528","","742","","","75","78","","","2","78","training","adjacent","ED","5","4","Q.jpg","N.jpg","0","0","1","",""
"","feedback","","html-keyboard-response","509","590463","0.0-1.0-708.0-0.0","0","0","85528","","null","","","null","78","","","","","","","","","","","","","","","",""
"","ITI","","html-keyboard-response","510","591481","0.0-1.0-711.0","0","0","85528","","null","","","null","78","","","","","","","","","","","","","","","NaN",""
"","S1","","html-keyboard-response","511","591734","0.0-1.0-713.0","0","0","85528","","null","","","null","79","","","","","","","","","","","","","","","",""
"","ISI","","html-keyboard-response","512","593738","0.0-1.0-714.0","0","0","85528","","null","","","null","79","NaN","","","","","","","","","","","","","","",""
"","S2","","html-keyboard-response","513","593991","0.0-1.0-715.0","0","0","85528","","null","","","null","79","","NaN","","","","","","","","","","","","","",""
"","response","","html-keyboard-response","514","594355","0.0-1.0-716.0-0.0","0","0","85528","","361","","","75","79","","","2","79","training","adjacent","DE","4","5","N.jpg","Q.jpg","0","1","0","",""
"","feedback","","html-keyboard-response","515","595360","0.0-1.0-717.0-0.0","0","0","85528","","null","","","null","79","","","","","","","","","","","","","","","",""
"","time_out","","html-keyboard-response","516","597363","0.0-1.0-719.0-0.0","0","0","85528","","null","","","null","79","","","","","","","","","","","","","","","",""
"","ITI","","html-keyboard-response","517","598367","0.0-1.0-720.0","0","0","85528","","null","","","null","79","","","","","","","","","","","","","","","NaN",""
"","S1","","html-keyboard-response","518","598621","0.0-1.0-722.0","0","0","85528","","null","","","null","80","","","","","","","","","","","","","","","",""
"","ISI","","html-keyboard-response","519","600624","0.0-1.0-723.0","0","0","85528","","null","","","null","80","NaN","","","","","","","","","","","","","","",""
"","S2","","html-keyboard-response","520","600879","0.0-1.0-724.0","0","0","85528","","null","","","null","80","","NaN","","","","","","","","","","","","","",""
"","response","","html-keyboard-response","521","601650","0.0-1.0-725.0-0.0","0","0","85528","","769","","","68","80","","","2","80","training","adjacent","DC","4","3","N.jpg","R.jpg","1","0","0","",""
"","feedback","","html-keyboard-response","522","602653","0.0-1.0-726.0-0.0","0","0","85528","","null","","","null","80","","","","","","","","","","","","","","","",""
"","time_out","","html-keyboard-response","523","604658","0.0-1.0-728.0-0.0","0","0","85528","","null","","","null","80","","","","","","","","","","","","","","","",""
"","ITI","","html-keyboard-response","524","605660","0.0-1.0-729.0","0","0","85528","","null","","","null","80","","","","","","","","","","","","","","","NaN",""
"","S1","","html-keyboard-response","525","605914","0.0-1.0-731.0","0","0","85528","","null","","","null","81","","","","","","","","","","","","","","","",""
"","ISI","","html-keyboard-response","526","607918","0.0-1.0-732.0","0","0","85528","","null","","","null","81","NaN","","","","","","","","","","","","","","",""
"","S2","","html-keyboard-response","527","608171","0.0-1.0-733.0","0","0","85528","","null","","","null","81","","NaN","","","","","","","","","","","","","",""
"","response","","html-keyboard-response","528","608563","0.0-1.0-734.0-0.0","0","0","85528","","389","","","68","81","","","2","81","training","adjacent","BC","2","3","O.jpg","R.jpg","1","1","1","",""
"","feedback","","html-keyboard-response","529","609567","0.0-1.0-735.0-0.0","0","0","85528","","null","","","null","81","","","","","","","","","","","","","","","",""
"","ITI","","html-keyboard-response","530","610571","0.0-1.0-738.0","0","0","85528","","null","","","null","81","","","","","","","","","","","","","","","NaN",""
"","S1","","html-keyboard-response","531","610824","0.0-1.0-740.0","0","0","85528","","null","","","null","82","","","","","","","","","","","","","","","",""
"","ISI","","html-keyboard-response","532","612825","0.0-1.0-741.0","0","0","85528","","null","","","null","82","NaN","","","","","","","","","","","","","","",""
"","S2","","html-keyboard-response","533","613078","0.0-1.0-742.0","0","0","85528","","null","","","null","82","","NaN","","","","","","","","","","","","","",""
"","response","","html-keyboard-response","534","613379","0.0-1.0-743.0-0.0","0","0","85528","","298","","","68","82","","","2","82","training","adjacent","AB","1","2","M.jpg","O.jpg","1","1","1","",""
"","feedback","","html-keyboard-response","535","614383","0.0-1.0-744.0-0.0","0","0","85528","","null","","","null","82","","","","","","","","","","","","","","","",""
"","ITI","","html-keyboard-response","536","615388","0.0-1.0-747.0","0","0","85528","","null","","","null","82","","","","","","","","","","","","","","","NaN",""
"","S1","","html-keyboard-response","537","615642","0.0-1.0-749.0","0","0","85528","","null","","","null","83","","","","","","","","","","","","","","","",""
"","ISI","","html-keyboard-response","538","617651","0.0-1.0-750.0","0","0","85528","","null","","","null","83","NaN","","","","","","","","","","","","","","",""
"","S2","","html-keyboard-response","539","617906","0.0-1.0-751.0","0","0","85528","","null","","","null","83","","NaN","","","","","","","","","","","","","",""
"","response","","html-keyboard-response","540","618676","0.0-1.0-752.0-0.0","0","0","85528","","767","","","75","83","","","2","83","training","adjacent","CD","3","4","R.jpg","N.jpg","0","1","0","",""
"","feedback","","html-keyboard-response","541","619680","0.0-1.0-753.0-0.0","0","0","85528","","null","","","null","83","","","","","","","","","","","","","","","",""
"","time_out","","html-keyboard-response","542","621684","0.0-1.0-755.0-0.0","0","0","85528","","null","","","null","83","","","","","","","","","","","","","","","",""
"","ITI","","html-keyboard-response","543","622689","0.0-1.0-756.0","0","0","85528","","null","","","null","83","","","","","","","","","","","","","","","NaN",""
"","S1","","html-keyboard-response","544","622942","0.0-1.0-758.0","0","0","85528","","null","","","null","84","","","","","","","","","","","","","","","",""
"","ISI","","html-keyboard-response","545","624945","0.0-1.0-759.0","0","0","85528","","null","","","null","84","NaN","","","","","","","","","","","","","","",""
"","S2","","html-keyboard-response","546","625200","0.0-1.0-760.0","0","0","85528","","null","","","null","84","","NaN","","","","","","","","","","","","","",""
"","response","","html-keyboard-response","547","625556","0.0-1.0-761.0-0.0","0","0","85528","","353","","","68","84","","","2","84","training","adjacent","DC","4","3","N.jpg","R.jpg","1","0","0","",""
"","feedback","","html-keyboard-response","548","626560","0.0-1.0-762.0-0.0","0","0","85528","","null","","","null","84","","","","","","","","","","","","","","","",""
"","time_out","","html-keyboard-response","549","628565","0.0-1.0-764.0-0.0","0","0","85528","","null","","","null","84","","","","","","","","","","","","","","","",""
"","ITI","","html-keyboard-response","550","629569","0.0-1.0-765.0","0","0","85528","","null","","","null","84","","","","","","","","","","","","","","","NaN",""
"","S1","","html-keyboard-response","551","629823","0.0-1.0-767.0","0","0","85528","","null","","","null","85","","","","","","","","","","","","","","","",""
"","ISI","","html-keyboard-response","552","631826","0.0-1.0-768.0","0","0","85528","","null","","","null","85","NaN","","","","","","","","","","","","","","",""
"","S2","","html-keyboard-response","553","632080","0.0-1.0-769.0","0","0","85528","","null","","","null","85","","NaN","","","","","","","","","","","","","",""
"","response","","html-keyboard-response","554","632436","0.0-1.0-770.0-0.0","0","0","85528","","353","","","68","85","","","2","85","training","adjacent","CD","3","4","R.jpg","N.jpg","1","1","1","",""
"","feedback","","html-keyboard-response","555","633441","0.0-1.0-771.0-0.0","0","0","85528","","null","","","null","85","","","","","","","","","","","","","","","",""
"","ITI","","html-keyboard-response","556","634445","0.0-1.0-774.0","0","0","85528","","null","","","null","85","","","","","","","","","","","","","","","NaN",""
"","S1","","html-keyboard-response","557","634705","0.0-1.0-776.0","0","0","85528","","null","","","null","86","","","","","","","","","","","","","","","",""
"","ISI","","html-keyboard-response","558","636709","0.0-1.0-777.0","0","0","85528","","null","","","null","86","NaN","","","","","","","","","","","","","","",""
"","S2","","html-keyboard-response","559","636963","0.0-1.0-778.0","0","0","85528","","null","","","null","86","","NaN","","","","","","","","","","","","","",""
"","response","","html-keyboard-response","560","637379","0.0-1.0-779.0-0.0","0","0","85528","","414","","","68","86","","","2","86","training","adjacent","DC","4","3","N.jpg","R.jpg","1","0","0","",""
"","feedback","","html-keyboard-response","561","638383","0.0-1.0-780.0-0.0","0","0","85528","","null","","","null","86","","","","","","","","","","","","","","","",""
"","time_out","","html-keyboard-response","562","640387","0.0-1.0-782.0-0.0","0","0","85528","","null","","","null","86","","","","","","","","","","","","","","","",""
"","ITI","","html-keyboard-response","563","641390","0.0-1.0-783.0","0","0","85528","","null","","","null","86","","","","","","","","","","","","","","","NaN",""
"","S1","","html-keyboard-response","564","641644","0.0-1.0-785.0","0","0","85528","","null","","","null","87","","","","","","","","","","","","","","","",""
"","ISI","","html-keyboard-response","565","643646","0.0-1.0-786.0","0","0","85528","","null","","","null","87","NaN","","","","","","","","","","","","","","",""
"","S2","","html-keyboard-response","566","643901","0.0-1.0-787.0","0","0","85528","","null","","","null","87","","NaN","","","","","","","","","","","","","",""
"","response","","html-keyboard-response","567","644564","0.0-1.0-788.0-0.0","0","0","85528","","659","","","68","87","","","2","87","training","adjacent","ED","5","4","Q.jpg","N.jpg","1","0","0","",""
"","feedback","","html-keyboard-response","568","645569","0.0-1.0-789.0-0.0","0","0","85528","","null","","","null","87","","","","","","","","","","","","","","","",""
"","time_out","","html-keyboard-response","569","647573","0.0-1.0-791.0-0.0","0","0","85528","","null","","","null","87","","","","","","","","","","","","","","","",""
"","ITI","","html-keyboard-response","570","648576","0.0-1.0-792.0","0","0","85528","","null","","","null","87","","","","","","","","","","","","","","","NaN",""
"","S1","","html-keyboard-response","571","648831","0.0-1.0-794.0","0","0","85528","","null","","","null","88","","","","","","","","","","","","","","","",""
"","ISI","","html-keyboard-response","572","650834","0.0-1.0-795.0","0","0","85528","","null","","","null","88","NaN","","","","","","","","","","","","","","",""
"","S2","","html-keyboard-response","573","651088","0.0-1.0-796.0","0","0","85528","","null","","","null","88","","NaN","","","","","","","","","","","","","",""
"","response","","html-keyboard-response","574","651460","0.0-1.0-797.0-0.0","0","0","85528","","368","","","75","88","","","2","88","training","adjacent","GF","7","6","L.jpg","P.jpg","0","0","1","",""
"","feedback","","html-keyboard-response","575","652464","0.0-1.0-798.0-0.0","0","0","85528","","null","","","null","88","","","","","","","","","","","","","","","",""
"","ITI","","html-keyboard-response","576","653469","0.0-1.0-801.0","0","0","85528","","null","","","null","88","","","","","","","","","","","","","","","NaN",""
"","S1","","html-keyboard-response","577","653722","0.0-1.0-803.0","0","0","85528","","null","","","null","89","","","","","","","","","","","","","","","",""
"","ISI","","html-keyboard-response","578","655725","0.0-1.0-804.0","0","0","85528","","null","","","null","89","NaN","","","","","","","","","","","","","","",""
"","S2","","html-keyboard-response","579","655978","0.0-1.0-805.0","0","0","85528","","null","","","null","89","","NaN","","","","","","","","","","","","","",""
"","response","","html-keyboard-response","580","656724","0.0-1.0-806.0-0.0","0","0","85528","","744","","","75","89","","","2","89","training","adjacent","CD","3","4","R.jpg","N.jpg","0","1","0","",""
