"success","ttype","start_time","trial_type","trial_index","time_elapsed","internal_node_id","warning","missed_checkup","PID","view_history","rt","responses","repeat_instructions","key_press","index","keypress_isi","keypress_S2","block","trial_num","phase","group_type","pair_type","S1_stim","S2_stim","S1_img","S2_img","S1_chosen","S1_higher","accuracy","keypress_iti","total_bonus_tally"
"true","full_screen","d08012022hr1355","fullscreen","0","13013","0.0-0.0","0","0","38456","","","","","","","","","","","","","","","","","","","","","",""
"","instructions","","instructions","1","52835","0.0-1.0-0.0-0.0","0","0","38456","[{""page_index"":0,""viewing_time"":6870},{""page_index"":1,""viewing_time"":17628},{""page_index"":2,""viewing_time"":7321},{""page_index"":3,""viewing_time"":7995}]","39814","","","","","","","","","","","","","","","","","","","",""
"","comprehension_check","","survey-multi-choice","2","70271","0.0-1.0-0.0-1.0","0","0","38456","","17427","{""Q0"":""True"",""Q1"":""D"",""Q2"":""When you see the prompt 'MAKE A CHOICE' after the second image was presented"",""Q3"":""Green mark"",""Q4"":""either D or K""}","0","","","","","","","","","","","","","","","","","",""
"","start_exp","","html-keyboard-response","3","72557","0.0-1.0-1.0","0","0","38456","","2275","","","32","","","","","","","","","","","","","","","","",""
"","S1","","html-keyboard-response","4","72817","0.0-1.0-2.0","0","0","38456","","null","","","null","0","","","","","","","","","","","","","","","",""
"","ISI","","html-keyboard-response","5","74824","0.0-1.0-3.0","0","0","38456","","null","","","null","0","NaN","","","","","","","","","","","","","","",""
"","S2","","html-keyboard-response","6","75081","0.0-1.0-4.0","0","0","38456","","null","","","null","0","","NaN","","","","","","","","","","","","","",""
"","response","","html-keyboard-response","7","77089","0.0-1.0-5.0","0","0","38456","","null","","","null","0","","","1","0","training","adjacent","DE","4","5","N.jpg","M.jpg","NaN","1","0","",""
"","too_slow_prompt","","html-keyboard-response","8","78095","0.0-1.0-7.0-0.0","1","0","38456","","null","","","null","","","","","","","","","","","","","","","","",""
"","time_out","","html-keyboard-response","9","80102","0.0-1.0-8.0-0.0","0","0","38456","","null","","","null","0","","","","","","","","","","","","","","","",""
"","ITI","","html-keyboard-response","10","81108","0.0-1.0-9.0","0","0","38456","","null","","","null","0","","","","","","","","","","","","","","","NaN",""
"","S1","","html-keyboard-response","11","81365","0.0-1.0-11.0","0","0","38456","","null","","","null","1","","","","","","","","","","","","","","","",""
"","ISI","","html-keyboard-response","12","83370","0.0-1.0-12.0","0","0","38456","","null","","","null","1","NaN","","","","","","","","","","","","","","",""
"","S2","","html-keyboard-response","13","83627","0.0-1.0-13.0","0","0","38456","","null","","","null","1","","NaN","","","","","","","","","","","","","",""
"","response","","html-keyboard-response","14","83893","0.0-1.0-14.0","0","0","38456","","256","","","68","1","","","1","1","training","adjacent","DC","4","3","N.jpg","O.jpg","1","0","0","",""
"","feedback","","html-keyboard-response","15","84901","0.0-1.0-15.0-0.0","0","0","38456","","null","","","null","1","","","","","","","","","","","","","","","",""
"","time_out","","html-keyboard-response","16","86907","0.0-1.0-17.0-0.0","0","0","38456","","null","","","null","1","","","","","","","","","","","","","","","",""
"","ITI","","html-keyboard-response","17","87913","0.0-1.0-18.0","0","0","38456","","null","","","null","1","","","","","","","","","","","","","","","NaN",""
"","S1","","html-keyboard-response","18","88168","0.0-1.0-20.0","0","0","38456","","null","","","null","2","","","","","","","","","","","","","","","",""
"","ISI","","html-keyboard-response","19","90173","0.0-1.0-21.0","0","0","38456","","null","","","null","2","NaN","","","","","","","","","","","","","","",""
"","S2","","html-keyboard-response","20","90430","0.0-1.0-22.0","0","0","38456","","null","","","null","2","","NaN","","","","","","","","","","","","","",""
"","response","","html-keyboard-response","21","90953","0.0-1.0-23.0","0","0","38456","","516","","","75","2","","","1","2","training","adjacent","GF","7","6","L.jpg","R.jpg","0","0","1","",""
"","feedback","","html-keyboard-response","22","91959","0.0-1.0-24.0-0.0","0","0","38456","","null","","","null","2","","","","","","","","","","","","","","","",""
"","ITI","","html-keyboard-response","23","92964","0.0-1.0-27.0","0","0","38456","","null","","","null","2","","","","","","","","","","","","","","","NaN",""
"","S1","","html-keyboard-response","24","93220","0.0-1.0-29.0","0","0","38456","","null","","","null","3","","","","","","","","","","","","","","","",""
"","ISI","","html-keyboard-response","25","95225","0.0-1.0-30.0","0","0","38456","","null","","","null","3","NaN","","","","","","","","","","","","","","",""
"","S2","","html-keyboard-response","26","95482","0.0-1.0-31.0","0","0","38456","","null","","","null","3","","NaN","","","","","","","","","","","","","",""
"","response","","html-keyboard-response","27","96113","0.0-1.0-32.0","0","0","38456","","625","","","68","3","","","1","3","training","adjacent","EF","5","6","M.jpg","R.jpg","1","1","1","",""
"","feedback","","html-keyboard-response","28","97119","0.0-1.0-33.0-0.0","0","0","38456","","null","","","null","3","","","","","","","","","","","","","","","",""
"","ITI","","html-keyboard-response","29","98124","0.0-1.0-36.0","0","0","38456","","null","","","null","3","","","","","","","","","","","","","","","NaN",""
"","S1","","html-keyboard-response","30","98379","0.0-1.0-38.0","0","0","38456","","null","","","null","4","","","","","","","","","","","","","","","",""
"","ISI","","html-keyboard-response","31","100385","0.0-1.0-39.0","0","0","38456","","null","","","null","4","NaN","","","","","","","","","","","","","","",""
"","S2","","html-keyboard-response","32","100641","0.0-1.0-40.0","0","0","38456","","null","","","null","4","","NaN","","","","","","","","","","","","","",""
"","response","","html-keyboard-response","33","101016","0.0-1.0-41.0","0","0","38456","","370","","","68","4","","","1","4","training","adjacent","BA","2","1","Q.jpg","P.jpg","1","0","0","",""
"","feedback","","html-keyboard-response","34","102022","0.0-1.0-42.0-0.0","0","0","38456","","null","","","null","4","","","","","","","","","","","","","","","",""
"","time_out","","html-keyboard-response","35","104027","0.0-1.0-44.0-0.0","0","0","38456","","null","","","null","4","","","","","","","","","","","","","","","",""
"","ITI","","html-keyboard-response","36","105032","0.0-1.0-45.0","0","0","38456","","null","","","null","4","","","","","","","","","","","","","","","NaN",""
"","S1","","html-keyboard-response","37","105288","0.0-1.0-47.0","0","0","38456","","null","","","null","5","","","","","","","","","","","","","","","",""
"","ISI","","html-keyboard-response","38","107293","0.0-1.0-48.0","0","0","38456","","null","","","null","5","NaN","","","","","","","","","","","","","","",""
"","S2","","html-keyboard-response","39","107550","0.0-1.0-49.0","0","0","38456","","null","","","null","5","","NaN","","","","","","","","","","","","","",""
"","response","","html-keyboard-response","40","108176","0.0-1.0-50.0","0","0","38456","","621","","","75","5","","","1","5","training","adjacent","BC","2","3","Q.jpg","O.jpg","0","1","0","",""
"","feedback","","html-keyboard-response","41","109181","0.0-1.0-51.0-0.0","0","0","38456","","null","","","null","5","","","","","","","","","","","","","","","",""
"","time_out","","html-keyboard-response","42","111188","0.0-1.0-53.0-0.0","0","0","38456","","null","","","null","5","","","","","","","","","","","","","","","",""
"","ITI","","html-keyboard-response","43","112193","0.0-1.0-54.0","0","0","38456","","null","","","null","5","","","","","","","","","","","","","","","NaN",""
"","S1","","html-keyboard-response","44","112448","0.0-1.0-56.0","0","0","38456","","null","","","null","6","","","","","","","","","","","","","","","",""
"","ISI","","html-keyboard-response","45","114453","0.0-1.0-57.0","0","0","38456","","null","","","null","6","NaN","","","","","","","","","","","","","","",""
"","S2","","html-keyboard-response","46","114709","0.0-1.0-58.0","0","0","38456","","null","","","null","6","","NaN","","","","","","","","","","","","","",""
"","response","","html-keyboard-response","47","115137","0.0-1.0-59.0","0","0","38456","","422","","","68","6","","","1","6","training","adjacent","CB","3","2","O.jpg","Q.jpg","1","0","0","",""
"","feedback","","html-keyboard-response","48","116143","0.0-1.0-60.0-0.0","0","0","38456","","null","","","null","6","","","","","","","","","","","","","","","",""
"","time_out","","html-keyboard-response","49","118148","0.0-1.0-62.0-0.0","0","0","38456","","null","","","null","6","","","","","","","","","","","","","","","",""
"","ITI","","html-keyboard-response","50","119153","0.0-1.0-63.0","0","0","38456","","null","","","null","6","","","","","","","","","","","","","","","NaN",""
"","S1","","html-keyboard-response","51","119409","0.0-1.0-65.0","0","0","38456","","null","","","null","7","","","","","","","","","","","","","","","",""
"","ISI","","html-keyboard-response","52","121414","0.0-1.0-66.0","0","0","38456","","null","","","null","7","NaN","","","","","","","","","","","","","","",""
"","S2","","html-keyboard-response","53","121670","0.0-1.0-67.0","0","0","38456","","null","","","null","7","","NaN","","","","","","","","","","","","","",""
"","response","","html-keyboard-response","54","122303","0.0-1.0-68.0","0","0","38456","","627","","","75","7","","","1","7","training","adjacent","BA","2","1","Q.jpg","P.jpg","0","0","1","",""
"","feedback","","html-keyboard-response","55","123310","0.0-1.0-69.0-0.0","0","0","38456","","null","","","null","7","","","","","","","","","","","","","","","",""
"","ITI","","html-keyboard-response","56","124315","0.0-1.0-72.0","0","0","38456","","null","","","null","7","","","","","","","","","","","","","","","NaN",""
"","S1","","html-keyboard-response","57","124570","0.0-1.0-74.0","0","0","38456","","null","","","null","8","","","","","","","","","","","","","","","",""
"","ISI","","html-keyboard-response","58","126574","0.0-1.0-75.0","0","0","38456","","null","","","null","8","NaN","","","","","","","","","","","","","","",""
"","S2","","html-keyboard-response","59","126831","0.0-1.0-76.0","0","0","38456","","null","","","null","8","","NaN","","","","","","","","","","","","","",""
"","response","","html-keyboard-response","60","127191","0.0-1.0-77.0","0","0","38456","","356","","","75","8","","","1","8","training","adjacent","DC","4","3","N.jpg","O.jpg","0","0","1","",""
"","feedback","","html-keyboard-response","61","128197","0.0-1.0-78.0-0.0","0","0","38456","","null","","","null","8","","","","","","","","","","","","","","","",""
"","ITI","","html-keyboard-response","62","129203","0.0-1.0-81.0","0","0","38456","","null","","","null","8","","","","","","","","","","","","","","","NaN",""
"","S1","","html-keyboard-response","63","129458","0.0-1.0-83.0","0","0","38456","","null","","","null","9","","","","","","","","","","","","","","","",""
"","ISI","","html-keyboard-response","64","131463","0.0-1.0-84.0","0","0","38456","","null","","","null","9","NaN","","","","","","","","","","","","","","",""
"","S2","","html-keyboard-response","65","131719","0.0-1.0-85.0","0","0","38456","","null","","","null","9","","NaN","","","","","","","","","","","","","",""
"","response","","html-keyboard-response","66","132216","0.0-1.0-86.0","0","0","38456","","491","","","75","9","","","1","9","training","adjacent","EF","5","6","M.jpg","R.jpg","0","1","0","",""
"","feedback","","html-keyboard-response","67","133222","0.0-1.0-87.0-0.0","0","0","38456","","null","","","null","9","","","","","","","","","","","","","","","",""
"","time_out","","html-keyboard-response","68","135227","0.0-1.0-89.0-0.0","0","0","38456","","null","","","null","9","","","","","","","","","","","","","","","",""
"","ITI","","html-keyboard-response","69","136232","0.0-1.0-90.0","0","0","38456","","null","","","null","9","","","","","","","","","","","","","","","NaN",""
"","S1","","html-keyboard-response","70","136489","0.0-1.0-92.0","0","0","38456","","null","","","null","10","","","","","","","","","","","","","","","",""
"","ISI","","html-keyboard-response","71","138493","0.0-1.0-93.0","0","0","38456","","null","","","null","10","NaN","","","","","","","","","","","","","","",""
"","S2","","html-keyboard-response","72","138749","0.0-1.0-94.0","0","0","38456","","null","","","null","10","","NaN","","","","","","","","","","","","","",""
"","response","","html-keyboard-response","73","139240","0.0-1.0-95.0","0","0","38456","","485","","","68","10","","","1","10","training","adjacent","CD","3","4","O.jpg","N.jpg","1","1","1","",""
"","feedback","","html-keyboard-response","74","140246","0.0-1.0-96.0-0.0","0","0","38456","","null","","","null","10","","","","","","","","","","","","","","","",""
"","ITI","","html-keyboard-response","75","141252","0.0-1.0-99.0","0","0","38456","","null","","","null","10","","","","","","","","","","","","","","","NaN",""
"","S1","","html-keyboard-response","76","141508","0.0-1.0-101.0","0","0","38456","","null","","","null","11","","","","","","","","","","","","","","","",""
"","ISI","","html-keyboard-response","77","143513","0.0-1.0-102.0","0","0","38456","","null","","","null","11","NaN","","","","","","","","","","","","","","",""
"","S2","","html-keyboard-response","78","143770","0.0-1.0-103.0","0","0","38456","","null","","","null","11","","NaN","","","","","","","","","","","","","",""
"","response","","html-keyboard-response","79","144400","0.0-1.0-104.0","0","0","38456","","624","","","75","11","","","1","11","training","adjacent","AB","1","2","P.jpg","Q.jpg","0","1","0","",""
"","feedback","","html-keyboard-response","80","145405","0.0-1.0-105.0-0.0","0","0","38456","","null","","","null","11","","","","","","","","","","","","","","","",""
"","time_out","","html-keyboard-response","81","147410","0.0-1.0-107.0-0.0","0","0","38456","","null","","","null","11","","","","","","","","","","","","","","","",""
"","ITI","","html-keyboard-response","82","148415","0.0-1.0-108.0","0","0","38456","","null","","","null","11","","","","","","","","","","","","","","","NaN",""
"","S1","","html-keyboard-response","83","148673","0.0-1.0-110.0","0","0","38456","","null","","","null","12","","","","","","","","","","","","","","","",""
"","ISI","","html-keyboard-response","84","150679","0.0-1.0-111.0","0","0","38456","","null","","","null","12","NaN","","","","","","","","","","","","","","",""
"","S2","","html-keyboard-response","85","150933","0.0-1.0-112.0","0","0","38456","","null","","","null","12","","NaN","","","","","","","","","","","","","",""
"","response","","html-keyboard-response","86","151488","0.0-1.0-113.0","0","0","38456","","550","","","68","12","","","1","12","training","adjacent","DC","4","3","N.jpg","O.jpg","1","0","0","",""
"","feedback","","html-keyboard-response","87","152494","0.0-1.0-114.0-0.0","0","0","38456","","null","","","null","12","","","","","","","","","","","","","","","",""
"","time_out","","html-keyboard-response","88","154500","0.0-1.0-116.0-0.0","0","0","38456","","null","","","null","12","","","","","","","","","","","","","","","",""
"","ITI","","html-keyboard-response","89","155504","0.0-1.0-117.0","0","0","38456","","null","","","null","12","","","","","","","","","","","","","","","NaN",""
"","S1","","html-keyboard-response","90","155761","0.0-1.0-119.0","0","0","38456","","null","","","null","13","","","","","","","","","","","","","","","",""
"","ISI","","html-keyboard-response","91","157766","0.0-1.0-120.0","0","0","38456","","null","","","null","13","NaN","","","","","","","","","","","","","","",""
"","S2","","html-keyboard-response","92","158021","0.0-1.0-121.0","0","0","38456","","null","","","null","13","","NaN","","","","","","","","","","","","","",""
"","response","","html-keyboard-response","93","158552","0.0-1.0-122.0","0","0","38456","","524","","","68","13","","","1","13","training","adjacent","AB","1","2","P.jpg","Q.jpg","1","1","1","",""
"","feedback","","html-keyboard-response","94","159559","0.0-1.0-123.0-0.0","0","0","38456","","null","","","null","13","","","","","","","","","","","","","","","",""
"","ITI","","html-keyboard-response","95","160563","0.0-1.0-126.0","0","0","38456","","null","","","null","13","","","","","","","","","","","","","","","NaN",""
"","S1","","html-keyboard-response","96","160819","0.0-1.0-128.0","0","0","38456","","null","","","null","14","","","","","","","","","","","","","","","",""
"","ISI","","html-keyboard-response","97","162824","0.0-1.0-129.0","0","0","38456","","null","","","null","14","NaN","","","","","","","","","","","","","","",""
"","S2","","html-keyboard-response","98","163080","0.0-1.0-130.0","0","0","38456","","null","","","null","14","","NaN","","","","","","","","","","","","","",""
"","response","","html-keyboard-response","99","164782","0.0-1.0-131.0","0","0","38456","","1697","","","68","14","","","1","14","training","adjacent","ED","5","4","M.jpg","N.jpg","1","0","0","",""
"","feedback","","html-keyboard-response","100","165789","0.0-1.0-132.0-0.0","0","0","38456","","null","","","null","14","","","","","","","","","","","","","","","",""
"","time_out","","html-keyboard-response","101","167793","0.0-1.0-134.0-0.0","0","0","38456","","null","","","null","14","","","","","","","","","","","","","","","",""
"","ITI","","html-keyboard-response","102","168799","0.0-1.0-135.0","0","0","38456","","null","","","null","14","","","","","","","","","","","","","","","NaN",""
"","S1","","html-keyboard-response","103","169054","0.0-1.0-137.0","0","0","38456","","null","","","null","15","","","","","","","","","","","","","","","",""
"","ISI","","html-keyboard-response","104","171060","0.0-1.0-138.0","0","0","38456","","null","","","null","15","NaN","","","","","","","","","","","","","","",""
"","S2","","html-keyboard-response","105","171316","0.0-1.0-139.0","0","0","38456","","null","","","null","15","","NaN","","","","","","","","","","","","","",""
"","response","","html-keyboard-response","106","171735","0.0-1.0-140.0","0","0","38456","","415","","","68","15","","","1","15","training","adjacent","FG","6","7","R.jpg","L.jpg","1","1","1","",""
"","feedback","","html-keyboard-response","107","172740","0.0-1.0-141.0-0.0","0","0","38456","","null","","","null","15","","","","","","","","","","","","","","","",""
"","ITI","","html-keyboard-response","108","173746","0.0-1.0-144.0","0","0","38456","","null","","","null","15","","","","","","","","","","","","","","","NaN",""
"","S1","","html-keyboard-response","109","174002","0.0-1.0-146.0","0","0","38456","","null","","","null","16","","","","","","","","","","","","","","","",""
"","ISI","","html-keyboard-response","110","176008","0.0-1.0-147.0","0","0","38456","","null","","","null","16","NaN","","","","","","","","","","","","","","",""
"","S2","","html-keyboard-response","111","176264","0.0-1.0-148.0","0","0","38456","","null","","","null","16","","NaN","","","","","","","","","","","","","",""
"","response","","html-keyboard-response","112","176493","0.0-1.0-149.0","0","0","38456","","225","","","68","16","","","1","16","training","adjacent","FE","6","5","R.jpg","M.jpg","1","0","0","",""
"","feedback","","html-keyboard-response","113","177500","0.0-1.0-150.0-0.0","0","0","38456","","null","","","null","16","","","","","","","","","","","","","","","",""
"","time_out","","html-keyboard-response","114","179506","0.0-1.0-152.0-0.0","0","0","38456","","null","","","null","16","","","","","","","","","","","","","","","",""
"","ITI","","html-keyboard-response","115","180511","0.0-1.0-153.0","0","0","38456","","null","","","null","16","","","","","","","","","","","","","","","NaN",""
"","S1","","html-keyboard-response","116","180767","0.0-1.0-155.0","0","0","38456","","null","","","null","17","","","","","","","","","","","","","","","",""
"","ISI","","html-keyboard-response","117","182772","0.0-1.0-156.0","0","0","38456","","null","","","null","17","NaN","","","","","","","","","","","","","","",""
"","S2","","html-keyboard-response","118","183027","0.0-1.0-157.0","0","0","38456","","null","","","null","17","","NaN","","","","","","","","","","","","","",""
"","response","","html-keyboard-response","119","183358","0.0-1.0-158.0","0","0","38456","","326","","","68","17","","","1","17","training","adjacent","CD","3","4","O.jpg","N.jpg","1","1","1","",""
"","feedback","","html-keyboard-response","120","184365","0.0-1.0-159.0-0.0","0","0","38456","","null","","","null","17","","","","","","","","","","","","","","","",""
"","ITI","","html-keyboard-response","121","185371","0.0-1.0-162.0","0","0","38456","","null","","","null","17","","","","","","","","","","","","","","","NaN",""
"","S1","","html-keyboard-response","122","185627","0.0-1.0-164.0","0","0","38456","","null","","","null","18","","","","","","","","","","","","","","","",""
"","ISI","","html-keyboard-response","123","187632","0.0-1.0-165.0","0","0","38456","","null","","","null","18","NaN","","","","","","","","","","","","","","",""
"","S2","","html-keyboard-response","124","187887","0.0-1.0-166.0","0","0","38456","","null","","","null","18","","NaN","","","","","","","","","","","","","",""
"","response","","html-keyboard-response","125","188190","0.0-1.0-167.0","0","0","38456","","298","","","75","18","","","1","18","training","adjacent","GF","7","6","L.jpg","R.jpg","0","0","1","",""
"","feedback","","html-keyboard-response","126","189196","0.0-1.0-168.0-0.0","0","0","38456","","null","","","null","18","","","","","","","","","","","","","","","",""
"","ITI","","html-keyboard-response","127","190201","0.0-1.0-171.0","0","0","38456","","null","","","null","18","","","","","","","","","","","","","","","NaN",""
"","S1","","html-keyboard-response","128","190456","0.0-1.0-173.0","0","0","38456","","null","","","null","19","","","","","","","","","","","","","","","",""
"","ISI","","html-keyboard-response","129","192461","0.0-1.0-174.0","0","0","38456","","null","","","null","19","NaN","","","","","","","","","","","","","","",""
"","S2","","html-keyboard-response","130","192718","0.0-1.0-175.0","0","0","38456","","null","","","null","19","","NaN","","","","","","","","","","","","","",""
"","response","","html-keyboard-response","131","193046","0.0-1.0-176.0","0","0","38456","","324","","","68","19","","","1","19","training","adjacent","FE","6","5","R.jpg","M.jpg","1","0","0","",""
"","feedback","","html-keyboard-response","132","194051","0.0-1.0-177.0-0.0","0","0","38456","","null","","","null","19","","","","","","","","","","","","","","","",""
"","time_out","","html-keyboard-response","133","196057","0.0-1.0-179.0-0.0","0","0","38456","","null","","","null","19","","","","","","","","","","","","","","","",""
"","ITI","","html-keyboard-response","134","197062","0.0-1.0-180.0","0","0","38456","","null","","","null","19","","","","","","","","","","","","","","","NaN",""
"","S1","","html-keyboard-response","135","197317","0.0-1.0-182.0","0","0","38456","","null","","","null","20","","","","","","","","","","","","","","","",""
"","ISI","","html-keyboard-response","136","199322","0.0-1.0-183.0","0","0","38456","","null","","","null","20","NaN","","","","","","","","","","","","","","",""
"","S2","","html-keyboard-response","137","199578","0.0-1.0-184.0","0","0","38456","","null","","","null","20","","NaN","","","","","","","","","","","","","",""
"","response","","html-keyboard-response","138","199807","0.0-1.0-185.0","0","0","38456","","223","","","68","20","","","1","20","training","adjacent","CD","3","4","O.jpg","N.jpg","1","1","1","",""
"","feedback","","html-keyboard-response","139","200812","0.0-1.0-186.0-0.0","0","0","38456","","null","","","null","20","","","","","","","","","","","","","","","",""
"","ITI","","html-keyboard-response","140","201818","0.0-1.0-189.0","0","0","38456","","null","","","null","20","","","","","","","","","","","","","","","NaN",""
"","S1","","html-keyboard-response","141","202073","0.0-1.0-191.0","0","0","38456","","null","","","null","21","","","","","","","","","","","","","","","",""
"","ISI","","html-keyboard-response","142","204081","0.0-1.0-192.0","0","0","38456","","null","","","null","21","NaN","","","","","","","","","","","","","","",""
"","S2","","html-keyboard-response","143","204336","0.0-1.0-193.0","0","0","38456","","null","","","null","21","","NaN","","","","","","","","","","","","","",""
"","response","","html-keyboard-response","144","204670","0.0-1.0-194.0","0","0","38456","","329","","","68","21","","","1","21","training","adjacent","FE","6","5","R.jpg","M.jpg","1","0","0","",""
"","feedback","","html-keyboard-response","145","205675","0.0-1.0-195.0-0.0","0","0","38456","","null","","","null","21","","","","","","","","","","","","","","","",""
"","time_out","","html-keyboard-response","146","207681","0.0-1.0-197.0-0.0","0","0","38456","","null","","","null","21","","","","","","","","","","","","","","","",""
"","ITI","","html-keyboard-response","147","208685","0.0-1.0-198.0","0","0","38456","","null","","","null","21","","","","","","","","","","","","","","","NaN",""
"","S1","","html-keyboard-response","148","208941","0.0-1.0-200.0","0","0","38456","","null","","","null","22","","","","","","","","","","","","","","","",""
"","ISI","","html-keyboard-response","149","210947","0.0-1.0-201.0","0","0","38456","","null","","","null","22","NaN","","","","","","","","","","","","","","",""
"","S2","","html-keyboard-response","150","211203","0.0-1.0-202.0","0","0","38456","","null","","","null","22","","NaN","","","","","","","","","","","","","",""
"","response","","html-keyboard-response","151","211701","0.0-1.0-203.0","0","0","38456","","493","","","75","22","","","1","22","training","adjacent","ED","5","4","M.jpg","N.jpg","0","0","1","",""
"","feedback","","html-keyboard-response","152","212708","0.0-1.0-204.0-0.0","0","0","38456","","null","","","null","22","","","","","","","","","","","","","","","",""
"","ITI","","html-keyboard-response","153","213714","0.0-1.0-207.0","0","0","38456","","null","","","null","22","","","","","","","","","","","","","","","NaN",""
"","S1","","html-keyboard-response","154","213970","0.0-1.0-209.0","0","0","38456","","null","","","null","23","","","","","","","","","","","","","","","",""
"","ISI","","html-keyboard-response","155","215975","0.0-1.0-210.0","0","0","38456","","null","","","null","23","NaN","","","","","","","","","","","","","","",""
"","S2","","html-keyboard-response","156","216232","0.0-1.0-211.0","0","0","38456","","null","","","null","23","","NaN","","","","","","","","","","","","","",""
"","response","","html-keyboard-response","157","216598","0.0-1.0-212.0","0","0","38456","","360","","","68","23","","","1","23","training","adjacent","EF","5","6","M.jpg","R.jpg","1","1","1","",""
"","feedback","","html-keyboard-response","158","217603","0.0-1.0-213.0-0.0","0","0","38456","","null","","","null","23","","","","","","","","","","","","","","","",""
"","ITI","","html-keyboard-response","159","218608","0.0-1.0-216.0","0","0","38456","","null","","","null","23","","","","","","","","","","","","","","","NaN",""
"","S1","","html-keyboard-response","160","218865","0.0-1.0-218.0","0","0","38456","","null","","","null","24","","","","","","","","","","","","","","","",""
"","ISI","","html-keyboard-response","161","220870","0.0-1.0-219.0","0","0","38456","","null","","","null","24","NaN","","","","","","","","","","","","","","",""
"","S2","","html-keyboard-response","162","221126","0.0-1.0-220.0","0","0","38456","","null","","","null","24","","NaN","","","","","","","","","","","","","",""
"","response","","html-keyboard-response","163","221557","0.0-1.0-221.0","0","0","38456","","426","","","68","24","","","1","24","training","adjacent","FG","6","7","R.jpg","L.jpg","1","1","1","",""
"","feedback","","html-keyboard-response","164","222563","0.0-1.0-222.0-0.0","0","0","38456","","null","","","null","24","","","","","","","","","","","","","","","",""
"","ITI","","html-keyboard-response","165","223568","0.0-1.0-225.0","0","0","38456","","null","","","null","24","","","","","","","","","","","","","","","NaN",""
"","S1","","html-keyboard-response","166","223825","0.0-1.0-227.0","0","0","38456","","null","","","null","25","","","","","","","","","","","","","","","",""
"","ISI","","html-keyboard-response","167","225831","0.0-1.0-228.0","0","0","38456","","null","","","null","25","NaN","","","","","","","","","","","","","","",""
"","S2","","html-keyboard-response","168","226086","0.0-1.0-229.0","0","0","38456","","null","","","null","25","","NaN","","","","","","","","","","","","","",""
"","response","","html-keyboard-response","169","226278","0.0-1.0-230.0","0","0","38456","","186","","","75","25","","","1","25","training","adjacent","BA","2","1","Q.jpg","P.jpg","0","0","1","",""
"","feedback","","html-keyboard-response","170","227283","0.0-1.0-231.0-0.0","0","0","38456","","null","","","null","25","","","","","","","","","","","","","","","",""
"","ITI","","html-keyboard-response","171","228289","0.0-1.0-234.0","0","0","38456","","null","","","null","25","","","","","","","","","","","","","","","NaN",""
"","S1","","html-keyboard-response","172","228546","0.0-1.0-236.0","0","0","38456","","null","","","null","26","","","","","","","","","","","","","","","",""
"","ISI","","html-keyboard-response","173","230551","0.0-1.0-237.0","0","0","38456","","null","","","null","26","NaN","","","","","","","","","","","","","","",""
"","S2","","html-keyboard-response","174","230807","0.0-1.0-238.0","0","0","38456","","null","","","null","26","","NaN","","","","","","","","","","","","","",""
"","response","","html-keyboard-response","175","231110","0.0-1.0-239.0","0","0","38456","","298","","","75","26","","","1","26","training","adjacent","CB","3","2","O.jpg","Q.jpg","0","0","1","",""
"","feedback","","html-keyboard-response","176","232116","0.0-1.0-240.0-0.0","0","0","38456","","null","","","null","26","","","","","","","","","","","","","","","",""
"","ITI","","html-keyboard-response","177","233121","0.0-1.0-243.0","0","0","38456","","null","","","null","26","","","","","","","","","","","","","","","NaN",""
"","S1","","html-keyboard-response","178","233376","0.0-1.0-245.0","0","0","38456","","null","","","null","27","","","","","","","","","","","","","","","",""
"","ISI","","html-keyboard-response","179","235381","0.0-1.0-246.0","0","0","38456","","null","","","null","27","NaN","","","","","","","","","","","","","","",""
"","S2","","html-keyboard-response","180","235636","0.0-1.0-247.0","0","0","38456","","null","","","null","27","","NaN","","","","","","","","","","","","","",""
"","response","","html-keyboard-response","181","236085","0.0-1.0-248.0","0","0","38456","","444","","","68","27","","","1","27","training","adjacent","GF","7","6","L.jpg","R.jpg","1","0","0","",""
"","feedback","","html-keyboard-response","182","237091","0.0-1.0-249.0-0.0","0","0","38456","","null","","","null","27","","","","","","","","","","","","","","","",""
"","time_out","","html-keyboard-response","183","239097","0.0-1.0-251.0-0.0","0","0","38456","","null","","","null","27","","","","","","","","","","","","","","","",""
"","ITI","","html-keyboard-response","184","240103","0.0-1.0-252.0","0","0","38456","","null","","","null","27","","","","","","","","","","","","","","","NaN",""
"","S1","","html-keyboard-response","185","240360","0.0-1.0-254.0","0","0","38456","","null","","","null","28","","","","","","","","","","","","","","","",""
"","ISI","","html-keyboard-response","186","242365","0.0-1.0-255.0","0","0","38456","","null","","","null","28","NaN","","","","","","","","","","","","","","",""
"","S2","","html-keyboard-response","187","242618","0.0-1.0-256.0","0","0","38456","","null","","","null","28","","NaN","","","","","","","","","","","","","",""
"","response","","html-keyboard-response","188","242877","0.0-1.0-257.0","0","0","38456","","253","","","68","28","","","1","28","training","adjacent","ED","5","4","M.jpg","N.jpg","1","0","0","",""
"","feedback","","html-keyboard-response","189","243882","0.0-1.0-258.0-0.0","0","0","38456","","null","","","null","28","","","","","","","","","","","","","","","",""
"","time_out","","html-keyboard-response","190","245887","0.0-1.0-260.0-0.0","0","0","38456","","null","","","null","28","","","","","","","","","","","","","","","",""
"","ITI","","html-keyboard-response","191","246893","0.0-1.0-261.0","0","0","38456","","null","","","null","28","","","","","","","","","","","","","","","NaN",""
"","S1","","html-keyboard-response","192","247149","0.0-1.0-263.0","0","0","38456","","null","","","null","29","","","","","","","","","","","","","","","",""
"","ISI","","html-keyboard-response","193","249154","0.0-1.0-264.0","0","0","38456","","null","","","null","29","NaN","","","","","","","","","","","","","","",""
"","S2","","html-keyboard-response","194","249411","0.0-1.0-265.0","0","0","38456","","null","","","null","29","","NaN","","","","","","","","","","","","","",""
"","response","","html-keyboard-response","195","249732","0.0-1.0-266.0","0","0","38456","","317","","","75","29","","","1","29","training","adjacent","BC","2","3","Q.jpg","O.jpg","0","1","0","",""
"","feedback","","html-keyboard-response","196","250739","0.0-1.0-267.0-0.0","0","0","38456","","null","","","null","29","","","","","","","","","","","","","","","",""
"","time_out","","html-keyboard-response","197","252744","0.0-1.0-269.0-0.0","0","0","38456","","null","","","null","29","","","","","","","","","","","","","","","",""
"","ITI","","html-keyboard-response","198","253749","0.0-1.0-270.0","0","0","38456","","null","","","null","29","","","","","","","","","","","","","","","NaN",""
"","S1","","html-keyboard-response","199","254005","0.0-1.0-272.0","0","0","38456","","null","","","null","30","","","","","","","","","","","","","","","",""
"","ISI","","html-keyboard-response","200","256010","0.0-1.0-273.0","0","0","38456","","null","","","null","30","NaN","","","","","","","","","","","","","","",""
"","S2","","html-keyboard-response","201","256267","0.0-1.0-274.0","0","0","38456","","null","","","null","30","","NaN","","","","","","","","","","","","","",""
"","response","","html-keyboard-response","202","256589","0.0-1.0-275.0","0","0","38456","","317","","","75","30","","","1","30","training","adjacent","FG","6","7","R.jpg","L.jpg","0","1","0","",""
"","feedback","","html-keyboard-response","203","257595","0.0-1.0-276.0-0.0","0","0","38456","","null","","","null","30","","","","","","","","","","","","","","","",""
"","time_out","","html-keyboard-response","204","259600","0.0-1.0-278.0-0.0","0","0","38456","","null","","","null","30","","","","","","","","","","","","","","","",""
"","ITI","","html-keyboard-response","205","260605","0.0-1.0-279.0","0","0","38456","","null","","","null","30","","","","","","","","","","","","","","","NaN",""
"","S1","","html-keyboard-response","206","260861","0.0-1.0-281.0","0","0","38456","","null","","","null","31","","","","","","","","","","","","","","","",""
"","ISI","","html-keyboard-response","207","262867","0.0-1.0-282.0","0","0","38456","","null","","","null","31","NaN","","","","","","","","","","","","","","",""
"","S2","","html-keyboard-response","208","263123","0.0-1.0-283.0","0","0","38456","","null","","","null","31","","NaN","","","","","","","","","","","","","",""
"","response","","html-keyboard-response","209","263645","0.0-1.0-284.0","0","0","38456","","517","","","75","31","","","1","31","training","adjacent","CD","3","4","O.jpg","N.jpg","0","1","0","",""
"","feedback","","html-keyboard-response","210","264651","0.0-1.0-285.0-0.0","0","0","38456","","null","","","null","31","","","","","","","","","","","","","","","",""
"","time_out","","html-keyboard-response","211","266656","0.0-1.0-287.0-0.0","0","0","38456","","null","","","null","31","","","","","","","","","","","","","","","",""
"","ITI","","html-keyboard-response","212","267662","0.0-1.0-288.0","0","0","38456","","null","","","null","31","","","","","","","","","","","","","","","NaN",""
"","S1","","html-keyboard-response","213","267917","0.0-1.0-290.0","0","0","38456","","null","","","null","32","","","","","","","","","","","","","","","",""
"","ISI","","html-keyboard-response","214","269923","0.0-1.0-291.0","0","0","38456","","null","","","null","32","NaN","","","","","","","","","","","","","","",""
"","S2","","html-keyboard-response","215","270178","0.0-1.0-292.0","0","0","38456","","null","","","null","32","","NaN","","","","","","","","","","","","","",""
"","response","","html-keyboard-response","216","270405","0.0-1.0-293.0","0","0","38456","","222","","","68","32","","","1","32","training","adjacent","CB","3","2","O.jpg","Q.jpg","1","0","0","",""
"","feedback","","html-keyboard-response","217","271411","0.0-1.0-294.0-0.0","0","0","38456","","null","","","null","32","","","","","","","","","","","","","","","",""
"","time_out","","html-keyboard-response","218","273417","0.0-1.0-296.0-0.0","0","0","38456","","null","","","null","32","","","","","","","","","","","","","","","",""
"","ITI","","html-keyboard-response","219","274422","0.0-1.0-297.0","0","0","38456","","null","","","null","32","","","","","","","","","","","","","","","NaN",""
"","S1","","html-keyboard-response","220","274678","0.0-1.0-299.0","0","0","38456","","null","","","null","33","","","","","","","","","","","","","","","",""
"","ISI","","html-keyboard-response","221","276683","0.0-1.0-300.0","0","0","38456","","null","","","null","33","NaN","","","","","","","","","","","","","","",""
"","S2","","html-keyboard-response","222","276939","0.0-1.0-301.0","0","0","38456","","null","","","null","33","","NaN","","","","","","","","","","","","","",""
"","response","","html-keyboard-response","223","277205","0.0-1.0-302.0","0","0","38456","","260","","","75","33","","","1","33","training","adjacent","DE","4","5","N.jpg","M.jpg","0","1","0","",""
"","feedback","","html-keyboard-response","224","278211","0.0-1.0-303.0-0.0","0","0","38456","","null","","","null","33","","","","","","","","","","","","","","","",""
"","time_out","","html-keyboard-response","225","280216","0.0-1.0-305.0-0.0","0","0","38456","","null","","","null","33","","","","","","","","","","","","","","","",""
"","ITI","","html-keyboard-response","226","281221","0.0-1.0-306.0","0","0","38456","","null","","","null","33","","","","","","","","","","","","","","","NaN",""
"","S1","","html-keyboard-response","227","281478","0.0-1.0-308.0","0","0","38456","","null","","","null","34","","","","","","","","","","","","","","","",""
"","ISI","","html-keyboard-response","228","283483","0.0-1.0-309.0","0","0","38456","","null","","","null","34","NaN","","","","","","","","","","","","","","",""
"","S2","","html-keyboard-response","229","283739","0.0-1.0-310.0","0","0","38456","","null","","","null","34","","NaN","","","","","","","","","","","","","",""
"","response","","html-keyboard-response","230","284156","0.0-1.0-311.0","0","0","38456","","412","","","68","34","","","1","34","training","adjacent","GF","7","6","L.jpg","R.jpg","1","0","0","",""
"","feedback","","html-keyboard-response","231","285162","0.0-1.0-312.0-0.0","0","0","38456","","null","","","null","34","","","","","","","","","","","","","","","",""
"","time_out","","html-keyboard-response","232","287167","0.0-1.0-314.0-0.0","0","0","38456","","null","","","null","34","","","","","","","","","","","","","","","",""
"","ITI","","html-keyboard-response","233","288172","0.0-1.0-315.0","0","0","38456","","null","","","null","34","","","","","","","","","","","","","","","NaN",""
"","S1","","html-keyboard-response","234","288428","0.0-1.0-317.0","0","0","38456","","null","","","null","35","","","","","","","","","","","","","","","",""
"","ISI","","html-keyboard-response","235","290433","0.0-1.0-318.0","0","0","38456","","null","","","null","35","NaN","","","","","","","","","","","","","","",""
"","S2","","html-keyboard-response","236","290689","0.0-1.0-319.0","0","0","38456","","null","","","null","35","","NaN","","","","","","","","","","","","","",""
"","response","","html-keyboard-response","237","290702","0.0-1.0-320.0","0","0","38456","","7","","","75","35","","","1","35","training","adjacent","BC","2","3","Q.jpg","O.jpg","0","1","0","",""
"","feedback","","html-keyboard-response","238","291709","0.0-1.0-321.0-0.0","0","0","38456","","null","","","null","35","","","","","","","","","","","","","","","",""
"","time_out","","html-keyboard-response","239","293716","0.0-1.0-323.0-0.0","0","0","38456","","null","","","null","35","","","","","","","","","","","","","","","",""
"","ITI","","html-keyboard-response","240","294721","0.0-1.0-324.0","0","0","38456","","null","","","null","35","","","","","","","","","","","","","","","NaN",""
"","S1","","html-keyboard-response","241","294979","0.0-1.0-326.0","0","0","38456","","null","","","null","36","","","","","","","","","","","","","","","",""
"","ISI","","html-keyboard-response","242","296985","0.0-1.0-327.0","0","0","38456","","null","","","null","36","NaN","","","","","","","","","","","","","","",""
"","S2","","html-keyboard-response","243","297239","0.0-1.0-328.0","0","0","38456","","null","","","null","36","","NaN","","","","","","","","","","","","","",""
"","response","","html-keyboard-response","244","297396","0.0-1.0-329.0","0","0","38456","","152","","","68","36","","","1","36","training","adjacent","DC","4","3","N.jpg","O.jpg","1","0","0","",""
"","feedback","","html-keyboard-response","245","298402","0.0-1.0-330.0-0.0","0","0","38456","","null","","","null","36","","","","","","","","","","","","","","","",""
"","time_out","","html-keyboard-response","246","300407","0.0-1.0-332.0-0.0","0","0","38456","","null","","","null","36","","","","","","","","","","","","","","","",""
"","ITI","","html-keyboard-response","247","301413","0.0-1.0-333.0","0","0","38456","","null","","","null","36","","","","","","","","","","","","","","","NaN",""
"","S1","","html-keyboard-response","248","301669","0.0-1.0-335.0","0","0","38456","","null","","","null","37","","","","","","","","","","","","","","","",""
"","ISI","","html-keyboard-response","249","303674","0.0-1.0-336.0","0","0","38456","","null","","","null","37","NaN","","","","","","","","","","","","","","",""
"","S2","","html-keyboard-response","250","303931","0.0-1.0-337.0","0","0","38456","","null","","","null","37","","NaN","","","","","","","","","","","","","",""
"","response","","html-keyboard-response","251","303996","0.0-1.0-338.0","0","0","38456","","60","","","75","37","","","1","37","training","adjacent","BA","2","1","Q.jpg","P.jpg","0","0","1","",""
"","feedback","","html-keyboard-response","252","304999","0.0-1.0-339.0-0.0","0","0","38456","","null","","","null","37","","","","","","","","","","","","","","","",""
"","ITI","","html-keyboard-response","253","306004","0.0-1.0-342.0","0","0","38456","","null","","","null","37","","","","","","","","","","","","","","","NaN",""
"","S1","","html-keyboard-response","254","306260","0.0-1.0-344.0","0","0","38456","","null","","","null","38","","","","","","","","","","","","","","","",""
"","ISI","","html-keyboard-response","255","308266","0.0-1.0-345.0","0","0","38456","","null","","","null","38","NaN","","","","","","","","","","","","","","",""
"","S2","","html-keyboard-response","256","308522","0.0-1.0-346.0","0","0","38456","","null","","","null","38","","NaN","","","","","","","","","","","","","",""
"","response","","html-keyboard-response","257","308644","0.0-1.0-347.0","0","0","38456","","116","","","75","38","","","1","38","training","adjacent","EF","5","6","M.jpg","R.jpg","0","1","0","",""
"","feedback","","html-keyboard-response","258","309652","0.0-1.0-348.0-0.0","0","0","38456","","null","","","null","38","","","","","","","","","","","","","","","",""
"","time_out","","html-keyboard-response","259","311657","0.0-1.0-350.0-0.0","0","0","38456","","null","","","null","38","","","","","","","","","","","","","","","",""
"","ITI","","html-keyboard-response","260","312663","0.0-1.0-351.0","0","0","38456","","null","","","null","38","","","","","","","","","","","","","","","NaN",""
"","S1","","html-keyboard-response","261","312918","0.0-1.0-353.0","0","0","38456","","null","","","null","39","","","","","","","","","","","","","","","",""
"","ISI","","html-keyboard-response","262","314922","0.0-1.0-354.0","0","0","38456","","null","","","null","39","NaN","","","","","","","","","","","","","","",""
"","S2","","html-keyboard-response","263","315178","0.0-1.0-355.0","0","0","38456","","null","","","null","39","","NaN","","","","","","","","","","","","","",""
"","response","","html-keyboard-response","264","315315","0.0-1.0-356.0","0","0","38456","","133","","","68","39","","","1","39","training","adjacent","BC","2","3","Q.jpg","O.jpg","1","1","1","",""
"","feedback","","html-keyboard-response","265","316322","0.0-1.0-357.0-0.0","0","0","38456","","null","","","null","39","","","","","","","","","","","","","","","",""
"","ITI","","html-keyboard-response","266","317325","0.0-1.0-360.0","0","0","38456","","null","","","null","39","","","","","","","","","","","","","","","NaN",""
"","S1","","html-keyboard-response","267","317580","0.0-1.0-362.0","0","0","38456","","null","","","null","40","","","","","","","","","","","","","","","",""
"","ISI","","html-keyboard-response","268","319586","0.0-1.0-363.0","0","0","38456","","null","","","null","40","NaN","","","","","","","","","","","","","","",""
"","S2","","html-keyboard-response","269","319844","0.0-1.0-364.0","0","0","38456","","null","","","null","40","","NaN","","","","","","","","","","","","","",""
"","response","","html-keyboard-response","270","320436","0.0-1.0-365.0","0","0","38456","","586","","","75","40","","","1","40","training","adjacent","FE","6","5","R.jpg","M.jpg","0","0","1","",""
"","feedback","","html-keyboard-response","271","321442","0.0-1.0-366.0-0.0","0","0","38456","","null","","","null","40","","","","","","","","","","","","","","","",""
"","ITI","","html-keyboard-response","272","322450","0.0-1.0-369.0","0","0","38456","","null","","","null","40","","","","","","","","","","","","","","","NaN",""
"","S1","","html-keyboard-response","273","322706","0.0-1.0-371.0","0","0","38456","","null","","","null","41","","","","","","","","","","","","","","","",""
"","ISI","","html-keyboard-response","274","324710","0.0-1.0-372.0","0","0","38456","","null","","","null","41","NaN","","","","","","","","","","","","","","",""
"","S2","","html-keyboard-response","275","324967","0.0-1.0-373.0","0","0","38456","","null","","","null","41","","NaN","","","","","","","","","","","","","",""
"","response","","html-keyboard-response","276","325304","0.0-1.0-374.0","0","0","38456","","334","","","68","41","","","1","41","training","adjacent","FG","6","7","R.jpg","L.jpg","1","1","1","",""
"","feedback","","html-keyboard-response","277","326308","0.0-1.0-375.0-0.0","0","0","38456","","null","","","null","41","","","","","","","","","","","","","","","",""
"","ITI","","html-keyboard-response","278","327313","0.0-1.0-378.0","0","0","38456","","null","","","null","41","","","","","","","","","","","","","","","NaN",""
"","S1","","html-keyboard-response","279","327569","0.0-1.0-380.0","0","0","38456","","null","","","null","42","","","","","","","","","","","","","","","",""
"","ISI","","html-keyboard-response","280","329575","0.0-1.0-381.0","0","0","38456","","null","","","null","42","NaN","","","","","","","","","","","","","","",""
"","S2","","html-keyboard-response","281","329830","0.0-1.0-382.0","0","0","38456","","null","","","null","42","","NaN","","","","","","","","","","","","","",""
"","response","","html-keyboard-response","282","330108","0.0-1.0-383.0","0","0","38456","","272","","","68","42","","","1","42","training","adjacent","DE","4","5","N.jpg","M.jpg","1","1","1","",""
"","feedback","","html-keyboard-response","283","331115","0.0-1.0-384.0-0.0","0","0","38456","","null","","","null","42","","","","","","","","","","","","","","","",""
"","ITI","","html-keyboard-response","284","332120","0.0-1.0-387.0","0","0","38456","","null","","","null","42","","","","","","","","","","","","","","","NaN",""
"","S1","","html-keyboard-response","285","332376","0.0-1.0-389.0","0","0","38456","","null","","","null","43","","","","","","","","","","","","","","","",""
"","ISI","","html-keyboard-response","286","334382","0.0-1.0-390.0","0","0","38456","","null","","","null","43","NaN","","","","","","","","","","","","","","",""
"","S2","","html-keyboard-response","287","334640","0.0-1.0-391.0","0","0","38456","","null","","","null","43","","NaN","","","","","","","","","","","","","",""
"","response","","html-keyboard-response","288","334851","0.0-1.0-392.0","0","0","38456","","206","","","68","43","","","1","43","training","adjacent","CB","3","2","O.jpg","Q.jpg","1","0","0","",""
"","feedback","","html-keyboard-response","289","335858","0.0-1.0-393.0-0.0","0","0","38456","","null","","","null","43","","","","","","","","","","","","","","","",""
"","time_out","","html-keyboard-response","290","337863","0.0-1.0-395.0-0.0","0","0","38456","","null","","","null","43","","","","","","","","","","","","","","","",""
"","ITI","","html-keyboard-response","291","338869","0.0-1.0-396.0","0","0","38456","","null","","","null","43","","","","","","","","","","","","","","","NaN",""
"","S1","","html-keyboard-response","292","339126","0.0-1.0-398.0","0","0","38456","","null","","","null","44","","","","","","","","","","","","","","","",""
"","ISI","","html-keyboard-response","293","341130","0.0-1.0-399.0","0","0","38456","","null","","","null","44","NaN","","","","","","","","","","","","","","",""
"","S2","","html-keyboard-response","294","341386","0.0-1.0-400.0","0","0","38456","","null","","","null","44","","NaN","","","","","","","","","","","","","",""
"","response","","html-keyboard-response","295","341891","0.0-1.0-401.0","0","0","38456","","500","","","75","44","","","1","44","training","adjacent","DE","4","5","N.jpg","M.jpg","0","1","0","",""
"","feedback","","html-keyboard-response","296","342898","0.0-1.0-402.0-0.0","0","0","38456","","null","","","null","44","","","","","","","","","","","","","","","",""
"","time_out","","html-keyboard-response","297","344904","0.0-1.0-404.0-0.0","0","0","38456","","null","","","null","44","","","","","","","","","","","","","","","",""
"","ITI","","html-keyboard-response","298","345909","0.0-1.0-405.0","0","0","38456","","null","","","null","44","","","","","","","","","","","","","","","NaN",""
"","S1","","html-keyboard-response","299","346163","0.0-1.0-407.0","0","0","38456","","null","","","null","45","","","","","","","","","","","","","","","",""
"","ISI","","html-keyboard-response","300","348169","0.0-1.0-408.0","0","0","38456","","null","","","null","45","NaN","","","","","","","","","","","","","","",""
"","S2","","html-keyboard-response","301","348425","0.0-1.0-409.0","0","0","38456","","null","","","null","45","","NaN","","","","","","","","","","","","","",""
"","response","","html-keyboard-response","302","349062","0.0-1.0-410.0","0","0","38456","","629","","","75","45","","","1","45","training","adjacent","ED","5","4","M.jpg","N.jpg","0","0","1","",""
"","feedback","","html-keyboard-response","303","350069","0.0-1.0-411.0-0.0","0","0","38456","","null","","","null","45","","","","","","","","","","","","","","","",""
"","ITI","","html-keyboard-response","304","351075","0.0-1.0-414.0","0","0","38456","","null","","","null","45","","","","","","","","","","","","","","","NaN",""
"","S1","","html-keyboard-response","305","351331","0.0-1.0-416.0","0","0","38456","","null","","","null","46","","","","","","","","","","","","","","","",""
"","ISI","","html-keyboard-response","306","353335","0.0-1.0-417.0","0","0","38456","","null","","","null","46","NaN","","","","","","","","","","","","","","",""
"","S2","","html-keyboard-response","307","353592","0.0-1.0-418.0","0","0","38456","","null","","","null","46","","NaN","","","","","","","","","","","","","",""
"","response","","html-keyboard-response","308","353947","0.0-1.0-419.0","0","0","38456","","350","","","68","46","","","1","46","training","adjacent","AB","1","2","P.jpg","Q.jpg","1","1","1","",""
"","feedback","","html-keyboard-response","309","354951","0.0-1.0-420.0-0.0","0","0","38456","","null","","","null","46","","","","","","","","","","","","","","","",""
"","ITI","","html-keyboard-response","310","355956","0.0-1.0-423.0","0","0","38456","","null","","","null","46","","","","","","","","","","","","","","","NaN",""
"","S1","","html-keyboard-response","311","356214","0.0-1.0-425.0","0","0","38456","","null","","","null","47","","","","","","","","","","","","","","","",""
"","ISI","","html-keyboard-response","312","358219","0.0-1.0-426.0","0","0","38456","","null","","","null","47","NaN","","","","","","","","","","","","","","",""
"","S2","","html-keyboard-response","313","358474","0.0-1.0-427.0","0","0","38456","","null","","","null","47","","NaN","","","","","","","","","","","","","",""
"","response","","html-keyboard-response","314","358899","0.0-1.0-428.0","0","0","38456","","419","","","68","47","","","1","47","training","adjacent","AB","1","2","P.jpg","Q.jpg","1","1","1","",""
"","feedback","","html-keyboard-response","315","359906","0.0-1.0-429.0-0.0","0","0","38456","","null","","","null","47","","","","","","","","","","","","","","","",""
"","ITI","","html-keyboard-response","316","360911","0.0-1.0-432.0","0","0","38456","","null","","","null","47","","","","","","","","","","","","","","","NaN",""
"","block_over","","html-keyboard-response","317","367539","0.0-1.0-433.0-0.0","0","0","38456","","6618","","","32","47","","","","","","","","","","","","","","","",""
"","S1","","html-keyboard-response","318","367796","0.0-1.0-434.0","0","0","38456","","null","","","null","48","","","","","","","","","","","","","","","",""
"","ISI","","html-keyboard-response","319","369802","0.0-1.0-435.0","0","0","38456","","null","","","null","48","NaN","","","","","","","","","","","","","","",""
"","S2","","html-keyboard-response","320","370058","0.0-1.0-436.0","0","0","38456","","null","","","null","48","","NaN","","","","","","","","","","","","","",""
"","response","","html-keyboard-response","321","371178","0.0-1.0-437.0","0","0","38456","","1114","","","68","48","","","2","48","training","adjacent","CB","3","2","O.jpg","Q.jpg","1","0","0","",""
"","feedback","","html-keyboard-response","322","372186","0.0-1.0-438.0-0.0","0","0","38456","","null","","","null","48","","","","","","","","","","","","","","","",""
"","time_out","","html-keyboard-response","323","374192","0.0-1.0-440.0-0.0","0","0","38456","","null","","","null","48","","","","","","","","","","","","","","","",""
"","ITI","","html-keyboard-response","324","375197","0.0-1.0-441.0","0","0","38456","","null","","","null","48","","","","","","","","","","","","","","","NaN",""
"","S1","","html-keyboard-response","325","375454","0.0-1.0-443.0","0","0","38456","","null","","","null","49","","","","","","","","","","","","","","","",""
"","ISI","","html-keyboard-response","326","377459","0.0-1.0-444.0","0","0","38456","","null","","","null","49","NaN","","","","","","","","","","","","","","",""
"","S2","","html-keyboard-response","327","377714","0.0-1.0-445.0","0","0","38456","","null","","","null","49","","NaN","","","","","","","","","","","","","",""
"","response","","html-keyboard-response","328","378323","0.0-1.0-446.0","0","0","38456","","604","","","68","49","","","2","49","training","adjacent","BC","2","3","Q.jpg","O.jpg","1","1","1","",""
"","feedback","","html-keyboard-response","329","379330","0.0-1.0-447.0-0.0","0","0","38456","","null","","","null","49","","","","","","","","","","","","","","","",""
"","ITI","","html-keyboard-response","330","380337","0.0-1.0-450.0","0","0","38456","","null","","","null","49","","","","","","","","","","","","","","","NaN",""
"","S1","","html-keyboard-response","331","380593","0.0-1.0-452.0","0","0","38456","","null","","","null","50","","","","","","","","","","","","","","","",""
"","ISI","","html-keyboard-response","332","382598","0.0-1.0-453.0","0","0","38456","","null","","","null","50","NaN","","","","","","","","","","","","","","",""
"","S2","","html-keyboard-response","333","382855","0.0-1.0-454.0","0","0","38456","","null","","","null","50","","NaN","","","","","","","","","","","","","",""
"","response","","html-keyboard-response","334","383106","0.0-1.0-455.0","0","0","38456","","246","","","75","50","","","2","50","training","adjacent","AB","1","2","P.jpg","Q.jpg","0","1","0","",""
"","feedback","","html-keyboard-response","335","384112","0.0-1.0-456.0-0.0","0","0","38456","","null","","","null","50","","","","","","","","","","","","","","","",""
"","time_out","","html-keyboard-response","336","386118","0.0-1.0-458.0-0.0","0","0","38456","","null","","","null","50","","","","","","","","","","","","","","","",""
"","ITI","","html-keyboard-response","337","387120","0.0-1.0-459.0","0","0","38456","","null","","","null","50","","","","","","","","","","","","","","","NaN",""
"","S1","","html-keyboard-response","338","387375","0.0-1.0-461.0","0","0","38456","","null","","","null","51","","","","","","","","","","","","","","","",""
"","ISI","","html-keyboard-response","339","389380","0.0-1.0-462.0","0","0","38456","","null","","","null","51","NaN","","","","","","","","","","","","","","",""
"","S2","","html-keyboard-response","340","389636","0.0-1.0-463.0","0","0","38456","","null","","","null","51","","NaN","","","","","","","","","","","","","",""
"","response","","html-keyboard-response","341","389938","0.0-1.0-464.0","0","0","38456","","298","","","68","51","","","2","51","training","adjacent","CD","3","4","O.jpg","N.jpg","1","1","1","",""
"","feedback","","html-keyboard-response","342","390943","0.0-1.0-465.0-0.0","0","0","38456","","null","","","null","51","","","","","","","","","","","","","","","",""
"","ITI","","html-keyboard-response","343","391950","0.0-1.0-468.0","0","0","38456","","null","","","null","51","","","","","","","","","","","","","","","NaN",""
"","S1","","html-keyboard-response","344","392207","0.0-1.0-470.0","0","0","38456","","null","","","null","52","","","","","","","","","","","","","","","",""
"","ISI","","html-keyboard-response","345","394212","0.0-1.0-471.0","0","0","38456","","null","","","null","52","NaN","","","","","","","","","","","","","","",""
"","S2","","html-keyboard-response","346","394467","0.0-1.0-472.0","0","0","38456","","null","","","null","52","","NaN","","","","","","","","","","","","","",""
"","response","","html-keyboard-response","347","394818","0.0-1.0-473.0","0","0","38456","","346","","","68","52","","","2","52","training","adjacent","AB","1","2","P.jpg","Q.jpg","1","1","1","",""
"","feedback","","html-keyboard-response","348","395825","0.0-1.0-474.0-0.0","0","0","38456","","null","","","null","52","","","","","","","","","","","","","","","",""
"","ITI","","html-keyboard-response","349","396830","0.0-1.0-477.0","0","0","38456","","null","","","null","52","","","","","","","","","","","","","","","NaN",""
"","S1","","html-keyboard-response","350","397089","0.0-1.0-479.0","0","0","38456","","null","","","null","53","","","","","","","","","","","","","","","",""
"","ISI","","html-keyboard-response","351","399095","0.0-1.0-480.0","0","0","38456","","null","","","null","53","NaN","","","","","","","","","","","","","","",""
"","S2","","html-keyboard-response","352","399351","0.0-1.0-481.0","0","0","38456","","null","","","null","53","","NaN","","","","","","","","","","","","","",""
"","response","","html-keyboard-response","353","400554","0.0-1.0-482.0","0","0","38456","","1198","","","75","53","","","2","53","training","adjacent","BA","2","1","Q.jpg","P.jpg","0","0","1","",""
"","feedback","","html-keyboard-response","354","401560","0.0-1.0-483.0-0.0","0","0","38456","","null","","","null","53","","","","","","","","","","","","","","","",""
"","ITI","","html-keyboard-response","355","402566","0.0-1.0-486.0","0","0","38456","","null","","","null","53","","","","","","","","","","","","","","","NaN",""
"","S1","","html-keyboard-response","356","402823","0.0-1.0-488.0","0","0","38456","","null","","","null","54","","","","","","","","","","","","","","","",""
"","ISI","","html-keyboard-response","357","404828","0.0-1.0-489.0","0","0","38456","","null","","","null","54","NaN","","","","","","","","","","","","","","",""
"","S2","","html-keyboard-response","358","405084","0.0-1.0-490.0","0","0","38456","","null","","","null","54","","NaN","","","","","","","","","","","","","",""
"","response","","html-keyboard-response","359","405948","0.0-1.0-491.0","0","0","38456","","860","","","68","54","","","2","54","training","adjacent","DE","4","5","N.jpg","M.jpg","1","1","1","",""
"","feedback","","html-keyboard-response","360","406955","0.0-1.0-492.0-0.0","0","0","38456","","null","","","null","54","","","","","","","","","","","","","","","",""
"","ITI","","html-keyboard-response","361","407961","0.0-1.0-495.0","0","0","38456","","null","","","null","54","","","","","","","","","","","","","","","NaN",""
"","S1","","html-keyboard-response","362","408217","0.0-1.0-497.0","0","0","38456","","null","","","null","55","","","","","","","","","","","","","","","",""
"","ISI","","html-keyboard-response","363","410223","0.0-1.0-498.0","0","0","38456","","null","","","null","55","NaN","","","","","","","","","","","","","","",""
"","S2","","html-keyboard-response","364","410479","0.0-1.0-499.0","0","0","38456","","null","","","null","55","","NaN","","","","","","","","","","","","","",""
"","response","","html-keyboard-response","365","410850","0.0-1.0-500.0","0","0","38456","","366","","","68","55","","","2","55","training","adjacent","DC","4","3","N.jpg","O.jpg","1","0","0","",""
"","feedback","","html-keyboard-response","366","411857","0.0-1.0-501.0-0.0","0","0","38456","","null","","","null","55","","","","","","","","","","","","","","","",""
"","time_out","","html-keyboard-response","367","413862","0.0-1.0-503.0-0.0","0","0","38456","","null","","","null","55","","","","","","","","","","","","","","","",""
"","ITI","","html-keyboard-response","368","414867","0.0-1.0-504.0","0","0","38456","","null","","","null","55","","","","","","","","","","","","","","","NaN",""
"","S1","","html-keyboard-response","369","415124","0.0-1.0-506.0","0","0","38456","","null","","","null","56","","","","","","","","","","","","","","","",""
"","ISI","","html-keyboard-response","370","417129","0.0-1.0-507.0","0","0","38456","","null","","","null","56","NaN","","","","","","","","","","","","","","",""
"","S2","","html-keyboard-response","371","417385","0.0-1.0-508.0","0","0","38456","","null","","","null","56","","NaN","","","","","","","","","","","","","",""
"","response","","html-keyboard-response","372","417794","0.0-1.0-509.0","0","0","38456","","403","","","75","56","","","2","56","training","adjacent","FE","6","5","R.jpg","M.jpg","0","0","1","",""
"","feedback","","html-keyboard-response","373","418800","0.0-1.0-510.0-0.0","0","0","38456","","null","","","null","56","","","","","","","","","","","","","","","",""
"","ITI","","html-keyboard-response","374","419806","0.0-1.0-513.0","0","0","38456","","null","","","null","56","","","","","","","","","","","","","","","NaN",""
"","S1","","html-keyboard-response","375","420064","0.0-1.0-515.0","0","0","38456","","null","","","null","57","","","","","","","","","","","","","","","",""
"","ISI","","html-keyboard-response","376","422069","0.0-1.0-516.0","0","0","38456","","null","","","null","57","NaN","","","","","","","","","","","","","","",""
"","S2","","html-keyboard-response","377","422328","0.0-1.0-517.0","0","0","38456","","null","","","null","57","","NaN","","","","","","","","","","","","","",""
"","response","","html-keyboard-response","378","422649","0.0-1.0-518.0","0","0","38456","","316","","","68","57","","","2","57","training","adjacent","FG","6","7","R.jpg","L.jpg","1","1","1","",""
"","feedback","","html-keyboard-response","379","423655","0.0-1.0-519.0-0.0","0","0","38456","","null","","","null","57","","","","","","","","","","","","","","","",""
"","ITI","","html-keyboard-response","380","424661","0.0-1.0-522.0","0","0","38456","","null","","","null","57","","","","","","","","","","","","","","","NaN",""
"","S1","","html-keyboard-response","381","424916","0.0-1.0-524.0","0","0","38456","","null","","","null","58","","","","","","","","","","","","","","","",""
"","ISI","","html-keyboard-response","382","426922","0.0-1.0-525.0","0","0","38456","","null","","","null","58","NaN","","","","","","","","","","","","","","",""
"","S2","","html-keyboard-response","383","427178","0.0-1.0-526.0","0","0","38456","","null","","","null","58","","NaN","","","","","","","","","","","","","",""
"","response","","html-keyboard-response","384","427410","0.0-1.0-527.0","0","0","38456","","225","","","75","58","","","2","58","training","adjacent","FG","6","7","R.jpg","L.jpg","0","1","0","",""
"","feedback","","html-keyboard-response","385","428415","0.0-1.0-528.0-0.0","0","0","38456","","null","","","null","58","","","","","","","","","","","","","","","",""
"","time_out","","html-keyboard-response","386","430421","0.0-1.0-530.0-0.0","0","0","38456","","null","","","null","58","","","","","","","","","","","","","","","",""
"","ITI","","html-keyboard-response","387","431426","0.0-1.0-531.0","0","0","38456","","null","","","null","58","","","","","","","","","","","","","","","NaN",""
"","S1","","html-keyboard-response","388","431681","0.0-1.0-533.0","0","0","38456","","null","","","null","59","","","","","","","","","","","","","","","",""
"","ISI","","html-keyboard-response","389","433687","0.0-1.0-534.0","0","0","38456","","null","","","null","59","NaN","","","","","","","","","","","","","","",""
"","S2","","html-keyboard-response","390","433943","0.0-1.0-535.0","0","0","38456","","null","","","null","59","","NaN","","","","","","","","","","","","","",""
"","response","","html-keyboard-response","391","434553","0.0-1.0-536.0","0","0","38456","","605","","","75","59","","","2","59","training","adjacent","FE","6","5","R.jpg","M.jpg","0","0","1","",""
"","feedback","","html-keyboard-response","392","435560","0.0-1.0-537.0-0.0","0","0","38456","","null","","","null","59","","","","","","","","","","","","","","","",""
"","ITI","","html-keyboard-response","393","436566","0.0-1.0-540.0","0","0","38456","","null","","","null","59","","","","","","","","","","","","","","","NaN",""
"","S1","","html-keyboard-response","394","436822","0.0-1.0-542.0","0","0","38456","","null","","","null","60","","","","","","","","","","","","","","","",""
"","ISI","","html-keyboard-response","395","438829","0.0-1.0-543.0","0","0","38456","","null","","","null","60","NaN","","","","","","","","","","","","","","",""
"","S2","","html-keyboard-response","396","439085","0.0-1.0-544.0","0","0","38456","","null","","","null","60","","NaN","","","","","","","","","","","","","",""
"","response","","html-keyboard-response","397","439690","0.0-1.0-545.0","0","0","38456","","600","","","75","60","","","2","60","training","adjacent","CD","3","4","O.jpg","N.jpg","0","1","0","",""
"","feedback","","html-keyboard-response","398","440696","0.0-1.0-546.0-0.0","0","0","38456","","null","","","null","60","","","","","","","","","","","","","","","",""
"","time_out","","html-keyboard-response","399","442702","0.0-1.0-548.0-0.0","0","0","38456","","null","","","null","60","","","","","","","","","","","","","","","",""
"","ITI","","html-keyboard-response","400","443707","0.0-1.0-549.0","0","0","38456","","null","","","null","60","","","","","","","","","","","","","","","NaN",""
"","S1","","html-keyboard-response","401","443964","0.0-1.0-551.0","0","0","38456","","null","","","null","61","","","","","","","","","","","","","","","",""
"","ISI","","html-keyboard-response","402","445970","0.0-1.0-552.0","0","0","38456","","null","","","null","61","NaN","","","","","","","","","","","","","","",""
"","S2","","html-keyboard-response","403","446226","0.0-1.0-553.0","0","0","38456","","null","","","null","61","","NaN","","","","","","","","","","","","","",""
"","response","","html-keyboard-response","404","446570","0.0-1.0-554.0","0","0","38456","","338","","","75","61","","","2","61","training","adjacent","EF","5","6","M.jpg","R.jpg","0","1","0","",""
"","feedback","","html-keyboard-response","405","447576","0.0-1.0-555.0-0.0","0","0","38456","","null","","","null","61","","","","","","","","","","","","","","","",""
"","time_out","","html-keyboard-response","406","449582","0.0-1.0-557.0-0.0","0","0","38456","","null","","","null","61","","","","","","","","","","","","","","","",""
"","ITI","","html-keyboard-response","407","450589","0.0-1.0-558.0","0","0","38456","","null","","","null","61","","","","","","","","","","","","","","","NaN",""
"","S1","","html-keyboard-response","408","450844","0.0-1.0-560.0","0","0","38456","","null","","","null","62","","","","","","","","","","","","","","","",""
"","ISI","","html-keyboard-response","409","452850","0.0-1.0-561.0","0","0","38456","","null","","","null","62","NaN","","","","","","","","","","","","","","",""
"","S2","","html-keyboard-response","410","453106","0.0-1.0-562.0","0","0","38456","","null","","","null","62","","NaN","","","","","","","","","","","","","",""
"","response","","html-keyboard-response","411","453497","0.0-1.0-563.0","0","0","38456","","385","","","68","62","","","2","62","training","adjacent","CB","3","2","O.jpg","Q.jpg","1","0","0","",""
"","feedback","","html-keyboard-response","412","454503","0.0-1.0-564.0-0.0","0","0","38456","","null","","","null","62","","","","","","","","","","","","","","","",""
"","time_out","","html-keyboard-response","413","456509","0.0-1.0-566.0-0.0","0","0","38456","","null","","","null","62","","","","","","","","","","","","","","","",""
"","ITI","","html-keyboard-response","414","457515","0.0-1.0-567.0","0","0","38456","","null","","","null","62","","","","","","","","","","","","","","","NaN",""
"","S1","","html-keyboard-response","415","457771","0.0-1.0-569.0","0","0","38456","","null","","","null","63","","","","","","","","","","","","","","","",""
"","ISI","","html-keyboard-response","416","459778","0.0-1.0-570.0","0","0","38456","","null","","","null","63","NaN","","","","","","","","","","","","","","",""
"","S2","","html-keyboard-response","417","460033","0.0-1.0-571.0","0","0","38456","","null","","","null","63","","NaN","","","","","","","","","","","","","",""
"","response","","html-keyboard-response","418","461337","0.0-1.0-572.0","0","0","38456","","1299","","","75","63","","","2","63","training","adjacent","EF","5","6","M.jpg","R.jpg","0","1","0","",""
"","feedback","","html-keyboard-response","419","462343","0.0-1.0-573.0-0.0","0","0","38456","","null","","","null","63","","","","","","","","","","","","","","","",""
"","time_out","","html-keyboard-response","420","464349","0.0-1.0-575.0-0.0","0","0","38456","","null","","","null","63","","","","","","","","","","","","","","","",""
"","ITI","","html-keyboard-response","421","465356","0.0-1.0-576.0","0","0","38456","","null","","","null","63","","","","","","","","","","","","","","","NaN",""
"","S1","","html-keyboard-response","422","465613","0.0-1.0-578.0","0","0","38456","","null","","","null","64","","","","","","","","","","","","","","","",""
"","ISI","","html-keyboard-response","423","467618","0.0-1.0-579.0","0","0","38456","","null","","","null","64","NaN","","","","","","","","","","","","","","",""
"","S2","","html-keyboard-response","424","467873","0.0-1.0-580.0","0","0","38456","","null","","","null","64","","NaN","","","","","","","","","","","","","",""
"","response","","html-keyboard-response","425","468570","0.0-1.0-581.0","0","0","38456","","691","","","68","64","","","2","64","training","adjacent","AB","1","2","P.jpg","Q.jpg","1","1","1","",""
"","feedback","","html-keyboard-response","426","469576","0.0-1.0-582.0-0.0","0","0","38456","","null","","","null","64","","","","","","","","","","","","","","","",""
"","ITI","","html-keyboard-response","427","470583","0.0-1.0-585.0","0","0","38456","","null","","","null","64","","","","","","","","","","","","","","","NaN",""
"","S1","","html-keyboard-response","428","470839","0.0-1.0-587.0","0","0","38456","","null","","","null","65","","","","","","","","","","","","","","","",""
"","ISI","","html-keyboard-response","429","472844","0.0-1.0-588.0","0","0","38456","","null","","","null","65","NaN","","","","","","","","","","","","","","",""
"","S2","","html-keyboard-response","430","473100","0.0-1.0-589.0","0","0","38456","","null","","","null","65","","NaN","","","","","","","","","","","","","",""
"","response","","html-keyboard-response","431","473353","0.0-1.0-590.0","0","0","38456","","245","","","68","65","","","2","65","training","adjacent","ED","5","4","M.jpg","N.jpg","1","0","0","",""
"","feedback","","html-keyboard-response","432","474359","0.0-1.0-591.0-0.0","0","0","38456","","null","","","null","65","","","","","","","","","","","","","","","",""
"","time_out","","html-keyboard-response","433","476365","0.0-1.0-593.0-0.0","0","0","38456","","null","","","null","65","","","","","","","","","","","","","","","",""
"","ITI","","html-keyboard-response","434","477370","0.0-1.0-594.0","0","0","38456","","null","","","null","65","","","","","","","","","","","","","","","NaN",""
"","S1","","html-keyboard-response","435","477626","0.0-1.0-596.0","0","0","38456","","null","","","null","66","","","","","","","","","","","","","","","",""
"","ISI","","html-keyboard-response","436","479631","0.0-1.0-597.0","0","0","38456","","null","","","null","66","NaN","","","","","","","","","","","","","","",""
"","S2","","html-keyboard-response","437","479887","0.0-1.0-598.0","0","0","38456","","null","","","null","66","","NaN","","","","","","","","","","","","","",""
"","response","","html-keyboard-response","438","480282","0.0-1.0-599.0","0","0","38456","","389","","","68","66","","","2","66","training","adjacent","BC","2","3","Q.jpg","O.jpg","1","1","1","",""
"","feedback","","html-keyboard-response","439","481288","0.0-1.0-600.0-0.0","0","0","38456","","null","","","null","66","","","","","","","","","","","","","","","",""
"","ITI","","html-keyboard-response","440","482295","0.0-1.0-603.0","0","0","38456","","null","","","null","66","","","","","","","","","","","","","","","NaN",""
"","S1","","html-keyboard-response","441","482550","0.0-1.0-605.0","0","0","38456","","null","","","null","67","","","","","","","","","","","","","","","",""
"","ISI","","html-keyboard-response","442","484557","0.0-1.0-606.0","0","0","38456","","null","","","null","67","NaN","","","","","","","","","","","","","","",""
"","S2","","html-keyboard-response","443","484813","0.0-1.0-607.0","0","0","38456","","null","","","null","67","","NaN","","","","","","","","","","","","","",""
"","response","","html-keyboard-response","444","485185","0.0-1.0-608.0","0","0","38456","","366","","","68","67","","","2","67","training","adjacent","EF","5","6","M.jpg","R.jpg","1","1","1","",""
"","feedback","","html-keyboard-response","445","486191","0.0-1.0-609.0-0.0","0","0","38456","","null","","","null","67","","","","","","","","","","","","","","","",""
"","ITI","","html-keyboard-response","446","487199","0.0-1.0-612.0","0","0","38456","","null","","","null","67","","","","","","","","","","","","","","","NaN",""
"","S1","","html-keyboard-response","447","487454","0.0-1.0-614.0","0","0","38456","","null","","","null","68","","","","","","","","","","","","","","","",""
"","ISI","","html-keyboard-response","448","489461","0.0-1.0-615.0","0","0","38456","","null","","","null","68","NaN","","","","","","","","","","","","","","",""
"","S2","","html-keyboard-response","449","489719","0.0-1.0-616.0","0","0","38456","","null","","","null","68","","NaN","","","","","","","","","","","","","",""
"","response","","html-keyboard-response","450","490080","0.0-1.0-617.0","0","0","38456","","357","","","75","68","","","2","68","training","adjacent","FE","6","5","R.jpg","M.jpg","0","0","1","",""
"","feedback","","html-keyboard-response","451","491087","0.0-1.0-618.0-0.0","0","0","38456","","null","","","null","68","","","","","","","","","","","","","","","",""
"","ITI","","html-keyboard-response","452","492092","0.0-1.0-621.0","0","0","38456","","null","","","null","68","","","","","","","","","","","","","","","NaN",""
"","S1","","html-keyboard-response","453","492349","0.0-1.0-623.0","0","0","38456","","null","","","null","69","","","","","","","","","","","","","","","",""
"","ISI","","html-keyboard-response","454","494355","0.0-1.0-624.0","0","0","38456","","null","","","null","69","NaN","","","","","","","","","","","","","","",""
"","S2","","html-keyboard-response","455","494611","0.0-1.0-625.0","0","0","38456","","null","","","null","69","","NaN","","","","","","","","","","","","","",""
"","response","","html-keyboard-response","456","495232","0.0-1.0-626.0","0","0","38456","","616","","","75","69","","","2","69","training","adjacent","BC","2","3","Q.jpg","O.jpg","0","1","0","",""
"","feedback","","html-keyboard-response","457","496238","0.0-1.0-627.0-0.0","0","0","38456","","null","","","null","69","","","","","","","","","","","","","","","",""
"","time_out","","html-keyboard-response","458","498244","0.0-1.0-629.0-0.0","0","0","38456","","null","","","null","69","","","","","","","","","","","","","","","",""
"","ITI","","html-keyboard-response","459","499248","0.0-1.0-630.0","0","0","38456","","null","","","null","69","","","","","","","","","","","","","","","NaN",""
"","S1","","html-keyboard-response","460","499506","0.0-1.0-632.0","0","0","38456","","null","","","null","70","","","","","","","","","","","","","","","",""
"","ISI","","html-keyboard-response","461","501511","0.0-1.0-633.0","0","0","38456","","null","","","null","70","NaN","","","","","","","","","","","","","","",""
"","S2","","html-keyboard-response","462","501767","0.0-1.0-634.0","0","0","38456","","null","","","null","70","","NaN","","","","","","","","","","","","","",""
"","response","","html-keyboard-response","463","502425","0.0-1.0-635.0","0","0","38456","","652","","","75","70","","","2","70","training","adjacent","DC","4","3","N.jpg","O.jpg","0","0","1","",""
"","feedback","","html-keyboard-response","464","503431","0.0-1.0-636.0-0.0","0","0","38456","","null","","","null","70","","","","","","","","","","","","","","","",""
"","ITI","","html-keyboard-response","465","504437","0.0-1.0-639.0","0","0","38456","","null","","","null","70","","","","","","","","","","","","","","","NaN",""
"","S1","","html-keyboard-response","466","504696","0.0-1.0-641.0","0","0","38456","","null","","","null","71","","","","","","","","","","","","","","","",""
"","ISI","","html-keyboard-response","467","506700","0.0-1.0-642.0","0","0","38456","","null","","","null","71","NaN","","","","","","","","","","","","","","",""
"","S2","","html-keyboard-response","468","506958","0.0-1.0-643.0","0","0","38456","","null","","","null","71","","NaN","","","","","","","","","","","","","",""
"","response","","html-keyboard-response","469","507640","0.0-1.0-644.0","0","0","38456","","677","","","68","71","","","2","71","training","adjacent","GF","7","6","L.jpg","R.jpg","1","0","0","",""
"","feedback","","html-keyboard-response","470","508646","0.0-1.0-645.0-0.0","0","0","38456","","null","","","null","71","","","","","","","","","","","","","","","",""
"","time_out","","html-keyboard-response","471","510652","0.0-1.0-647.0-0.0","0","0","38456","","null","","","null","71","","","","","","","","","","","","","","","",""
"","ITI","","html-keyboard-response","472","511657","0.0-1.0-648.0","0","0","38456","","null","","","null","71","","","","","","","","","","","","","","","NaN",""
"","S1","","html-keyboard-response","473","511914","0.0-1.0-650.0","0","0","38456","","null","","","null","72","","","","","","","","","","","","","","","",""
"","ISI","","html-keyboard-response","474","513920","0.0-1.0-651.0","0","0","38456","","null","","","null","72","NaN","","","","","","","","","","","","","","",""
"","S2","","html-keyboard-response","475","514177","0.0-1.0-652.0","0","0","38456","","null","","","null","72","","NaN","","","","","","","","","","","","","",""
"","response","","html-keyboard-response","476","514575","0.0-1.0-653.0","0","0","38456","","393","","","68","72","","","2","72","training","adjacent","AB","1","2","P.jpg","Q.jpg","1","1","1","",""
"","feedback","","html-keyboard-response","477","515581","0.0-1.0-654.0-0.0","0","0","38456","","null","","","null","72","","","","","","","","","","","","","","","",""
"","ITI","","html-keyboard-response","478","516587","0.0-1.0-657.0","0","0","38456","","null","","","null","72","","","","","","","","","","","","","","","NaN",""
"","S1","","html-keyboard-response","479","516842","0.0-1.0-659.0","0","0","38456","","null","","","null","73","","","","","","","","","","","","","","","",""
"","ISI","","html-keyboard-response","480","518847","0.0-1.0-660.0","0","0","38456","","null","","","null","73","NaN","","","","","","","","","","","","","","",""
"","S2","","html-keyboard-response","481","519104","0.0-1.0-661.0","0","0","38456","","null","","","null","73","","NaN","","","","","","","","","","","","","",""
"","response","","html-keyboard-response","482","519818","0.0-1.0-662.0","0","0","38456","","708","","","75","73","","","2","73","training","adjacent","CB","3","2","O.jpg","Q.jpg","0","0","1","",""
"","feedback","","html-keyboard-response","483","520825","0.0-1.0-663.0-0.0","0","0","38456","","null","","","null","73","","","","","","","","","","","","","","","",""
"","ITI","","html-keyboard-response","484","521832","0.0-1.0-666.0","0","0","38456","","null","","","null","73","","","","","","","","","","","","","","","NaN",""
"","S1","","html-keyboard-response","485","522087","0.0-1.0-668.0","0","0","38456","","null","","","null","74","","","","","","","","","","","","","","","",""
"","ISI","","html-keyboard-response","486","524093","0.0-1.0-669.0","0","0","38456","","null","","","null","74","NaN","","","","","","","","","","","","","","",""
"","S2","","html-keyboard-response","487","524348","0.0-1.0-670.0","0","0","38456","","null","","","null","74","","NaN","","","","","","","","","","","","","",""
"","response","","html-keyboard-response","488","524441","0.0-1.0-671.0","0","0","38456","","87","","","68","74","","","2","74","training","adjacent","FG","6","7","R.jpg","L.jpg","1","1","1","",""
"","feedback","","html-keyboard-response","489","525447","0.0-1.0-672.0-0.0","0","0","38456","","null","","","null","74","","","","","","","","","","","","","","","",""
"","ITI","","html-keyboard-response","490","526455","0.0-1.0-675.0","0","0","38456","","null","","","null","74","","","","","","","","","","","","","","","NaN",""
"","S1","","html-keyboard-response","491","526711","0.0-1.0-677.0","0","0","38456","","null","","","null","75","","","","","","","","","","","","","","","",""
"","ISI","","html-keyboard-response","492","528716","0.0-1.0-678.0","0","0","38456","","null","","","null","75","NaN","","","","","","","","","","","","","","",""
"","S2","","html-keyboard-response","493","528972","0.0-1.0-679.0","0","0","38456","","null","","","null","75","","NaN","","","","","","","","","","","","","",""
"","response","","html-keyboard-response","494","529448","0.0-1.0-680.0","0","0","38456","","471","","","75","75","","","2","75","training","adjacent","ED","5","4","M.jpg","N.jpg","0","0","1","",""
"","feedback","","html-keyboard-response","495","530456","0.0-1.0-681.0-0.0","0","0","38456","","null","","","null","75","","","","","","","","","","","","","","","",""
"","ITI","","html-keyboard-response","496","531462","0.0-1.0-684.0","0","0","38456","","null","","","null","75","","","","","","","","","","","","","","","NaN",""
"","S1","","html-keyboard-response","497","531718","0.0-1.0-686.0","0","0","38456","","null","","","null","76","","","","","","","","","","","","","","","",""
"","ISI","","html-keyboard-response","498","533725","0.0-1.0-687.0","0","0","38456","","null","","","null","76","NaN","","","","","","","","","","","","","","",""
"","S2","","html-keyboard-response","499","533980","0.0-1.0-688.0","0","0","38456","","null","","","null","76","","NaN","","","","","","","","","","","","","",""
"","response","","html-keyboard-response","500","534463","0.0-1.0-689.0","0","0","38456","","477","","","75","76","","","2","76","training","adjacent","DE","4","5","N.jpg","M.jpg","0","1","0","",""
"","feedback","","html-keyboard-response","501","535471","0.0-1.0-690.0-0.0","0","0","38456","","null","","","null","76","","","","","","","","","","","","","","","",""
"","time_out","","html-keyboard-response","502","537476","0.0-1.0-692.0-0.0","0","0","38456","","null","","","null","76","","","","","","","","","","","","","","","",""
"","ITI","","html-keyboard-response","503","538482","0.0-1.0-693.0","0","0","38456","","null","","","null","76","","","","","","","","","","","","","","","NaN",""
"","S1","","html-keyboard-response","504","538739","0.0-1.0-695.0","0","0","38456","","null","","","null","77","","","","","","","","","","","","","","","",""
"","ISI","","html-keyboard-response","505","540743","0.0-1.0-696.0","0","0","38456","","null","","","null","77","NaN","","","","","","","","","","","","","","",""
"","S2","","html-keyboard-response","506","540999","0.0-1.0-697.0","0","0","38456","","null","","","null","77","","NaN","","","","","","","","","","","","","",""
"","response","","html-keyboard-response","507","541736","0.0-1.0-698.0","0","0","38456","","731","","","75","77","","","2","77","training","adjacent","BA","2","1","Q.jpg","P.jpg","0","0","1","",""
"","feedback","","html-keyboard-response","508","542743","0.0-1.0-699.0-0.0","0","0","38456","","null","","","null","77","","","","","","","","","","","","","","","",""
"","ITI","","html-keyboard-response","509","543750","0.0-1.0-702.0","0","0","38456","","null","","","null","77","","","","","","","","","","","","","","","NaN",""
"","S1","","html-keyboard-response","510","544007","0.0-1.0-704.0","0","0","38456","","null","","","null","78","","","","","","","","","","","","","","","",""
"","ISI","","html-keyboard-response","511","546012","0.0-1.0-705.0","0","0","38456","","null","","","null","78","NaN","","","","","","","","","","","","","","",""
"","S2","","html-keyboard-response","512","546270","0.0-1.0-706.0","0","0","38456","","null","","","null","78","","NaN","","","","","","","","","","","","","",""
"","response","","html-keyboard-response","513","547000","0.0-1.0-707.0","0","0","38456","","724","","","75","78","","","2","78","training","adjacent","GF","7","6","L.jpg","R.jpg","0","0","1","",""
"","feedback","","html-keyboard-response","514","548006","0.0-1.0-708.0-0.0","0","0","38456","","null","","","null","78","","","","","","","","","","","","","","","",""
"","ITI","","html-keyboard-response","515","549011","0.0-1.0-711.0","0","0","38456","","null","","","null","78","","","","","","","","","","","","","","","NaN",""
"","S1","","html-keyboard-response","516","549268","0.0-1.0-713.0","0","0","38456","","null","","","null","79","","","","","","","","","","","","","","","",""
"","ISI","","html-keyboard-response","517","551275","0.0-1.0-714.0","0","0","38456","","null","","","null","79","NaN","","","","","","","","","","","","","","",""
"","S2","","html-keyboard-response","518","551531","0.0-1.0-715.0","0","0","38456","","null","","","null","79","","NaN","","","","","","","","","","","","","",""
"","response","","html-keyboard-response","519","551847","0.0-1.0-716.0","0","0","38456","","310","","","68","79","","","2","79","training","adjacent","CD","3","4","O.jpg","N.jpg","1","1","1","",""
"","feedback","","html-keyboard-response","520","552854","0.0-1.0-717.0-0.0","0","0","38456","","null","","","null","79","","","","","","","","","","","","","","","",""
"","ITI","","html-keyboard-response","521","553860","0.0-1.0-720.0","0","0","38456","","null","","","null","79","","","","","","","","","","","","","","","NaN",""
"","S1","","html-keyboard-response","522","554116","0.0-1.0-722.0","0","0","38456","","null","","","null","80","","","","","","","","","","","","","","","",""
"","ISI","","html-keyboard-response","523","556121","0.0-1.0-723.0","0","0","38456","","null","","","null","80","NaN","","","","","","","","","","","","","","",""
"","S2","","html-keyboard-response","524","556378","0.0-1.0-724.0","0","0","38456","","null","","","null","80","","NaN","","","","","","","","","","","","","",""
"","response","","html-keyboard-response","525","556991","0.0-1.0-725.0","0","0","38456","","608","","","68","80","","","2","80","training","adjacent","ED","5","4","M.jpg","N.jpg","1","0","0","",""
"","feedback","","html-keyboard-response","526","557998","0.0-1.0-726.0-0.0","0","0","38456","","null","","","null","80","","","","","","","","","","","","","","","",""
"","time_out","","html-keyboard-response","527","560004","0.0-1.0-728.0-0.0","0","0","38456","","null","","","null","80","","","","","","","","","","","","","","","",""
"","ITI","","html-keyboard-response","528","561010","0.0-1.0-729.0","0","0","38456","","null","","","null","80","","","","","","","","","","","","","","","NaN",""
"","S1","","html-keyboard-response","529","561267","0.0-1.0-731.0","0","0","38456","","null","","","null","81","","","","","","","","","","","","","","","",""
"","ISI","","html-keyboard-response","530","563273","0.0-1.0-732.0","0","0","38456","","null","","","null","81","NaN","","","","","","","","","","","","","","",""
"","S2","","html-keyboard-response","531","563531","0.0-1.0-733.0","0","0","38456","","null","","","null","81","","NaN","","","","","","","","","","","","","",""
"","response","","html-keyboard-response","532","563799","0.0-1.0-734.0","0","0","38456","","263","","","75","81","","","2","81","training","adjacent","BC","2","3","Q.jpg","O.jpg","0","1","0","",""
"","feedback","","html-keyboard-response","533","564805","0.0-1.0-735.0-0.0","0","0","38456","","null","","","null","81","","","","","","","","","","","","","","","",""
"","time_out","","html-keyboard-response","534","566810","0.0-1.0-737.0-0.0","0","0","38456","","null","","","null","81","","","","","","","","","","","","","","","",""
"","ITI","","html-keyboard-response","535","567815","0.0-1.0-738.0","0","0","38456","","null","","","null","81","","","","","","","","","","","","","","","NaN",""
"","S1","","html-keyboard-response","536","568072","0.0-1.0-740.0","0","0","38456","","null","","","null","82","","","","","","","","","","","","","","","",""
"","ISI","","html-keyboard-response","537","570078","0.0-1.0-741.0","0","0","38456","","null","","","null","82","NaN","","","","","","","","","","","","","","",""
"","S2","","html-keyboard-response","538","570331","0.0-1.0-742.0","0","0","38456","","null","","","null","82","","NaN","","","","","","","","","","","","","",""
"","response","","html-keyboard-response","539","570551","0.0-1.0-743.0","0","0","38456","","214","","","68","82","","","2","82","training","adjacent","DE","4","5","N.jpg","M.jpg","1","1","1","",""
"","feedback","","html-keyboard-response","540","571557","0.0-1.0-744.0-0.0","0","0","38456","","null","","","null","82","","","","","","","","","","","","","","","",""
"","ITI","","html-keyboard-response","541","572563","0.0-1.0-747.0","0","0","38456","","null","","","null","82","","","","","","","","","","","","","","","NaN",""
"","S1","","html-keyboard-response","542","572819","0.0-1.0-749.0","0","0","38456","","null","","","null","83","","","","","","","","","","","","","","","",""
"","ISI","","html-keyboard-response","543","574824","0.0-1.0-750.0","0","0","38456","","null","","","null","83","NaN","","","","","","","","","","","","","","",""
"","S2","","html-keyboard-response","544","575080","0.0-1.0-751.0","0","0","38456","","null","","","null","83","","NaN","","","","","","","","","","","","","",""
"","response","","html-keyboard-response","545","575622","0.0-1.0-752.0","0","0","38456","","538","","","75","83","","","2","83","training","adjacent","GF","7","6","L.jpg","R.jpg","0","0","1","",""
"","feedback","","html-keyboard-response","546","576629","0.0-1.0-753.0-0.0","0","0","38456","","null","","","null","83","","","","","","","","","","","","","","","",""
"","ITI","","html-keyboard-response","547","577636","0.0-1.0-756.0","0","0","38456","","null","","","null","83","","","","","","","","","","","","","","","NaN",""
"","S1","","html-keyboard-response","548","577893","0.0-1.0-758.0","0","0","38456","","null","","","null","84","","","","","","","","","","","","","","","",""
"","ISI","","html-keyboard-response","549","579899","0.0-1.0-759.0","0","0","38456","","null","","","null","84","NaN","","","","","","","","","","","","","","",""
"","S2","","html-keyboard-response","550","580155","0.0-1.0-760.0","0","0","38456","","null","","","null","84","","NaN","","","","","","","","","","","","","",""
"","response","","html-keyboard-response","551","580431","0.0-1.0-761.0","0","0","38456","","270","","","68","84","","","2","84","training","adjacent","CB","3","2","O.jpg","Q.jpg","1","0","0","",""
"","feedback","","html-keyboard-response","552","581437","0.0-1.0-762.0-0.0","0","0","38456","","null","","","null","84","","","","","","","","","","","","","","","",""
"","time_out","","html-keyboard-response","553","583443","0.0-1.0-764.0-0.0","0","0","38456","","null","","","null","84","","","","","","","","","","","","","","","",""
"","ITI","","html-keyboard-response","554","584448","0.0-1.0-765.0","0","0","38456","","null","","","null","84","","","","","","","","","","","","","","","NaN",""
"","S1","","html-keyboard-response","555","584705","0.0-1.0-767.0","0","0","38456","","null","","","null","85","","","","","","","","","","","","","","","",""
"","ISI","","html-keyboard-response","556","586711","0.0-1.0-768.0","0","0","38456","","null","","","null","85","NaN","","","","","","","","","","","","","","",""
"","S2","","html-keyboard-response","557","586967","0.0-1.0-769.0","0","0","38456","","null","","","null","85","","NaN","","","","","","","","","","","","","",""
"","response","","html-keyboard-response","558","587535","0.0-1.0-770.0","0","0","38456","","562","","","68","85","","","2","85","training","adjacent","DC","4","3","N.jpg","O.jpg","1","0","0","",""
"","feedback","","html-keyboard-response","559","588541","0.0-1.0-771.0-0.0","0","0","38456","","null","","","null","85","","","","","","","","","","","","","","","",""
"","time_out","","html-keyboard-response","560","590548","0.0-1.0-773.0-0.0","0","0","38456","","null","","","null","85","","","","","","","","","","","","","","","",""
"","ITI","","html-keyboard-response","561","591553","0.0-1.0-774.0","0","0","38456","","null","","","null","85","","","","","","","","","","","","","","","NaN",""
"","S1","","html-keyboard-response","562","591809","0.0-1.0-776.0","0","0","38456","","null","","","null","86","","","","","","","","","","","","","","","",""
"","ISI","","html-keyboard-response","563","593816","0.0-1.0-777.0","0","0","38456","","null","","","null","86","NaN","","","","","","","","","","","","","","",""
"","S2","","html-keyboard-response","564","594072","0.0-1.0-778.0","0","0","38456","","null","","","null","86","","NaN","","","","","","","","","","","","","",""
"","response","","html-keyboard-response","565","594312","0.0-1.0-779.0","0","0","38456","","233","","","75","86","","","2","86","training","adjacent","ED","5","4","M.jpg","N.jpg","0","0","1","",""
"","feedback","","html-keyboard-response","566","595319","0.0-1.0-780.0-0.0","0","0","38456","","null","","","null","86","","","","","","","","","","","","","","","",""
"","ITI","","html-keyboard-response","567","596328","0.0-1.0-783.0","0","0","38456","","null","","","null","86","","","","","","","","","","","","","","","NaN",""
"","S1","","html-keyboard-response","568","596585","0.0-1.0-785.0","0","0","38456","","null","","","null","87","","","","","","","","","","","","","","","",""
"","ISI","","html-keyboard-response","569","598590","0.0-1.0-786.0","0","0","38456","","null","","","null","87","NaN","","","","","","","","","","","","","","",""
"","S2","","html-keyboard-response","570","598846","0.0-1.0-787.0","0","0","38456","","null","","","null","87","","NaN","","","","","","","","","","","","","",""
"","response","","html-keyboard-response","571","599230","0.0-1.0-788.0","0","0","38456","","377","","","68","87","","","2","87","training","adjacent","EF","5","6","M.jpg","R.jpg","1","1","1","",""
"","feedback","","html-keyboard-response","572","600237","0.0-1.0-789.0-0.0","0","0","38456","","null","","","null","87","","","","","","","","","","","","","","","",""
"","ITI","","html-keyboard-response","573","601244","0.0-1.0-792.0","0","0","38456","","null","","","null","87","","","","","","","","","","","","","","","NaN",""
"","S1","","html-keyboard-response","574","601500","0.0-1.0-794.0","0","0","38456","","null","","","null","88","","","","","","","","","","","","","","","",""
"","ISI","","html-keyboard-response","575","603505","0.0-1.0-795.0","0","0","38456","","null","","","null","88","NaN","","","","","","","","","","","","","","",""
"","S2","","html-keyboard-response","576","603763","0.0-1.0-796.0","0","0","38456","","null","","","null","88","","NaN","","","","","","","","","","","","","",""
"","response","","html-keyboard-response","577","604038","0.0-1.0-797.0","0","0","38456","","270","","","68","88","","","2","88","training","adjacent","CD","3","4","O.jpg","N.jpg","1","1","1","",""
"","feedback","","html-keyboard-response","578","605044","0.0-1.0-798.0-0.0","0","0","38456","","null","","","null","88","","","","","","","","","","","","","","","",""
"","ITI","","html-keyboard-response","579","606050","0.0-1.0-801.0","0","0","38456","","null","","","null","88","","","","","","","","","","","","","","","NaN",""
"","S1","","html-keyboard-response","580","606306","0.0-1.0-803.0","0","0","38456","","null","","","null","89","","","","","","","","","","","","","","","",""
"","ISI","","html-keyboard-response","581","608311","0.0-1.0-804.0","0","0","38456","","null","","","null","89","NaN","","","","","","","","","","","","","","",""
"","S2","","html-keyboard-response","582","608566","0.0-1.0-805.0","0","0","38456","","null","","","null","89","","NaN","","","","","","","","","","","","","",""
"","response","","html-keyboard-response","583","609119","0.0-1.0-806.0","0","0","38456","","547","","","75","89","","","2","89","training","adjacent","BA","2","1","Q.jpg","P.jpg","0","0","1","",""
"","feedback","","html-keyboard-response","584","610126","0.0-1.0-807.0-0.0","0","0","38456","","null","","","null","89","","","","","","","","","","","","","","","",""
