"success","ttype","start_time","trial_type","trial_index","time_elapsed","internal_node_id","warning","missed_checkup","PID","view_history","rt","responses","repeat_instructions","key_press","index","keypress_isi","keypress_S2","block","trial_num","phase","group_type","pair_type","S1_stim","S2_stim","S1_img","S2_img","S1_chosen","S1_higher","accuracy","keypress_iti","total_bonus_tally"
"true","full_screen","d03072023hr1801","fullscreen","0","3211","0.0-0.0","0","0","16402","","","","","","","","","","","","","","","","","","","","","",""
"","instructions","","instructions","1","39525","0.0-1.0-0.0-0.0","0","0","16402","[{""page_index"":0,""viewing_time"":4803},{""page_index"":1,""viewing_time"":24518},{""page_index"":2,""viewing_time"":5608},{""page_index"":3,""viewing_time"":1381}]","36311","","","","","","","","","","","","","","","","","","","",""
"","comprehension_check","","survey-multi-choice","2","63970","0.0-1.0-0.0-1.0","0","0","16402","","24439","{""Q0"":""True"",""Q1"":""D"",""Q2"":""Once the second image appears and while the screen 'MAKE A CHOICE' is shown"",""Q3"":""Green mark"",""Q4"":""either D or K""}","0","","","","","","","","","","","","","","","","","",""
"","start_exp","","html-keyboard-response","3","65676","0.0-1.0-1.0","0","0","16402","","1700","","","32","","","","","","","","","","","","","","","","",""
"","S1","","html-keyboard-response","4","65929","0.0-1.0-2.0","0","0","16402","","null","","","null","0","","","","","","","","","","","","","","","",""
"","ISI","","html-keyboard-response","5","66931","0.0-1.0-3.0","0","0","16402","","null","","","null","0","NaN","","","","","","","","","","","","","","",""
"","S2","","html-keyboard-response","6","67184","0.0-1.0-4.0","0","0","16402","","null","","","null","0","","NaN","","","","","","","","","","","","","",""
"","response","","html-keyboard-response","7","68667","0.0-1.0-5.0-0.0","0","0","16402","","1481","","","68","0","","","1","0","training","adjacent","DE","4","5","L.jpg","M.jpg","1","1","1","",""
"","feedback","","html-keyboard-response","8","69669","0.0-1.0-6.0-0.0","0","0","16402","","null","","","null","0","","","","","","","","","","","","","","","",""
"","ITI","","html-keyboard-response","9","70674","0.0-1.0-9.0","0","0","16402","","null","","","null","0","","","","","","","","","","","","","","","NaN",""
"","S1","","html-keyboard-response","10","70927","0.0-1.0-11.0","0","0","16402","","null","","","null","1","","","","","","","","","","","","","","","",""
"","ISI","","html-keyboard-response","11","71930","0.0-1.0-12.0","0","0","16402","","null","","","null","1","NaN","","","","","","","","","","","","","","",""
"","S2","","html-keyboard-response","12","72183","0.0-1.0-13.0","0","0","16402","","null","","","null","1","","NaN","","","","","","","","","","","","","",""
"","response","","html-keyboard-response","13","72990","0.0-1.0-14.0-0.0","0","0","16402","","805","","","75","1","","","1","1","training","adjacent","DE","4","5","L.jpg","M.jpg","0","1","0","",""
"","feedback","","html-keyboard-response","14","73993","0.0-1.0-15.0-0.0","0","0","16402","","null","","","null","1","","","","","","","","","","","","","","","",""
"","time_out","","html-keyboard-response","15","75995","0.0-1.0-17.0-0.0","0","0","16402","","null","","","null","1","","","","","","","","","","","","","","","",""
"","ITI","","html-keyboard-response","16","76997","0.0-1.0-18.0","0","0","16402","","null","","","null","1","","","","","","","","","","","","","","","NaN",""
"","S1","","html-keyboard-response","17","77249","0.0-1.0-20.0","0","0","16402","","null","","","null","2","","","","","","","","","","","","","","","",""
"","ISI","","html-keyboard-response","18","78252","0.0-1.0-21.0","0","0","16402","","null","","","null","2","NaN","","","","","","","","","","","","","","",""
"","S2","","html-keyboard-response","19","78505","0.0-1.0-22.0","0","0","16402","","null","","","null","2","","NaN","","","","","","","","","","","","","",""
"","response","","html-keyboard-response","20","79356","0.0-1.0-23.0-0.0","0","0","16402","","849","","","68","2","","","1","2","training","adjacent","CD","3","4","O.jpg","L.jpg","1","1","1","",""
"","feedback","","html-keyboard-response","21","80359","0.0-1.0-24.0-0.0","0","0","16402","","null","","","null","2","","","","","","","","","","","","","","","",""
"","ITI","","html-keyboard-response","22","81362","0.0-1.0-27.0","0","0","16402","","null","","","null","2","","","","","","","","","","","","","","","NaN",""
"","S1","","html-keyboard-response","23","81615","0.0-1.0-29.0","0","0","16402","","null","","","null","3","","","","","","","","","","","","","","","",""
"","ISI","","html-keyboard-response","24","82617","0.0-1.0-30.0","0","0","16402","","null","","","null","3","NaN","","","","","","","","","","","","","","",""
"","S2","","html-keyboard-response","25","82870","0.0-1.0-31.0","0","0","16402","","null","","","null","3","","NaN","","","","","","","","","","","","","",""
"","response","","html-keyboard-response","26","83704","0.0-1.0-32.0-0.0","0","0","16402","","833","","","75","3","","","1","3","training","adjacent","AB","1","2","N.jpg","R.jpg","0","1","0","",""
"","feedback","","html-keyboard-response","27","84707","0.0-1.0-33.0-0.0","0","0","16402","","null","","","null","3","","","","","","","","","","","","","","","",""
"","time_out","","html-keyboard-response","28","86710","0.0-1.0-35.0-0.0","0","0","16402","","null","","","null","3","","","","","","","","","","","","","","","",""
"","ITI","","html-keyboard-response","29","87713","0.0-1.0-36.0","0","0","16402","","null","","","null","3","","","","","","","","","","","","","","","NaN",""
"","S1","","html-keyboard-response","30","87965","0.0-1.0-38.0","0","0","16402","","null","","","null","4","","","","","","","","","","","","","","","",""
"","ISI","","html-keyboard-response","31","88967","0.0-1.0-39.0","0","0","16402","","null","","","null","4","NaN","","","","","","","","","","","","","","",""
"","S2","","html-keyboard-response","32","89220","0.0-1.0-40.0","0","0","16402","","null","","","null","4","","NaN","","","","","","","","","","","","","",""
"","response","","html-keyboard-response","33","90155","0.0-1.0-41.0-0.0","0","0","16402","","934","","","75","4","","","1","4","training","adjacent","FG","6","7","Q.jpg","P.jpg","0","1","0","",""
"","feedback","","html-keyboard-response","34","91160","0.0-1.0-42.0-0.0","0","0","16402","","null","","","null","4","","","","","","","","","","","","","","","",""
"","time_out","","html-keyboard-response","35","93164","0.0-1.0-44.0-0.0","0","0","16402","","null","","","null","4","","","","","","","","","","","","","","","",""
"","ITI","","html-keyboard-response","36","94166","0.0-1.0-45.0","0","0","16402","","null","","","null","4","","","","","","","","","","","","","","","NaN",""
"","S1","","html-keyboard-response","37","94419","0.0-1.0-47.0","0","0","16402","","null","","","null","5","","","","","","","","","","","","","","","",""
"","ISI","","html-keyboard-response","38","95421","0.0-1.0-48.0","0","0","16402","","null","","","null","5","NaN","","","","","","","","","","","","","","",""
"","S2","","html-keyboard-response","39","95673","0.0-1.0-49.0","0","0","16402","","null","","","null","5","","NaN","","","","","","","","","","","","","",""
"","response","","html-keyboard-response","40","96652","0.0-1.0-50.0-0.0","0","0","16402","","976","","","68","5","","","1","5","training","adjacent","BC","2","3","R.jpg","O.jpg","1","1","1","",""
"","feedback","","html-keyboard-response","41","97654","0.0-1.0-51.0-0.0","0","0","16402","","null","","","null","5","","","","","","","","","","","","","","","",""
"","ITI","","html-keyboard-response","42","98657","0.0-1.0-54.0","0","0","16402","","null","","","null","5","","","","","","","","","","","","","","","NaN",""
"","S1","","html-keyboard-response","43","98921","0.0-1.0-56.0","0","0","16402","","null","","","null","6","","","","","","","","","","","","","","","",""
"","ISI","","html-keyboard-response","44","99923","0.0-1.0-57.0","0","0","16402","","null","","","null","6","NaN","","","","","","","","","","","","","","",""
"","S2","","html-keyboard-response","45","100176","0.0-1.0-58.0","0","0","16402","","null","","","null","6","","NaN","","","","","","","","","","","","","",""
"","response","","html-keyboard-response","46","100745","0.0-1.0-59.0-0.0","0","0","16402","","568","","","68","6","","","1","6","training","adjacent","EF","5","6","M.jpg","Q.jpg","1","1","1","",""
"","feedback","","html-keyboard-response","47","101749","0.0-1.0-60.0-0.0","0","0","16402","","null","","","null","6","","","","","","","","","","","","","","","",""
"","ITI","","html-keyboard-response","48","102753","0.0-1.0-63.0","0","0","16402","","null","","","null","6","","","","","","","","","","","","","","","NaN",""
"","S1","","html-keyboard-response","49","103005","0.0-1.0-65.0","0","0","16402","","null","","","null","7","","","","","","","","","","","","","","","",""
"","ISI","","html-keyboard-response","50","104008","0.0-1.0-66.0","0","0","16402","","null","","","null","7","NaN","","","","","","","","","","","","","","",""
"","S2","","html-keyboard-response","51","104260","0.0-1.0-67.0","0","0","16402","","null","","","null","7","","NaN","","","","","","","","","","","","","",""
"","response","","html-keyboard-response","52","104564","0.0-1.0-68.0-0.0","0","0","16402","","301","","","68","7","","","1","7","training","adjacent","AB","1","2","N.jpg","R.jpg","1","1","1","",""
"","feedback","","html-keyboard-response","53","105569","0.0-1.0-69.0-0.0","0","0","16402","","null","","","null","7","","","","","","","","","","","","","","","",""
"","ITI","","html-keyboard-response","54","106571","0.0-1.0-72.0","0","0","16402","","null","","","null","7","","","","","","","","","","","","","","","NaN",""
"","S1","","html-keyboard-response","55","106823","0.0-1.0-74.0","0","0","16402","","null","","","null","8","","","","","","","","","","","","","","","",""
"","ISI","","html-keyboard-response","56","107825","0.0-1.0-75.0","0","0","16402","","null","","","null","8","NaN","","","","","","","","","","","","","","",""
"","S2","","html-keyboard-response","57","108077","0.0-1.0-76.0","0","0","16402","","null","","","null","8","","NaN","","","","","","","","","","","","","",""
"","response","","html-keyboard-response","58","108402","0.0-1.0-77.0-0.0","0","0","16402","","322","","","68","8","","","1","8","training","adjacent","FE","6","5","Q.jpg","M.jpg","1","0","0","",""
"","feedback","","html-keyboard-response","59","109406","0.0-1.0-78.0-0.0","0","0","16402","","null","","","null","8","","","","","","","","","","","","","","","",""
"","time_out","","html-keyboard-response","60","111408","0.0-1.0-80.0-0.0","0","0","16402","","null","","","null","8","","","","","","","","","","","","","","","",""
"","ITI","","html-keyboard-response","61","112411","0.0-1.0-81.0","0","0","16402","","null","","","null","8","","","","","","","","","","","","","","","NaN",""
"","S1","","html-keyboard-response","62","112664","0.0-1.0-83.0","0","0","16402","","null","","","null","9","","","","","","","","","","","","","","","",""
"","ISI","","html-keyboard-response","63","113668","0.0-1.0-84.0","0","0","16402","","null","","","null","9","NaN","","","","","","","","","","","","","","",""
"","S2","","html-keyboard-response","64","113921","0.0-1.0-85.0","0","0","16402","","null","","","null","9","","NaN","","","","","","","","","","","","","",""
"","response","","html-keyboard-response","65","114581","0.0-1.0-86.0-0.0","0","0","16402","","659","","","75","9","","","1","9","training","adjacent","ED","5","4","M.jpg","L.jpg","0","0","1","",""
"","feedback","","html-keyboard-response","66","115584","0.0-1.0-87.0-0.0","0","0","16402","","null","","","null","9","","","","","","","","","","","","","","","",""
"","ITI","","html-keyboard-response","67","116586","0.0-1.0-90.0","0","0","16402","","null","","","null","9","","","","","","","","","","","","","","","NaN",""
"","S1","","html-keyboard-response","68","116840","0.0-1.0-92.0","0","0","16402","","null","","","null","10","","","","","","","","","","","","","","","",""
"","ISI","","html-keyboard-response","69","117843","0.0-1.0-93.0","0","0","16402","","null","","","null","10","NaN","","","","","","","","","","","","","","",""
"","S2","","html-keyboard-response","70","118096","0.0-1.0-94.0","0","0","16402","","null","","","null","10","","NaN","","","","","","","","","","","","","",""
"","response","","html-keyboard-response","71","118157","0.0-1.0-95.0-0.0","0","0","16402","","59","","","75","10","","","1","10","training","adjacent","FE","6","5","Q.jpg","M.jpg","0","0","1","",""
"","feedback","","html-keyboard-response","72","119159","0.0-1.0-96.0-0.0","0","0","16402","","null","","","null","10","","","","","","","","","","","","","","","",""
"","ITI","","html-keyboard-response","73","120161","0.0-1.0-99.0","0","0","16402","","null","","","null","10","","","","","","","","","","","","","","","NaN",""
"","S1","","html-keyboard-response","74","120413","0.0-1.0-101.0","0","0","16402","","null","","","null","11","","","","","","","","","","","","","","","",""
"","ISI","","html-keyboard-response","75","121416","0.0-1.0-102.0","0","0","16402","","null","","","null","11","NaN","","","","","","","","","","","","","","",""
"","S2","","html-keyboard-response","76","121648","0.0-1.0-103.0","0","0","16402","","229","","","75","11","","k","1","11","training","adjacent","AB","1","2","N.jpg","R.jpg","0","1","0","",""
"","feedback","","html-keyboard-response","77","122651","0.0-1.0-105.0-0.0","0","0","16402","","null","","","null","11","","","","","","","","","","","","","","","",""
"","time_out","","html-keyboard-response","78","124654","0.0-1.0-107.0-0.0","0","0","16402","","null","","","null","11","","","","","","","","","","","","","","","",""
"","ITI","","html-keyboard-response","79","125656","0.0-1.0-108.0","0","0","16402","","null","","","null","11","","","","","","","","","","","","","","","NaN",""
"","S1","","html-keyboard-response","80","125909","0.0-1.0-110.0","0","0","16402","","null","","","null","12","","","","","","","","","","","","","","","",""
"","ISI","","html-keyboard-response","81","126911","0.0-1.0-111.0","0","0","16402","","null","","","null","12","NaN","","","","","","","","","","","","","","",""
"","S2","","html-keyboard-response","82","127163","0.0-1.0-112.0","0","0","16402","","null","","","null","12","","NaN","","","","","","","","","","","","","",""
"","response","","html-keyboard-response","83","127239","0.0-1.0-113.0-0.0","0","0","16402","","72","","","68","12","","","1","12","training","adjacent","AB","1","2","N.jpg","R.jpg","1","1","1","",""
"","feedback","","html-keyboard-response","84","128242","0.0-1.0-114.0-0.0","0","0","16402","","null","","","null","12","","","","","","","","","","","","","","","",""
"","ITI","","html-keyboard-response","85","129245","0.0-1.0-117.0","0","0","16402","","null","","","null","12","","","","","","","","","","","","","","","NaN",""
"","S1","","html-keyboard-response","86","129497","0.0-1.0-119.0","0","0","16402","","null","","","null","13","","","","","","","","","","","","","","","",""
"","ISI","","html-keyboard-response","87","130499","0.0-1.0-120.0","0","0","16402","","826","","","75","13","k","","","","","","","","","","","","","","",""
"","S2","","html-keyboard-response","88","130753","0.0-1.0-121.0","0","0","16402","","null","","","null","13","","NaN","","","","","","","","","","","","","",""
"","response","","html-keyboard-response","89","131069","0.0-1.0-122.0-0.0","0","0","16402","","314","","","75","13","","","1","13","training","adjacent","BA","2","1","R.jpg","N.jpg","0","0","1","",""
"","feedback","","html-keyboard-response","90","132073","0.0-1.0-123.0-0.0","0","0","16402","","null","","","null","13","","","","","","","","","","","","","","","",""
"","ITI","","html-keyboard-response","91","133077","0.0-1.0-126.0","0","0","16402","","null","","","null","13","","","","","","","","","","","","","","","NaN",""
"","S1","","html-keyboard-response","92","133330","0.0-1.0-128.0","0","0","16402","","null","","","null","14","","","","","","","","","","","","","","","",""
"","ISI","","html-keyboard-response","93","134333","0.0-1.0-129.0","0","0","16402","","null","","","null","14","NaN","","","","","","","","","","","","","","",""
"","S2","","html-keyboard-response","94","134585","0.0-1.0-130.0","0","0","16402","","null","","","null","14","","NaN","","","","","","","","","","","","","",""
"","response","","html-keyboard-response","95","135183","0.0-1.0-131.0-0.0","0","0","16402","","595","","","75","14","","","1","14","training","adjacent","EF","5","6","M.jpg","Q.jpg","0","1","0","",""
"","feedback","","html-keyboard-response","96","136185","0.0-1.0-132.0-0.0","0","0","16402","","null","","","null","14","","","","","","","","","","","","","","","",""
"","time_out","","html-keyboard-response","97","138188","0.0-1.0-134.0-0.0","0","0","16402","","null","","","null","14","","","","","","","","","","","","","","","",""
"","ITI","","html-keyboard-response","98","139191","0.0-1.0-135.0","0","0","16402","","null","","","null","14","","","","","","","","","","","","","","","NaN",""
"","S1","","html-keyboard-response","99","139445","0.0-1.0-137.0","0","0","16402","","null","","","null","15","","","","","","","","","","","","","","","",""
"","ISI","","html-keyboard-response","100","140447","0.0-1.0-138.0","0","0","16402","","null","","","null","15","NaN","","","","","","","","","","","","","","",""
"","S2","","html-keyboard-response","101","140700","0.0-1.0-139.0","0","0","16402","","null","","","null","15","","NaN","","","","","","","","","","","","","",""
"","response","","html-keyboard-response","102","141365","0.0-1.0-140.0-0.0","0","0","16402","","664","","","68","15","","","1","15","training","adjacent","BC","2","3","R.jpg","O.jpg","1","1","1","",""
"","feedback","","html-keyboard-response","103","142367","0.0-1.0-141.0-0.0","0","0","16402","","null","","","null","15","","","","","","","","","","","","","","","",""
"","ITI","","html-keyboard-response","104","143371","0.0-1.0-144.0","0","0","16402","","null","","","null","15","","","","","","","","","","","","","","","NaN",""
"","S1","","html-keyboard-response","105","143623","0.0-1.0-146.0","0","0","16402","","null","","","null","16","","","","","","","","","","","","","","","",""
"","ISI","","html-keyboard-response","106","144625","0.0-1.0-147.0","0","0","16402","","null","","","null","16","NaN","","","","","","","","","","","","","","",""
"","S2","","html-keyboard-response","107","144879","0.0-1.0-148.0","0","0","16402","","null","","","null","16","","NaN","","","","","","","","","","","","","",""
"","response","","html-keyboard-response","108","145604","0.0-1.0-149.0-0.0","0","0","16402","","724","","","68","16","","","1","16","training","adjacent","CB","3","2","O.jpg","R.jpg","1","0","0","",""
"","feedback","","html-keyboard-response","109","146609","0.0-1.0-150.0-0.0","0","0","16402","","null","","","null","16","","","","","","","","","","","","","","","",""
"","time_out","","html-keyboard-response","110","148612","0.0-1.0-152.0-0.0","0","0","16402","","null","","","null","16","","","","","","","","","","","","","","","",""
"","ITI","","html-keyboard-response","111","149615","0.0-1.0-153.0","0","0","16402","","null","","","null","16","","","","","","","","","","","","","","","NaN",""
"","S1","","html-keyboard-response","112","149867","0.0-1.0-155.0","0","0","16402","","null","","","null","17","","","","","","","","","","","","","","","",""
"","ISI","","html-keyboard-response","113","150869","0.0-1.0-156.0","0","0","16402","","null","","","null","17","NaN","","","","","","","","","","","","","","",""
"","S2","","html-keyboard-response","114","151122","0.0-1.0-157.0","0","0","16402","","null","","","null","17","","NaN","","","","","","","","","","","","","",""
"","response","","html-keyboard-response","115","151867","0.0-1.0-158.0-0.0","0","0","16402","","744","","","75","17","","","1","17","training","adjacent","CB","3","2","O.jpg","R.jpg","0","0","1","",""
"","feedback","","html-keyboard-response","116","152870","0.0-1.0-159.0-0.0","0","0","16402","","null","","","null","17","","","","","","","","","","","","","","","",""
"","ITI","","html-keyboard-response","117","153873","0.0-1.0-162.0","0","0","16402","","null","","","null","17","","","","","","","","","","","","","","","NaN",""
"","S1","","html-keyboard-response","118","154125","0.0-1.0-164.0","0","0","16402","","null","","","null","18","","","","","","","","","","","","","","","",""
"","ISI","","html-keyboard-response","119","155127","0.0-1.0-165.0","0","0","16402","","null","","","null","18","NaN","","","","","","","","","","","","","","",""
"","S2","","html-keyboard-response","120","155380","0.0-1.0-166.0","0","0","16402","","null","","","null","18","","NaN","","","","","","","","","","","","","",""
"","response","","html-keyboard-response","121","155483","0.0-1.0-167.0-0.0","0","0","16402","","101","","","75","18","","","1","18","training","adjacent","GF","7","6","P.jpg","Q.jpg","0","0","1","",""
"","feedback","","html-keyboard-response","122","156486","0.0-1.0-168.0-0.0","0","0","16402","","null","","","null","18","","","","","","","","","","","","","","","",""
"","ITI","","html-keyboard-response","123","157488","0.0-1.0-171.0","0","0","16402","","null","","","null","18","","","","","","","","","","","","","","","NaN",""
"","S1","","html-keyboard-response","124","157741","0.0-1.0-173.0","0","0","16402","","null","","","null","19","","","","","","","","","","","","","","","",""
"","ISI","","html-keyboard-response","125","158744","0.0-1.0-174.0","0","0","16402","","null","","","null","19","NaN","","","","","","","","","","","","","","",""
"","S2","","html-keyboard-response","126","158998","0.0-1.0-175.0","0","0","16402","","null","","","null","19","","NaN","","","","","","","","","","","","","",""
"","response","","html-keyboard-response","127","159527","0.0-1.0-176.0-0.0","0","0","16402","","526","","","75","19","","","1","19","training","adjacent","CB","3","2","O.jpg","R.jpg","0","0","1","",""
"","feedback","","html-keyboard-response","128","160530","0.0-1.0-177.0-0.0","0","0","16402","","null","","","null","19","","","","","","","","","","","","","","","",""
"","ITI","","html-keyboard-response","129","161534","0.0-1.0-180.0","0","0","16402","","null","","","null","19","","","","","","","","","","","","","","","NaN",""
"","S1","","html-keyboard-response","130","161787","0.0-1.0-182.0","0","0","16402","","null","","","null","20","","","","","","","","","","","","","","","",""
"","ISI","","html-keyboard-response","131","162789","0.0-1.0-183.0","0","0","16402","","null","","","null","20","NaN","","","","","","","","","","","","","","",""
"","S2","","html-keyboard-response","132","163043","0.0-1.0-184.0","0","0","16402","","null","","","null","20","","NaN","","","","","","","","","","","","","",""
"","response","","html-keyboard-response","133","163198","0.0-1.0-185.0-0.0","0","0","16402","","154","","","68","20","","","1","20","training","adjacent","GF","7","6","P.jpg","Q.jpg","1","0","0","",""
"","feedback","","html-keyboard-response","134","164202","0.0-1.0-186.0-0.0","0","0","16402","","null","","","null","20","","","","","","","","","","","","","","","",""
"","time_out","","html-keyboard-response","135","166204","0.0-1.0-188.0-0.0","0","0","16402","","null","","","null","20","","","","","","","","","","","","","","","",""
"","ITI","","html-keyboard-response","136","167207","0.0-1.0-189.0","0","0","16402","","null","","","null","20","","","","","","","","","","","","","","","NaN",""
"","S1","","html-keyboard-response","137","167460","0.0-1.0-191.0","0","0","16402","","null","","","null","21","","","","","","","","","","","","","","","",""
"","ISI","","html-keyboard-response","138","168463","0.0-1.0-192.0","0","0","16402","","null","","","null","21","NaN","","","","","","","","","","","","","","",""
"","S2","","html-keyboard-response","139","168715","0.0-1.0-193.0","0","0","16402","","null","","","null","21","","NaN","","","","","","","","","","","","","",""
"","response","","html-keyboard-response","140","168737","0.0-1.0-194.0-0.0","0","0","16402","","20","","","75","21","","","1","21","training","adjacent","DC","4","3","L.jpg","O.jpg","0","0","1","",""
"","feedback","","html-keyboard-response","141","169739","0.0-1.0-195.0-0.0","0","0","16402","","null","","","null","21","","","","","","","","","","","","","","","",""
"","ITI","","html-keyboard-response","142","170742","0.0-1.0-198.0","0","0","16402","","null","","","null","21","","","","","","","","","","","","","","","NaN",""
"","S1","","html-keyboard-response","143","170995","0.0-1.0-200.0","0","0","16402","","null","","","null","22","","","","","","","","","","","","","","","",""
"","ISI","","html-keyboard-response","144","171999","0.0-1.0-201.0","0","0","16402","","null","","","null","22","NaN","","","","","","","","","","","","","","",""
"","S2","","html-keyboard-response","145","172253","0.0-1.0-202.0","0","0","16402","","null","","","null","22","","NaN","","","","","","","","","","","","","",""
"","response","","html-keyboard-response","146","172649","0.0-1.0-203.0-0.0","0","0","16402","","395","","","68","22","","","1","22","training","adjacent","DC","4","3","L.jpg","O.jpg","1","0","0","",""
"","feedback","","html-keyboard-response","147","173652","0.0-1.0-204.0-0.0","0","0","16402","","null","","","null","22","","","","","","","","","","","","","","","",""
"","time_out","","html-keyboard-response","148","175654","0.0-1.0-206.0-0.0","0","0","16402","","null","","","null","22","","","","","","","","","","","","","","","",""
"","ITI","","html-keyboard-response","149","176657","0.0-1.0-207.0","0","0","16402","","null","","","null","22","","","","","","","","","","","","","","","NaN",""
"","S1","","html-keyboard-response","150","176909","0.0-1.0-209.0","0","0","16402","","null","","","null","23","","","","","","","","","","","","","","","",""
"","ISI","","html-keyboard-response","151","177918","0.0-1.0-210.0","0","0","16402","","null","","","null","23","NaN","","","","","","","","","","","","","","",""
"","S2","","html-keyboard-response","152","178171","0.0-1.0-211.0","0","0","16402","","null","","","null","23","","NaN","","","","","","","","","","","","","",""
"","response","","html-keyboard-response","153","178453","0.0-1.0-212.0-0.0","0","0","16402","","279","","","75","23","","","1","23","training","adjacent","FG","6","7","Q.jpg","P.jpg","0","1","0","",""
"","feedback","","html-keyboard-response","154","179455","0.0-1.0-213.0-0.0","0","0","16402","","null","","","null","23","","","","","","","","","","","","","","","",""
"","time_out","","html-keyboard-response","155","181458","0.0-1.0-215.0-0.0","0","0","16402","","null","","","null","23","","","","","","","","","","","","","","","",""
"","ITI","","html-keyboard-response","156","182460","0.0-1.0-216.0","0","0","16402","","null","","","null","23","","","","","","","","","","","","","","","NaN",""
"","S1","","html-keyboard-response","157","182714","0.0-1.0-218.0","0","0","16402","","null","","","null","24","","","","","","","","","","","","","","","",""
"","ISI","","html-keyboard-response","158","183717","0.0-1.0-219.0","0","0","16402","","null","","","null","24","NaN","","","","","","","","","","","","","","",""
"","S2","","html-keyboard-response","159","183970","0.0-1.0-220.0","0","0","16402","","null","","","null","24","","NaN","","","","","","","","","","","","","",""
"","response","","html-keyboard-response","160","184469","0.0-1.0-221.0-0.0","0","0","16402","","495","","","75","24","","","1","24","training","adjacent","BA","2","1","R.jpg","N.jpg","0","0","1","",""
"","feedback","","html-keyboard-response","161","185472","0.0-1.0-222.0-0.0","0","0","16402","","null","","","null","24","","","","","","","","","","","","","","","",""
"","ITI","","html-keyboard-response","162","186474","0.0-1.0-225.0","0","0","16402","","null","","","null","24","","","","","","","","","","","","","","","NaN",""
"","S1","","html-keyboard-response","163","186727","0.0-1.0-227.0","0","0","16402","","null","","","null","25","","","","","","","","","","","","","","","",""
"","ISI","","html-keyboard-response","164","187728","0.0-1.0-228.0","0","0","16402","","null","","","null","25","NaN","","","","","","","","","","","","","","",""
"","S2","","html-keyboard-response","165","187981","0.0-1.0-229.0","0","0","16402","","null","","","null","25","","NaN","","","","","","","","","","","","","",""
"","response","","html-keyboard-response","166","188136","0.0-1.0-230.0-0.0","0","0","16402","","152","","","68","25","","","1","25","training","adjacent","FG","6","7","Q.jpg","P.jpg","1","1","1","",""
"","feedback","","html-keyboard-response","167","189140","0.0-1.0-231.0-0.0","0","0","16402","","null","","","null","25","","","","","","","","","","","","","","","",""
"","ITI","","html-keyboard-response","168","190142","0.0-1.0-234.0","0","0","16402","","null","","","null","25","","","","","","","","","","","","","","","NaN",""
"","S1","","html-keyboard-response","169","190395","0.0-1.0-236.0","0","0","16402","","null","","","null","26","","","","","","","","","","","","","","","",""
"","ISI","","html-keyboard-response","170","191397","0.0-1.0-237.0","0","0","16402","","null","","","null","26","NaN","","","","","","","","","","","","","","",""
"","S2","","html-keyboard-response","171","191650","0.0-1.0-238.0","0","0","16402","","null","","","null","26","","NaN","","","","","","","","","","","","","",""
"","response","","html-keyboard-response","172","191902","0.0-1.0-239.0-0.0","0","0","16402","","249","","","75","26","","","1","26","training","adjacent","FE","6","5","Q.jpg","M.jpg","0","0","1","",""
"","feedback","","html-keyboard-response","173","192906","0.0-1.0-240.0-0.0","0","0","16402","","null","","","null","26","","","","","","","","","","","","","","","",""
"","ITI","","html-keyboard-response","174","193908","0.0-1.0-243.0","0","0","16402","","null","","","null","26","","","","","","","","","","","","","","","NaN",""
"","S1","","html-keyboard-response","175","194162","0.0-1.0-245.0","0","0","16402","","null","","","null","27","","","","","","","","","","","","","","","",""
"","ISI","","html-keyboard-response","176","195164","0.0-1.0-246.0","0","0","16402","","null","","","null","27","NaN","","","","","","","","","","","","","","",""
"","S2","","html-keyboard-response","177","195417","0.0-1.0-247.0","0","0","16402","","null","","","null","27","","NaN","","","","","","","","","","","","","",""
"","response","","html-keyboard-response","178","196025","0.0-1.0-248.0-0.0","0","0","16402","","607","","","68","27","","","1","27","training","adjacent","DC","4","3","L.jpg","O.jpg","1","0","0","",""
"","feedback","","html-keyboard-response","179","197027","0.0-1.0-249.0-0.0","0","0","16402","","null","","","null","27","","","","","","","","","","","","","","","",""
"","time_out","","html-keyboard-response","180","199030","0.0-1.0-251.0-0.0","0","0","16402","","null","","","null","27","","","","","","","","","","","","","","","",""
"","ITI","","html-keyboard-response","181","200031","0.0-1.0-252.0","0","0","16402","","null","","","null","27","","","","","","","","","","","","","","","NaN",""
"","S1","","html-keyboard-response","182","200284","0.0-1.0-254.0","0","0","16402","","null","","","null","28","","","","","","","","","","","","","","","",""
"","ISI","","html-keyboard-response","183","201286","0.0-1.0-255.0","0","0","16402","","null","","","null","28","NaN","","","","","","","","","","","","","","",""
"","S2","","html-keyboard-response","184","201540","0.0-1.0-256.0","0","0","16402","","null","","","null","28","","NaN","","","","","","","","","","","","","",""
"","response","","html-keyboard-response","185","201653","0.0-1.0-257.0-0.0","0","0","16402","","111","","","68","28","","","1","28","training","adjacent","FE","6","5","Q.jpg","M.jpg","1","0","0","",""
"","feedback","","html-keyboard-response","186","202656","0.0-1.0-258.0-0.0","0","0","16402","","null","","","null","28","","","","","","","","","","","","","","","",""
"","time_out","","html-keyboard-response","187","204658","0.0-1.0-260.0-0.0","0","0","16402","","null","","","null","28","","","","","","","","","","","","","","","",""
"","ITI","","html-keyboard-response","188","205661","0.0-1.0-261.0","0","0","16402","","null","","","null","28","","","","","","","","","","","","","","","NaN",""
"","S1","","html-keyboard-response","189","205913","0.0-1.0-263.0","0","0","16402","","null","","","null","29","","","","","","","","","","","","","","","",""
"","ISI","","html-keyboard-response","190","206915","0.0-1.0-264.0","0","0","16402","","null","","","null","29","NaN","","","","","","","","","","","","","","",""
"","S2","","html-keyboard-response","191","207168","0.0-1.0-265.0","0","0","16402","","null","","","null","29","","NaN","","","","","","","","","","","","","",""
"","response","","html-keyboard-response","192","207418","0.0-1.0-266.0-0.0","0","0","16402","","249","","","75","29","","","1","29","training","adjacent","GF","7","6","P.jpg","Q.jpg","0","0","1","",""
"","feedback","","html-keyboard-response","193","208421","0.0-1.0-267.0-0.0","0","0","16402","","null","","","null","29","","","","","","","","","","","","","","","",""
"","ITI","","html-keyboard-response","194","209424","0.0-1.0-270.0","0","0","16402","","null","","","null","29","","","","","","","","","","","","","","","NaN",""
"","S1","","html-keyboard-response","195","209677","0.0-1.0-272.0","0","0","16402","","null","","","null","30","","","","","","","","","","","","","","","",""
"","ISI","","html-keyboard-response","196","210680","0.0-1.0-273.0","0","0","16402","","null","","","null","30","NaN","","","","","","","","","","","","","","",""
"","S2","","html-keyboard-response","197","210932","0.0-1.0-274.0","0","0","16402","","null","","","null","30","","NaN","","","","","","","","","","","","","",""
"","response","","html-keyboard-response","198","212685","0.0-1.0-275.0-0.0","0","0","16402","","null","","","null","30","","","1","30","training","adjacent","DC","4","3","L.jpg","O.jpg","NaN","0","0","",""
"","too_slow_prompt","","html-keyboard-response","199","213688","0.0-1.0-277.0-0.0","1","0","16402","","null","","","null","","","","","","","","","","","","","","","","",""
"","time_out","","html-keyboard-response","200","215690","0.0-1.0-278.0-0.0","0","0","16402","","null","","","null","30","","","","","","","","","","","","","","","",""
"","ITI","","html-keyboard-response","201","216693","0.0-1.0-279.0","0","0","16402","","null","","","null","30","","","","","","","","","","","","","","","NaN",""
"","S1","","html-keyboard-response","202","216946","0.0-1.0-281.0","0","0","16402","","null","","","null","31","","","","","","","","","","","","","","","",""
"","ISI","","html-keyboard-response","203","217948","0.0-1.0-282.0","0","0","16402","","null","","","null","31","NaN","","","","","","","","","","","","","","",""
"","S2","","html-keyboard-response","204","218201","0.0-1.0-283.0","0","0","16402","","null","","","null","31","","NaN","","","","","","","","","","","","","",""
"","response","","html-keyboard-response","205","218580","0.0-1.0-284.0-0.0","0","0","16402","","376","","","68","31","","","1","31","training","adjacent","CD","3","4","O.jpg","L.jpg","1","1","1","",""
"","feedback","","html-keyboard-response","206","219583","0.0-1.0-285.0-0.0","0","0","16402","","null","","","null","31","","","","","","","","","","","","","","","",""
"","ITI","","html-keyboard-response","207","220586","0.0-1.0-288.0","0","0","16402","","null","","","null","31","","","","","","","","","","","","","","","NaN",""
"","S1","","html-keyboard-response","208","220838","0.0-1.0-290.0","0","0","16402","","null","","","null","32","","","","","","","","","","","","","","","",""
"","ISI","","html-keyboard-response","209","221842","0.0-1.0-291.0","0","0","16402","","null","","","null","32","NaN","","","","","","","","","","","","","","",""
"","S2","","html-keyboard-response","210","222095","0.0-1.0-292.0","0","0","16402","","null","","","null","32","","NaN","","","","","","","","","","","","","",""
"","response","","html-keyboard-response","211","222113","0.0-1.0-293.0-0.0","0","0","16402","","16","","","75","32","","","1","32","training","adjacent","ED","5","4","M.jpg","L.jpg","0","0","1","",""
"","feedback","","html-keyboard-response","212","223116","0.0-1.0-294.0-0.0","0","0","16402","","null","","","null","32","","","","","","","","","","","","","","","",""
"","ITI","","html-keyboard-response","213","224118","0.0-1.0-297.0","0","0","16402","","null","","","null","32","","","","","","","","","","","","","","","NaN",""
"","S1","","html-keyboard-response","214","224372","0.0-1.0-299.0","0","0","16402","","null","","","null","33","","","","","","","","","","","","","","","",""
"","ISI","","html-keyboard-response","215","225375","0.0-1.0-300.0","0","0","16402","","null","","","null","33","NaN","","","","","","","","","","","","","","",""
"","S2","","html-keyboard-response","216","225629","0.0-1.0-301.0","0","0","16402","","null","","","null","33","","NaN","","","","","","","","","","","","","",""
"","response","","html-keyboard-response","217","226021","0.0-1.0-302.0-0.0","0","0","16402","","390","","","75","33","","","1","33","training","adjacent","BA","2","1","R.jpg","N.jpg","0","0","1","",""
"","feedback","","html-keyboard-response","218","227024","0.0-1.0-303.0-0.0","0","0","16402","","null","","","null","33","","","","","","","","","","","","","","","",""
"","ITI","","html-keyboard-response","219","228027","0.0-1.0-306.0","0","0","16402","","null","","","null","33","","","","","","","","","","","","","","","NaN",""
"","S1","","html-keyboard-response","220","228280","0.0-1.0-308.0","0","0","16402","","null","","","null","34","","","","","","","","","","","","","","","",""
"","ISI","","html-keyboard-response","221","229283","0.0-1.0-309.0","0","0","16402","","null","","","null","34","NaN","","","","","","","","","","","","","","",""
"","S2","","html-keyboard-response","222","229535","0.0-1.0-310.0","0","0","16402","","null","","","null","34","","NaN","","","","","","","","","","","","","",""
"","response","","html-keyboard-response","223","229790","0.0-1.0-311.0-0.0","0","0","16402","","253","","","68","34","","","1","34","training","adjacent","BA","2","1","R.jpg","N.jpg","1","0","0","",""
"","feedback","","html-keyboard-response","224","230794","0.0-1.0-312.0-0.0","0","0","16402","","null","","","null","34","","","","","","","","","","","","","","","",""
"","time_out","","html-keyboard-response","225","232798","0.0-1.0-314.0-0.0","0","0","16402","","null","","","null","34","","","","","","","","","","","","","","","",""
"","ITI","","html-keyboard-response","226","233801","0.0-1.0-315.0","0","0","16402","","null","","","null","34","","","","","","","","","","","","","","","NaN",""
"","S1","","html-keyboard-response","227","234054","0.0-1.0-317.0","0","0","16402","","null","","","null","35","","","","","","","","","","","","","","","",""
"","ISI","","html-keyboard-response","228","235056","0.0-1.0-318.0","0","0","16402","","null","","","null","35","NaN","","","","","","","","","","","","","","",""
"","S2","","html-keyboard-response","229","235308","0.0-1.0-319.0","0","0","16402","","null","","","null","35","","NaN","","","","","","","","","","","","","",""
"","response","","html-keyboard-response","230","235329","0.0-1.0-320.0-0.0","0","0","16402","","19","","","68","35","","","1","35","training","adjacent","BC","2","3","R.jpg","O.jpg","1","1","1","",""
"","feedback","","html-keyboard-response","231","236333","0.0-1.0-321.0-0.0","0","0","16402","","null","","","null","35","","","","","","","","","","","","","","","",""
"","ITI","","html-keyboard-response","232","237336","0.0-1.0-324.0","0","0","16402","","null","","","null","35","","","","","","","","","","","","","","","NaN",""
"","S1","","html-keyboard-response","233","237588","0.0-1.0-326.0","0","0","16402","","null","","","null","36","","","","","","","","","","","","","","","",""
"","ISI","","html-keyboard-response","234","238590","0.0-1.0-327.0","0","0","16402","","null","","","null","36","NaN","","","","","","","","","","","","","","",""
"","S2","","html-keyboard-response","235","238844","0.0-1.0-328.0","0","0","16402","","null","","","null","36","","NaN","","","","","","","","","","","","","",""
"","response","","html-keyboard-response","236","240598","0.0-1.0-329.0-0.0","0","0","16402","","null","","","null","36","","","1","36","training","adjacent","CD","3","4","O.jpg","L.jpg","NaN","1","0","",""
"","too_slow_prompt","","html-keyboard-response","237","241601","0.0-1.0-331.0-0.0","1","0","16402","","null","","","null","","","","","","","","","","","","","","","","",""
"","time_out","","html-keyboard-response","238","243603","0.0-1.0-332.0-0.0","0","0","16402","","null","","","null","36","","","","","","","","","","","","","","","",""
"","ITI","","html-keyboard-response","239","244605","0.0-1.0-333.0","0","0","16402","","null","","","null","36","","","","","","","","","","","","","","","NaN",""
"","S1","","html-keyboard-response","240","244857","0.0-1.0-335.0","0","0","16402","","null","","","null","37","","","","","","","","","","","","","","","",""
"","ISI","","html-keyboard-response","241","245859","0.0-1.0-336.0","0","0","16402","","703","","","75","37","k","","","","","","","","","","","","","","",""
"","S2","","html-keyboard-response","242","245980","0.0-1.0-337.0","0","0","16402","","119","","","75","37","","k","1","37","training","adjacent","GF","7","6","P.jpg","Q.jpg","0","0","1","",""
"","feedback","","html-keyboard-response","243","246983","0.0-1.0-339.0-0.0","0","0","16402","","null","","","null","37","","","","","","","","","","","","","","","",""
"","ITI","","html-keyboard-response","244","247985","0.0-1.0-342.0","0","0","16402","","null","","","null","37","","","","","","","","","","","","","","","NaN",""
"","S1","","html-keyboard-response","245","248238","0.0-1.0-344.0","0","0","16402","","null","","","null","38","","","","","","","","","","","","","","","",""
"","ISI","","html-keyboard-response","246","249240","0.0-1.0-345.0","0","0","16402","","null","","","null","38","NaN","","","","","","","","","","","","","","",""
"","S2","","html-keyboard-response","247","249494","0.0-1.0-346.0","0","0","16402","","null","","","null","38","","NaN","","","","","","","","","","","","","",""
"","response","","html-keyboard-response","248","250002","0.0-1.0-347.0-0.0","0","0","16402","","506","","","68","38","","","1","38","training","adjacent","ED","5","4","M.jpg","L.jpg","1","0","0","",""
"","feedback","","html-keyboard-response","249","251005","0.0-1.0-348.0-0.0","0","0","16402","","null","","","null","38","","","","","","","","","","","","","","","",""
"","time_out","","html-keyboard-response","250","253008","0.0-1.0-350.0-0.0","0","0","16402","","null","","","null","38","","","","","","","","","","","","","","","",""
"","ITI","","html-keyboard-response","251","254011","0.0-1.0-351.0","0","0","16402","","null","","","null","38","","","","","","","","","","","","","","","NaN",""
"","S1","","html-keyboard-response","252","254264","0.0-1.0-353.0","0","0","16402","","null","","","null","39","","","","","","","","","","","","","","","",""
"","ISI","","html-keyboard-response","253","255269","0.0-1.0-354.0","0","0","16402","","null","","","null","39","NaN","","","","","","","","","","","","","","",""
"","S2","","html-keyboard-response","254","255522","0.0-1.0-355.0","0","0","16402","","null","","","null","39","","NaN","","","","","","","","","","","","","",""
"","response","","html-keyboard-response","255","257120","0.0-1.0-356.0-0.0","0","0","16402","","1595","","","75","39","","","1","39","training","adjacent","DE","4","5","L.jpg","M.jpg","0","1","0","",""
"","feedback","","html-keyboard-response","256","258122","0.0-1.0-357.0-0.0","0","0","16402","","null","","","null","39","","","","","","","","","","","","","","","",""
"","time_out","","html-keyboard-response","257","260125","0.0-1.0-359.0-0.0","0","0","16402","","null","","","null","39","","","","","","","","","","","","","","","",""
"","ITI","","html-keyboard-response","258","261127","0.0-1.0-360.0","0","0","16402","","null","","","null","39","","","","","","","","","","","","","","","NaN",""
"","S1","","html-keyboard-response","259","261379","0.0-1.0-362.0","0","0","16402","","null","","","null","40","","","","","","","","","","","","","","","",""
"","ISI","","html-keyboard-response","260","262382","0.0-1.0-363.0","0","0","16402","","null","","","null","40","NaN","","","","","","","","","","","","","","",""
"","S2","","html-keyboard-response","261","262637","0.0-1.0-364.0","0","0","16402","","null","","","null","40","","NaN","","","","","","","","","","","","","",""
"","response","","html-keyboard-response","262","262772","0.0-1.0-365.0-0.0","0","0","16402","","131","","","68","40","","","1","40","training","adjacent","CB","3","2","O.jpg","R.jpg","1","0","0","",""
"","feedback","","html-keyboard-response","263","263775","0.0-1.0-366.0-0.0","0","0","16402","","null","","","null","40","","","","","","","","","","","","","","","",""
"","time_out","","html-keyboard-response","264","265778","0.0-1.0-368.0-0.0","0","0","16402","","null","","","null","40","","","","","","","","","","","","","","","",""
"","ITI","","html-keyboard-response","265","266781","0.0-1.0-369.0","0","0","16402","","null","","","null","40","","","","","","","","","","","","","","","NaN",""
"","S1","","html-keyboard-response","266","267033","0.0-1.0-371.0","0","0","16402","","null","","","null","41","","","","","","","","","","","","","","","",""
"","ISI","","html-keyboard-response","267","268036","0.0-1.0-372.0","0","0","16402","","null","","","null","41","NaN","","","","","","","","","","","","","","",""
"","S2","","html-keyboard-response","268","268260","0.0-1.0-373.0","0","0","16402","","221","","","75","41","","k","1","41","training","adjacent","EF","5","6","M.jpg","Q.jpg","0","1","0","",""
"","feedback","","html-keyboard-response","269","269262","0.0-1.0-375.0-0.0","0","0","16402","","null","","","null","41","","","","","","","","","","","","","","","",""
"","time_out","","html-keyboard-response","270","271264","0.0-1.0-377.0-0.0","0","0","16402","","null","","","null","41","","","","","","","","","","","","","","","",""
"","ITI","","html-keyboard-response","271","272265","0.0-1.0-378.0","0","0","16402","","null","","","null","41","","","","","","","","","","","","","","","NaN",""
"","S1","","html-keyboard-response","272","272518","0.0-1.0-380.0","0","0","16402","","null","","","null","42","","","","","","","","","","","","","","","",""
"","ISI","","html-keyboard-response","273","273520","0.0-1.0-381.0","0","0","16402","","88","","","75","42","k","","","","","","","","","","","","","","",""
"","S2","","html-keyboard-response","274","273655","0.0-1.0-382.0","0","0","16402","","133","","","75","42","","k","1","42","training","adjacent","EF","5","6","M.jpg","Q.jpg","0","1","0","",""
"","feedback","","html-keyboard-response","275","274657","0.0-1.0-384.0-0.0","0","0","16402","","null","","","null","42","","","","","","","","","","","","","","","",""
"","time_out","","html-keyboard-response","276","276660","0.0-1.0-386.0-0.0","0","0","16402","","null","","","null","42","","","","","","","","","","","","","","","",""
"","ITI","","html-keyboard-response","277","277663","0.0-1.0-387.0","0","0","16402","","null","","","null","42","","","","","","","","","","","","","","","NaN",""
"","S1","","html-keyboard-response","278","277915","0.0-1.0-389.0","0","0","16402","","null","","","null","43","","","","","","","","","","","","","","","",""
"","ISI","","html-keyboard-response","279","278917","0.0-1.0-390.0","0","0","16402","","null","","","null","43","NaN","","","","","","","","","","","","","","",""
"","S2","","html-keyboard-response","280","279171","0.0-1.0-391.0","0","0","16402","","null","","","null","43","","NaN","","","","","","","","","","","","","",""
"","response","","html-keyboard-response","281","279563","0.0-1.0-392.0-0.0","0","0","16402","","389","","","68","43","","","1","43","training","adjacent","DE","4","5","L.jpg","M.jpg","1","1","1","",""
"","feedback","","html-keyboard-response","282","280565","0.0-1.0-393.0-0.0","0","0","16402","","null","","","null","43","","","","","","","","","","","","","","","",""
"","ITI","","html-keyboard-response","283","281567","0.0-1.0-396.0","0","0","16402","","null","","","null","43","","","","","","","","","","","","","","","NaN",""
"","S1","","html-keyboard-response","284","281820","0.0-1.0-398.0","0","0","16402","","null","","","null","44","","","","","","","","","","","","","","","",""
"","ISI","","html-keyboard-response","285","282823","0.0-1.0-399.0","0","0","16402","","null","","","null","44","NaN","","","","","","","","","","","","","","",""
"","S2","","html-keyboard-response","286","283077","0.0-1.0-400.0","0","0","16402","","null","","","null","44","","NaN","","","","","","","","","","","","","",""
"","response","","html-keyboard-response","287","283627","0.0-1.0-401.0-0.0","0","0","16402","","549","","","75","44","","","1","44","training","adjacent","ED","5","4","M.jpg","L.jpg","0","0","1","",""
"","feedback","","html-keyboard-response","288","284629","0.0-1.0-402.0-0.0","0","0","16402","","null","","","null","44","","","","","","","","","","","","","","","",""
"","ITI","","html-keyboard-response","289","285632","0.0-1.0-405.0","0","0","16402","","null","","","null","44","","","","","","","","","","","","","","","NaN",""
"","S1","","html-keyboard-response","290","285885","0.0-1.0-407.0","0","0","16402","","null","","","null","45","","","","","","","","","","","","","","","",""
"","ISI","","html-keyboard-response","291","286887","0.0-1.0-408.0","0","0","16402","","null","","","null","45","NaN","","","","","","","","","","","","","","",""
"","S2","","html-keyboard-response","292","287142","0.0-1.0-409.0","0","0","16402","","null","","","null","45","","NaN","","","","","","","","","","","","","",""
"","response","","html-keyboard-response","293","287854","0.0-1.0-410.0-0.0","0","0","16402","","709","","","68","45","","","1","45","training","adjacent","BC","2","3","R.jpg","O.jpg","1","1","1","",""
"","feedback","","html-keyboard-response","294","288856","0.0-1.0-411.0-0.0","0","0","16402","","null","","","null","45","","","","","","","","","","","","","","","",""
"","ITI","","html-keyboard-response","295","289859","0.0-1.0-414.0","0","0","16402","","null","","","null","45","","","","","","","","","","","","","","","NaN",""
"","S1","","html-keyboard-response","296","290112","0.0-1.0-416.0","0","0","16402","","null","","","null","46","","","","","","","","","","","","","","","",""
"","ISI","","html-keyboard-response","297","291114","0.0-1.0-417.0","0","0","16402","","null","","","null","46","NaN","","","","","","","","","","","","","","",""
"","S2","","html-keyboard-response","298","291367","0.0-1.0-418.0","0","0","16402","","null","","","null","46","","NaN","","","","","","","","","","","","","",""
"","response","","html-keyboard-response","299","291379","0.0-1.0-419.0-0.0","0","0","16402","","9","","","75","46","","","1","46","training","adjacent","FG","6","7","Q.jpg","P.jpg","0","1","0","",""
"","feedback","","html-keyboard-response","300","292381","0.0-1.0-420.0-0.0","0","0","16402","","null","","","null","46","","","","","","","","","","","","","","","",""
"","time_out","","html-keyboard-response","301","294383","0.0-1.0-422.0-0.0","0","0","16402","","null","","","null","46","","","","","","","","","","","","","","","",""
"","ITI","","html-keyboard-response","302","295384","0.0-1.0-423.0","0","0","16402","","null","","","null","46","","","","","","","","","","","","","","","NaN",""
"","S1","","html-keyboard-response","303","295637","0.0-1.0-425.0","0","0","16402","","null","","","null","47","","","","","","","","","","","","","","","",""
"","ISI","","html-keyboard-response","304","296639","0.0-1.0-426.0","0","0","16402","","null","","","null","47","NaN","","","","","","","","","","","","","","",""
"","S2","","html-keyboard-response","305","296892","0.0-1.0-427.0","0","0","16402","","null","","","null","47","","NaN","","","","","","","","","","","","","",""
"","response","","html-keyboard-response","306","297088","0.0-1.0-428.0-0.0","0","0","16402","","194","","","75","47","","","1","47","training","adjacent","CD","3","4","O.jpg","L.jpg","0","1","0","",""
"","feedback","","html-keyboard-response","307","298091","0.0-1.0-429.0-0.0","0","0","16402","","null","","","null","47","","","","","","","","","","","","","","","",""
"","time_out","","html-keyboard-response","308","300094","0.0-1.0-431.0-0.0","0","0","16402","","null","","","null","47","","","","","","","","","","","","","","","",""
"","ITI","","html-keyboard-response","309","301097","0.0-1.0-432.0","0","0","16402","","null","","","null","47","","","","","","","","","","","","","","","NaN",""
"","block_over","","html-keyboard-response","310","305022","0.0-1.0-433.0-0.0","0","0","16402","","3923","","","32","47","","","","","","","","","","","","","","","",""
"","S1","","html-keyboard-response","311","305274","0.0-1.0-434.0","0","0","16402","","null","","","null","48","","","","","","","","","","","","","","","",""
"","ISI","","html-keyboard-response","312","306277","0.0-1.0-435.0","0","0","16402","","null","","","null","48","NaN","","","","","","","","","","","","","","",""
"","S2","","html-keyboard-response","313","306532","0.0-1.0-436.0","0","0","16402","","null","","","null","48","","NaN","","","","","","","","","","","","","",""
"","response","","html-keyboard-response","314","306939","0.0-1.0-437.0-0.0","0","0","16402","","405","","","75","48","","","2","48","training","adjacent","FG","6","7","Q.jpg","P.jpg","0","1","0","",""
"","feedback","","html-keyboard-response","315","307941","0.0-1.0-438.0-0.0","0","0","16402","","null","","","null","48","","","","","","","","","","","","","","","",""
"","time_out","","html-keyboard-response","316","309944","0.0-1.0-440.0-0.0","0","0","16402","","null","","","null","48","","","","","","","","","","","","","","","",""
"","ITI","","html-keyboard-response","317","310947","0.0-1.0-441.0","0","0","16402","","null","","","null","48","","","","","","","","","","","","","","","NaN",""
"","S1","","html-keyboard-response","318","311200","0.0-1.0-443.0","0","0","16402","","null","","","null","49","","","","","","","","","","","","","","","",""
"","ISI","","html-keyboard-response","319","312202","0.0-1.0-444.0","0","0","16402","","null","","","null","49","NaN","","","","","","","","","","","","","","",""
"","S2","","html-keyboard-response","320","312455","0.0-1.0-445.0","0","0","16402","","null","","","null","49","","NaN","","","","","","","","","","","","","",""
"","response","","html-keyboard-response","321","312811","0.0-1.0-446.0-0.0","0","0","16402","","355","","","68","49","","","2","49","training","adjacent","BC","2","3","R.jpg","O.jpg","1","1","1","",""
"","feedback","","html-keyboard-response","322","313813","0.0-1.0-447.0-0.0","0","0","16402","","null","","","null","49","","","","","","","","","","","","","","","",""
"","ITI","","html-keyboard-response","323","314815","0.0-1.0-450.0","0","0","16402","","null","","","null","49","","","","","","","","","","","","","","","NaN",""
"","S1","","html-keyboard-response","324","315068","0.0-1.0-452.0","0","0","16402","","null","","","null","50","","","","","","","","","","","","","","","",""
"","ISI","","html-keyboard-response","325","316070","0.0-1.0-453.0","0","0","16402","","null","","","null","50","NaN","","","","","","","","","","","","","","",""
"","S2","","html-keyboard-response","326","316323","0.0-1.0-454.0","0","0","16402","","null","","","null","50","","NaN","","","","","","","","","","","","","",""
"","response","","html-keyboard-response","327","316438","0.0-1.0-455.0-0.0","0","0","16402","","113","","","68","50","","","2","50","training","adjacent","AB","1","2","N.jpg","R.jpg","1","1","1","",""
"","feedback","","html-keyboard-response","328","317441","0.0-1.0-456.0-0.0","0","0","16402","","null","","","null","50","","","","","","","","","","","","","","","",""
"","ITI","","html-keyboard-response","329","318443","0.0-1.0-459.0","0","0","16402","","null","","","null","50","","","","","","","","","","","","","","","NaN",""
"","S1","","html-keyboard-response","330","318698","0.0-1.0-461.0","0","0","16402","","null","","","null","51","","","","","","","","","","","","","","","",""
"","ISI","","html-keyboard-response","331","319702","0.0-1.0-462.0","0","0","16402","","null","","","null","51","NaN","","","","","","","","","","","","","","",""
"","S2","","html-keyboard-response","332","319954","0.0-1.0-463.0","0","0","16402","","null","","","null","51","","NaN","","","","","","","","","","","","","",""
"","response","","html-keyboard-response","333","320223","0.0-1.0-464.0-0.0","0","0","16402","","268","","","68","51","","","2","51","training","adjacent","GF","7","6","P.jpg","Q.jpg","1","0","0","",""
"","feedback","","html-keyboard-response","334","321226","0.0-1.0-465.0-0.0","0","0","16402","","null","","","null","51","","","","","","","","","","","","","","","",""
"","time_out","","html-keyboard-response","335","323228","0.0-1.0-467.0-0.0","0","0","16402","","null","","","null","51","","","","","","","","","","","","","","","",""
"","ITI","","html-keyboard-response","336","324231","0.0-1.0-468.0","0","0","16402","","null","","","null","51","","","","","","","","","","","","","","","NaN",""
"","S1","","html-keyboard-response","337","324484","0.0-1.0-470.0","0","0","16402","","null","","","null","52","","","","","","","","","","","","","","","",""
"","ISI","","html-keyboard-response","338","325486","0.0-1.0-471.0","0","0","16402","","null","","","null","52","NaN","","","","","","","","","","","","","","",""
"","S2","","html-keyboard-response","339","325540","0.0-1.0-472.0","0","0","16402","","53","","","75","52","","k","2","52","training","adjacent","CB","3","2","O.jpg","R.jpg","0","0","1","",""
"","feedback","","html-keyboard-response","340","326543","0.0-1.0-474.0-0.0","0","0","16402","","null","","","null","52","","","","","","","","","","","","","","","",""
"","ITI","","html-keyboard-response","341","327544","0.0-1.0-477.0","0","0","16402","","null","","","null","52","","","","","","","","","","","","","","","NaN",""
"","S1","","html-keyboard-response","342","327798","0.0-1.0-479.0","0","0","16402","","null","","","null","53","","","","","","","","","","","","","","","",""
"","ISI","","html-keyboard-response","343","328802","0.0-1.0-480.0","0","0","16402","","null","","","null","53","NaN","","","","","","","","","","","","","","",""
"","S2","","html-keyboard-response","344","329054","0.0-1.0-481.0","0","0","16402","","null","","","null","53","","NaN","","","","","","","","","","","","","",""
"","response","","html-keyboard-response","345","330806","0.0-1.0-482.0-0.0","0","0","16402","","null","","","null","53","","","2","53","training","adjacent","EF","5","6","M.jpg","Q.jpg","NaN","1","0","",""
"","too_slow_prompt","","html-keyboard-response","346","331808","0.0-1.0-484.0-0.0","1","0","16402","","null","","","null","","","","","","","","","","","","","","","","",""
"","time_out","","html-keyboard-response","347","333811","0.0-1.0-485.0-0.0","0","0","16402","","null","","","null","53","","","","","","","","","","","","","","","",""
"","ITI","","html-keyboard-response","348","334813","0.0-1.0-486.0","0","0","16402","","null","","","null","53","","","","","","","","","","","","","","","NaN",""
"","S1","","html-keyboard-response","349","335067","0.0-1.0-488.0","0","0","16402","","null","","","null","54","","","","","","","","","","","","","","","",""
"","ISI","","html-keyboard-response","350","336070","0.0-1.0-489.0","0","0","16402","","92","","","75","54","k","","","","","","","","","","","","","","",""
"","S2","","html-keyboard-response","351","336323","0.0-1.0-490.0","0","0","16402","","null","","","null","54","","NaN","","","","","","","","","","","","","",""
"","response","","html-keyboard-response","352","336391","0.0-1.0-491.0-0.0","0","0","16402","","67","","","75","54","","","2","54","training","adjacent","EF","5","6","M.jpg","Q.jpg","0","1","0","",""
"","feedback","","html-keyboard-response","353","337394","0.0-1.0-492.0-0.0","0","0","16402","","null","","","null","54","","","","","","","","","","","","","","","",""
"","time_out","","html-keyboard-response","354","339396","0.0-1.0-494.0-0.0","0","0","16402","","null","","","null","54","","","","","","","","","","","","","","","",""
"","ITI","","html-keyboard-response","355","340399","0.0-1.0-495.0","0","0","16402","","null","","","null","54","","","","","","","","","","","","","","","NaN",""
"","S1","","html-keyboard-response","356","340653","0.0-1.0-497.0","0","0","16402","","null","","","null","55","","","","","","","","","","","","","","","",""
"","ISI","","html-keyboard-response","357","341655","0.0-1.0-498.0","0","0","16402","","null","","","null","55","NaN","","","","","","","","","","","","","","",""
"","S2","","html-keyboard-response","358","341908","0.0-1.0-499.0","0","0","16402","","null","","","null","55","","NaN","","","","","","","","","","","","","",""
"","response","","html-keyboard-response","359","342246","0.0-1.0-500.0-0.0","0","0","16402","","337","","","68","55","","","2","55","training","adjacent","GF","7","6","P.jpg","Q.jpg","1","0","0","",""
"","feedback","","html-keyboard-response","360","343249","0.0-1.0-501.0-0.0","0","0","16402","","null","","","null","55","","","","","","","","","","","","","","","",""
"","time_out","","html-keyboard-response","361","345252","0.0-1.0-503.0-0.0","0","0","16402","","null","","","null","55","","","","","","","","","","","","","","","",""
"","ITI","","html-keyboard-response","362","346254","0.0-1.0-504.0","0","0","16402","","null","","","null","55","","","","","","","","","","","","","","","NaN",""
"","S1","","html-keyboard-response","363","346508","0.0-1.0-506.0","0","0","16402","","null","","","null","56","","","","","","","","","","","","","","","",""
"","ISI","","html-keyboard-response","364","347511","0.0-1.0-507.0","0","0","16402","","null","","","null","56","NaN","","","","","","","","","","","","","","",""
"","S2","","html-keyboard-response","365","347763","0.0-1.0-508.0","0","0","16402","","null","","","null","56","","NaN","","","","","","","","","","","","","",""
"","response","","html-keyboard-response","366","349515","0.0-1.0-509.0-0.0","0","0","16402","","null","","","null","56","","","2","56","training","adjacent","GF","7","6","P.jpg","Q.jpg","NaN","0","0","",""
"","too_slow_prompt","","html-keyboard-response","367","350517","0.0-1.0-511.0-0.0","1","0","16402","","null","","","null","","","","","","","","","","","","","","","","",""
"","time_out","","html-keyboard-response","368","352518","0.0-1.0-512.0-0.0","0","0","16402","","null","","","null","56","","","","","","","","","","","","","","","",""
"","ITI","","html-keyboard-response","369","353521","0.0-1.0-513.0","0","0","16402","","null","","","null","56","","","","","","","","","","","","","","","NaN",""
"","S1","","html-keyboard-response","370","353774","0.0-1.0-515.0","0","0","16402","","null","","","null","57","","","","","","","","","","","","","","","",""
"","ISI","","html-keyboard-response","371","354777","0.0-1.0-516.0","0","0","16402","","797","","","68","57","d","","","","","","","","","","","","","","",""
"","S2","","html-keyboard-response","372","355029","0.0-1.0-517.0","0","0","16402","","250","","","68","57","","d","2","57","training","adjacent","BC","2","3","R.jpg","O.jpg","1","1","1","",""
"","feedback","","html-keyboard-response","373","356033","0.0-1.0-519.0-0.0","0","0","16402","","null","","","null","57","","","","","","","","","","","","","","","",""
"","ITI","","html-keyboard-response","374","357035","0.0-1.0-522.0","0","0","16402","","null","","","null","57","","","","","","","","","","","","","","","NaN",""
"","S1","","html-keyboard-response","375","357288","0.0-1.0-524.0","0","0","16402","","null","","","null","58","","","","","","","","","","","","","","","",""
"","ISI","","html-keyboard-response","376","358290","0.0-1.0-525.0","0","0","16402","","31","","","75","58","k","","","","","","","","","","","","","","",""
"","S2","","html-keyboard-response","377","358544","0.0-1.0-526.0","0","0","16402","","null","","","null","58","","NaN","","","","","","","","","","","","","",""
"","response","","html-keyboard-response","378","358604","0.0-1.0-527.0-0.0","0","0","16402","","58","","","75","58","","","2","58","training","adjacent","CD","3","4","O.jpg","L.jpg","0","1","0","",""
"","feedback","","html-keyboard-response","379","359607","0.0-1.0-528.0-0.0","0","0","16402","","null","","","null","58","","","","","","","","","","","","","","","",""
"","time_out","","html-keyboard-response","380","361611","0.0-1.0-530.0-0.0","0","0","16402","","null","","","null","58","","","","","","","","","","","","","","","",""
"","ITI","","html-keyboard-response","381","362614","0.0-1.0-531.0","0","0","16402","","null","","","null","58","","","","","","","","","","","","","","","NaN",""
"","S1","","html-keyboard-response","382","362866","0.0-1.0-533.0","0","0","16402","","null","","","null","59","","","","","","","","","","","","","","","",""
"","ISI","","html-keyboard-response","383","363868","0.0-1.0-534.0","0","0","16402","","null","","","null","59","NaN","","","","","","","","","","","","","","",""
"","S2","","html-keyboard-response","384","364121","0.0-1.0-535.0","0","0","16402","","null","","","null","59","","NaN","","","","","","","","","","","","","",""
"","response","","html-keyboard-response","385","364812","0.0-1.0-536.0-0.0","0","0","16402","","690","","","75","59","","","2","59","training","adjacent","CB","3","2","O.jpg","R.jpg","0","0","1","",""
"","feedback","","html-keyboard-response","386","365815","0.0-1.0-537.0-0.0","0","0","16402","","null","","","null","59","","","","","","","","","","","","","","","",""
"","ITI","","html-keyboard-response","387","366818","0.0-1.0-540.0","0","0","16402","","null","","","null","59","","","","","","","","","","","","","","","NaN",""
"","S1","","html-keyboard-response","388","367071","0.0-1.0-542.0","0","0","16402","","null","","","null","60","","","","","","","","","","","","","","","",""
"","ISI","","html-keyboard-response","389","368073","0.0-1.0-543.0","0","0","16402","","null","","","null","60","NaN","","","","","","","","","","","","","","",""
"","S2","","html-keyboard-response","390","368325","0.0-1.0-544.0","0","0","16402","","null","","","null","60","","NaN","","","","","","","","","","","","","",""
"","response","","html-keyboard-response","391","369197","0.0-1.0-545.0-0.0","0","0","16402","","871","","","68","60","","","2","60","training","adjacent","FE","6","5","Q.jpg","M.jpg","1","0","0","",""
"","feedback","","html-keyboard-response","392","370200","0.0-1.0-546.0-0.0","0","0","16402","","null","","","null","60","","","","","","","","","","","","","","","",""
"","time_out","","html-keyboard-response","393","372203","0.0-1.0-548.0-0.0","0","0","16402","","null","","","null","60","","","","","","","","","","","","","","","",""
"","ITI","","html-keyboard-response","394","373206","0.0-1.0-549.0","0","0","16402","","null","","","null","60","","","","","","","","","","","","","","","NaN",""
"","S1","","html-keyboard-response","395","373460","0.0-1.0-551.0","0","0","16402","","null","","","null","61","","","","","","","","","","","","","","","",""
"","ISI","","html-keyboard-response","396","374464","0.0-1.0-552.0","0","0","16402","","null","","","null","61","NaN","","","","","","","","","","","","","","",""
"","S2","","html-keyboard-response","397","374716","0.0-1.0-553.0","0","0","16402","","null","","","null","61","","NaN","","","","","","","","","","","","","",""
"","response","","html-keyboard-response","398","374849","0.0-1.0-554.0-0.0","0","0","16402","","131","","","75","61","","","2","61","training","adjacent","CD","3","4","O.jpg","L.jpg","0","1","0","",""
"","feedback","","html-keyboard-response","399","375851","0.0-1.0-555.0-0.0","0","0","16402","","null","","","null","61","","","","","","","","","","","","","","","",""
"","time_out","","html-keyboard-response","400","377853","0.0-1.0-557.0-0.0","0","0","16402","","null","","","null","61","","","","","","","","","","","","","","","",""
"","ITI","","html-keyboard-response","401","378855","0.0-1.0-558.0","0","0","16402","","null","","","null","61","","","","","","","","","","","","","","","NaN",""
"","S1","","html-keyboard-response","402","379108","0.0-1.0-560.0","0","0","16402","","null","","","null","62","","","","","","","","","","","","","","","",""
"","ISI","","html-keyboard-response","403","380110","0.0-1.0-561.0","0","0","16402","","null","","","null","62","NaN","","","","","","","","","","","","","","",""
"","S2","","html-keyboard-response","404","380363","0.0-1.0-562.0","0","0","16402","","null","","","null","62","","NaN","","","","","","","","","","","","","",""
"","response","","html-keyboard-response","405","380521","0.0-1.0-563.0-0.0","0","0","16402","","157","","","75","62","","","2","62","training","adjacent","DC","4","3","L.jpg","O.jpg","0","0","1","",""
"","feedback","","html-keyboard-response","406","381524","0.0-1.0-564.0-0.0","0","0","16402","","null","","","null","62","","","","","","","","","","","","","","","",""
"","ITI","","html-keyboard-response","407","382527","0.0-1.0-567.0","0","0","16402","","null","","","null","62","","","","","","","","","","","","","","","NaN",""
"","S1","","html-keyboard-response","408","382781","0.0-1.0-569.0","0","0","16402","","null","","","null","63","","","","","","","","","","","","","","","",""
"","ISI","","html-keyboard-response","409","383783","0.0-1.0-570.0","0","0","16402","","null","","","null","63","NaN","","","","","","","","","","","","","","",""
"","S2","","html-keyboard-response","410","384036","0.0-1.0-571.0","0","0","16402","","null","","","null","63","","NaN","","","","","","","","","","","","","",""
"","response","","html-keyboard-response","411","384347","0.0-1.0-572.0-0.0","0","0","16402","","309","","","68","63","","","2","63","training","adjacent","FG","6","7","Q.jpg","P.jpg","1","1","1","",""
"","feedback","","html-keyboard-response","412","385349","0.0-1.0-573.0-0.0","0","0","16402","","null","","","null","63","","","","","","","","","","","","","","","",""
"","ITI","","html-keyboard-response","413","386352","0.0-1.0-576.0","0","0","16402","","null","","","null","63","","","","","","","","","","","","","","","NaN",""
"","S1","","html-keyboard-response","414","386605","0.0-1.0-578.0","0","0","16402","","null","","","null","64","","","","","","","","","","","","","","","",""
"","ISI","","html-keyboard-response","415","387607","0.0-1.0-579.0","0","0","16402","","null","","","null","64","NaN","","","","","","","","","","","","","","",""
"","S2","","html-keyboard-response","416","387861","0.0-1.0-580.0","0","0","16402","","null","","","null","64","","NaN","","","","","","","","","","","","","",""
"","response","","html-keyboard-response","417","388298","0.0-1.0-581.0-0.0","0","0","16402","","433","","","75","64","","","2","64","training","adjacent","BC","2","3","R.jpg","O.jpg","0","1","0","",""
"","feedback","","html-keyboard-response","418","389301","0.0-1.0-582.0-0.0","0","0","16402","","null","","","null","64","","","","","","","","","","","","","","","",""
"","time_out","","html-keyboard-response","419","391303","0.0-1.0-584.0-0.0","0","0","16402","","null","","","null","64","","","","","","","","","","","","","","","",""
"","ITI","","html-keyboard-response","420","392305","0.0-1.0-585.0","0","0","16402","","null","","","null","64","","","","","","","","","","","","","","","NaN",""
"","S1","","html-keyboard-response","421","392557","0.0-1.0-587.0","0","0","16402","","null","","","null","65","","","","","","","","","","","","","","","",""
"","ISI","","html-keyboard-response","422","393559","0.0-1.0-588.0","0","0","16402","","null","","","null","65","NaN","","","","","","","","","","","","","","",""
"","S2","","html-keyboard-response","423","393811","0.0-1.0-589.0","0","0","16402","","null","","","null","65","","NaN","","","","","","","","","","","","","",""
"","response","","html-keyboard-response","424","394446","0.0-1.0-590.0-0.0","0","0","16402","","633","","","68","65","","","2","65","training","adjacent","BA","2","1","R.jpg","N.jpg","1","0","0","",""
"","feedback","","html-keyboard-response","425","395449","0.0-1.0-591.0-0.0","0","0","16402","","null","","","null","65","","","","","","","","","","","","","","","",""
"","time_out","","html-keyboard-response","426","397453","0.0-1.0-593.0-0.0","0","0","16402","","null","","","null","65","","","","","","","","","","","","","","","",""
"","ITI","","html-keyboard-response","427","398455","0.0-1.0-594.0","0","0","16402","","null","","","null","65","","","","","","","","","","","","","","","NaN",""
"","S1","","html-keyboard-response","428","398707","0.0-1.0-596.0","0","0","16402","","null","","","null","66","","","","","","","","","","","","","","","",""
"","ISI","","html-keyboard-response","429","399709","0.0-1.0-597.0","0","0","16402","","147","","","75","66","k","","","","","","","","","","","","","","",""
"","S2","","html-keyboard-response","430","399924","0.0-1.0-598.0","0","0","16402","","214","","","75","66","","k","2","66","training","adjacent","FE","6","5","Q.jpg","M.jpg","0","0","1","",""
"","feedback","","html-keyboard-response","431","400927","0.0-1.0-600.0-0.0","0","0","16402","","null","","","null","66","","","","","","","","","","","","","","","",""
"","ITI","","html-keyboard-response","432","401929","0.0-1.0-603.0","0","0","16402","","null","","","null","66","","","","","","","","","","","","","","","NaN",""
"","S1","","html-keyboard-response","433","402182","0.0-1.0-605.0","0","0","16402","","null","","","null","67","","","","","","","","","","","","","","","",""
"","ISI","","html-keyboard-response","434","403184","0.0-1.0-606.0","0","0","16402","","null","","","null","67","NaN","","","","","","","","","","","","","","",""
"","S2","","html-keyboard-response","435","403437","0.0-1.0-607.0","0","0","16402","","null","","","null","67","","NaN","","","","","","","","","","","","","",""
"","response","","html-keyboard-response","436","404350","0.0-1.0-608.0-0.0","0","0","16402","","912","","","68","67","","","2","67","training","adjacent","DC","4","3","L.jpg","O.jpg","1","0","0","",""
"","feedback","","html-keyboard-response","437","405354","0.0-1.0-609.0-0.0","0","0","16402","","null","","","null","67","","","","","","","","","","","","","","","",""
"","time_out","","html-keyboard-response","438","407357","0.0-1.0-611.0-0.0","0","0","16402","","null","","","null","67","","","","","","","","","","","","","","","",""
"","ITI","","html-keyboard-response","439","408359","0.0-1.0-612.0","0","0","16402","","null","","","null","67","","","","","","","","","","","","","","","NaN",""
"","S1","","html-keyboard-response","440","408611","0.0-1.0-614.0","0","0","16402","","null","","","null","68","","","","","","","","","","","","","","","",""
"","ISI","","html-keyboard-response","441","409613","0.0-1.0-615.0","0","0","16402","","null","","","null","68","NaN","","","","","","","","","","","","","","",""
"","S2","","html-keyboard-response","442","409865","0.0-1.0-616.0","0","0","16402","","null","","","null","68","","NaN","","","","","","","","","","","","","",""
"","response","","html-keyboard-response","443","410041","0.0-1.0-617.0-0.0","0","0","16402","","174","","","75","68","","","2","68","training","adjacent","DC","4","3","L.jpg","O.jpg","0","0","1","",""
"","feedback","","html-keyboard-response","444","411043","0.0-1.0-618.0-0.0","0","0","16402","","null","","","null","68","","","","","","","","","","","","","","","",""
"","ITI","","html-keyboard-response","445","412046","0.0-1.0-621.0","0","0","16402","","null","","","null","68","","","","","","","","","","","","","","","NaN",""
"","S1","","html-keyboard-response","446","412299","0.0-1.0-623.0","0","0","16402","","null","","","null","69","","","","","","","","","","","","","","","",""
"","ISI","","html-keyboard-response","447","413303","0.0-1.0-624.0","0","0","16402","","null","","","null","69","NaN","","","","","","","","","","","","","","",""
"","S2","","html-keyboard-response","448","413556","0.0-1.0-625.0","0","0","16402","","null","","","null","69","","NaN","","","","","","","","","","","","","",""
"","response","","html-keyboard-response","449","414389","0.0-1.0-626.0-0.0","0","0","16402","","831","","","68","69","","","2","69","training","adjacent","CB","3","2","O.jpg","R.jpg","1","0","0","",""
"","feedback","","html-keyboard-response","450","415392","0.0-1.0-627.0-0.0","0","0","16402","","null","","","null","69","","","","","","","","","","","","","","","",""
"","time_out","","html-keyboard-response","451","417394","0.0-1.0-629.0-0.0","0","0","16402","","null","","","null","69","","","","","","","","","","","","","","","",""
"","ITI","","html-keyboard-response","452","418396","0.0-1.0-630.0","0","0","16402","","null","","","null","69","","","","","","","","","","","","","","","NaN",""
"","S1","","html-keyboard-response","453","418648","0.0-1.0-632.0","0","0","16402","","null","","","null","70","","","","","","","","","","","","","","","",""
"","ISI","","html-keyboard-response","454","419650","0.0-1.0-633.0","0","0","16402","","null","","","null","70","NaN","","","","","","","","","","","","","","",""
"","S2","","html-keyboard-response","455","419904","0.0-1.0-634.0","0","0","16402","","null","","","null","70","","NaN","","","","","","","","","","","","","",""
"","response","","html-keyboard-response","456","420192","0.0-1.0-635.0-0.0","0","0","16402","","285","","","75","70","","","2","70","training","adjacent","CD","3","4","O.jpg","L.jpg","0","1","0","",""
"","feedback","","html-keyboard-response","457","421194","0.0-1.0-636.0-0.0","0","0","16402","","null","","","null","70","","","","","","","","","","","","","","","",""
"","time_out","","html-keyboard-response","458","423196","0.0-1.0-638.0-0.0","0","0","16402","","null","","","null","70","","","","","","","","","","","","","","","",""
"","ITI","","html-keyboard-response","459","424199","0.0-1.0-639.0","0","0","16402","","null","","","null","70","","","","","","","","","","","","","","","NaN",""
"","S1","","html-keyboard-response","460","424451","0.0-1.0-641.0","0","0","16402","","null","","","null","71","","","","","","","","","","","","","","","",""
"","ISI","","html-keyboard-response","461","425453","0.0-1.0-642.0","0","0","16402","","null","","","null","71","NaN","","","","","","","","","","","","","","",""
"","S2","","html-keyboard-response","462","425707","0.0-1.0-643.0","0","0","16402","","null","","","null","71","","NaN","","","","","","","","","","","","","",""
"","response","","html-keyboard-response","463","426246","0.0-1.0-644.0-0.0","0","0","16402","","537","","","68","71","","","2","71","training","adjacent","GF","7","6","P.jpg","Q.jpg","1","0","0","",""
"","feedback","","html-keyboard-response","464","427248","0.0-1.0-645.0-0.0","0","0","16402","","null","","","null","71","","","","","","","","","","","","","","","",""
"","time_out","","html-keyboard-response","465","429251","0.0-1.0-647.0-0.0","0","0","16402","","null","","","null","71","","","","","","","","","","","","","","","",""
"","ITI","","html-keyboard-response","466","430254","0.0-1.0-648.0","0","0","16402","","null","","","null","71","","","","","","","","","","","","","","","NaN",""
"","S1","","html-keyboard-response","467","430508","0.0-1.0-650.0","0","0","16402","","null","","","null","72","","","","","","","","","","","","","","","",""
"","ISI","","html-keyboard-response","468","431511","0.0-1.0-651.0","0","0","16402","","null","","","null","72","NaN","","","","","","","","","","","","","","",""
"","S2","","html-keyboard-response","469","431764","0.0-1.0-652.0","0","0","16402","","null","","","null","72","","NaN","","","","","","","","","","","","","",""
"","response","","html-keyboard-response","470","432191","0.0-1.0-653.0-0.0","0","0","16402","","424","","","75","72","","","2","72","training","adjacent","DE","4","5","L.jpg","M.jpg","0","1","0","",""
"","feedback","","html-keyboard-response","471","433193","0.0-1.0-654.0-0.0","0","0","16402","","null","","","null","72","","","","","","","","","","","","","","","",""
"","time_out","","html-keyboard-response","472","435196","0.0-1.0-656.0-0.0","0","0","16402","","null","","","null","72","","","","","","","","","","","","","","","",""
"","ITI","","html-keyboard-response","473","436198","0.0-1.0-657.0","0","0","16402","","null","","","null","72","","","","","","","","","","","","","","","NaN",""
"","S1","","html-keyboard-response","474","436450","0.0-1.0-659.0","0","0","16402","","null","","","null","73","","","","","","","","","","","","","","","",""
"","ISI","","html-keyboard-response","475","437452","0.0-1.0-660.0","0","0","16402","","null","","","null","73","NaN","","","","","","","","","","","","","","",""
"","S2","","html-keyboard-response","476","437704","0.0-1.0-661.0","0","0","16402","","null","","","null","73","","NaN","","","","","","","","","","","","","",""
"","response","","html-keyboard-response","477","437768","0.0-1.0-662.0-0.0","0","0","16402","","62","","","75","73","","","2","73","training","adjacent","ED","5","4","M.jpg","L.jpg","0","0","1","",""
"","feedback","","html-keyboard-response","478","438771","0.0-1.0-663.0-0.0","0","0","16402","","null","","","null","73","","","","","","","","","","","","","","","",""
"","ITI","","html-keyboard-response","479","439773","0.0-1.0-666.0","0","0","16402","","null","","","null","73","","","","","","","","","","","","","","","NaN",""
"","S1","","html-keyboard-response","480","440026","0.0-1.0-668.0","0","0","16402","","null","","","null","74","","","","","","","","","","","","","","","",""
"","ISI","","html-keyboard-response","481","441029","0.0-1.0-669.0","0","0","16402","","null","","","null","74","NaN","","","","","","","","","","","","","","",""
"","S2","","html-keyboard-response","482","441281","0.0-1.0-670.0","0","0","16402","","null","","","null","74","","NaN","","","","","","","","","","","","","",""
"","response","","html-keyboard-response","483","442391","0.0-1.0-671.0-0.0","0","0","16402","","1108","","","68","74","","","2","74","training","adjacent","BA","2","1","R.jpg","N.jpg","1","0","0","",""
"","feedback","","html-keyboard-response","484","443393","0.0-1.0-672.0-0.0","0","0","16402","","null","","","null","74","","","","","","","","","","","","","","","",""
"","time_out","","html-keyboard-response","485","445397","0.0-1.0-674.0-0.0","0","0","16402","","null","","","null","74","","","","","","","","","","","","","","","",""
"","ITI","","html-keyboard-response","486","446399","0.0-1.0-675.0","0","0","16402","","null","","","null","74","","","","","","","","","","","","","","","NaN",""
"","S1","","html-keyboard-response","487","446653","0.0-1.0-677.0","0","0","16402","","null","","","null","75","","","","","","","","","","","","","","","",""
"","ISI","","html-keyboard-response","488","447655","0.0-1.0-678.0","0","0","16402","","44","","","75","75","k","","","","","","","","","","","","","","",""
"","S2","","html-keyboard-response","489","447907","0.0-1.0-679.0","0","0","16402","","null","","","null","75","","NaN","","","","","","","","","","","","","",""
"","response","","html-keyboard-response","490","448958","0.0-1.0-680.0-0.0","0","0","16402","","1048","","","68","75","","","2","75","training","adjacent","EF","5","6","M.jpg","Q.jpg","1","1","1","",""
"","feedback","","html-keyboard-response","491","449961","0.0-1.0-681.0-0.0","0","0","16402","","null","","","null","75","","","","","","","","","","","","","","","",""
"","ITI","","html-keyboard-response","492","450965","0.0-1.0-684.0","0","0","16402","","null","","","null","75","","","","","","","","","","","","","","","NaN",""
"","S1","","html-keyboard-response","493","451218","0.0-1.0-686.0","0","0","16402","","null","","","null","76","","","","","","","","","","","","","","","",""
"","ISI","","html-keyboard-response","494","452221","0.0-1.0-687.0","0","0","16402","","null","","","null","76","NaN","","","","","","","","","","","","","","",""
"","S2","","html-keyboard-response","495","452473","0.0-1.0-688.0","0","0","16402","","null","","","null","76","","NaN","","","","","","","","","","","","","",""
"","response","","html-keyboard-response","496","452590","0.0-1.0-689.0-0.0","0","0","16402","","115","","","68","76","","","2","76","training","adjacent","BA","2","1","R.jpg","N.jpg","1","0","0","",""
"","feedback","","html-keyboard-response","497","453592","0.0-1.0-690.0-0.0","0","0","16402","","null","","","null","76","","","","","","","","","","","","","","","",""
"","time_out","","html-keyboard-response","498","455597","0.0-1.0-692.0-0.0","0","0","16402","","null","","","null","76","","","","","","","","","","","","","","","",""
"","ITI","","html-keyboard-response","499","456600","0.0-1.0-693.0","0","0","16402","","null","","","null","76","","","","","","","","","","","","","","","NaN",""
"","S1","","html-keyboard-response","500","456852","0.0-1.0-695.0","0","0","16402","","null","","","null","77","","","","","","","","","","","","","","","",""
"","ISI","","html-keyboard-response","501","457854","0.0-1.0-696.0","0","0","16402","","124","","","75","77","k","","","","","","","","","","","","","","",""
"","S2","","html-keyboard-response","502","458018","0.0-1.0-697.0","0","0","16402","","161","","","75","77","","k","2","77","training","adjacent","BA","2","1","R.jpg","N.jpg","0","0","1","",""
"","feedback","","html-keyboard-response","503","459021","0.0-1.0-699.0-0.0","0","0","16402","","null","","","null","77","","","","","","","","","","","","","","","",""
"","ITI","","html-keyboard-response","504","460023","0.0-1.0-702.0","0","0","16402","","null","","","null","77","","","","","","","","","","","","","","","NaN",""
"","S1","","html-keyboard-response","505","460275","0.0-1.0-704.0","0","0","16402","","null","","","null","78","","","","","","","","","","","","","","","",""
"","ISI","","html-keyboard-response","506","461277","0.0-1.0-705.0","0","0","16402","","null","","","null","78","NaN","","","","","","","","","","","","","","",""
"","S2","","html-keyboard-response","507","461355","0.0-1.0-706.0","0","0","16402","","75","","","68","78","","d","2","78","training","adjacent","FG","6","7","Q.jpg","P.jpg","1","1","1","",""
"","feedback","","html-keyboard-response","508","462357","0.0-1.0-708.0-0.0","0","0","16402","","null","","","null","78","","","","","","","","","","","","","","","",""
"","ITI","","html-keyboard-response","509","463360","0.0-1.0-711.0","0","0","16402","","207","","","75","78","","","","","","","","","","","","","","","k",""
"","S1","","html-keyboard-response","510","463613","0.0-1.0-713.0","0","0","16402","","null","","","null","79","","","","","","","","","","","","","","","",""
"","ISI","","html-keyboard-response","511","464616","0.0-1.0-714.0","0","0","16402","","510","","","75","79","k","","","","","","","","","","","","","","",""
"","S2","","html-keyboard-response","512","464622","0.0-1.0-715.0","0","0","16402","","5","","","75","79","","k","2","79","training","adjacent","FE","6","5","Q.jpg","M.jpg","0","0","1","",""
"","feedback","","html-keyboard-response","513","465625","0.0-1.0-717.0-0.0","0","0","16402","","null","","","null","79","","","","","","","","","","","","","","","",""
"","ITI","","html-keyboard-response","514","466627","0.0-1.0-720.0","0","0","16402","","null","","","null","79","","","","","","","","","","","","","","","NaN",""
"","S1","","html-keyboard-response","515","466879","0.0-1.0-722.0","0","0","16402","","null","","","null","80","","","","","","","","","","","","","","","",""
"","ISI","","html-keyboard-response","516","467882","0.0-1.0-723.0","0","0","16402","","968","","","68","80","d","","","","","","","","","","","","","","",""
"","S2","","html-keyboard-response","517","468136","0.0-1.0-724.0","0","0","16402","","null","","","null","80","","NaN","","","","","","","","","","","","","",""
"","response","","html-keyboard-response","518","468246","0.0-1.0-725.0-0.0","0","0","16402","","108","","","68","80","","","2","80","training","adjacent","DE","4","5","L.jpg","M.jpg","1","1","1","",""
"","feedback","","html-keyboard-response","519","469249","0.0-1.0-726.0-0.0","0","0","16402","","null","","","null","80","","","","","","","","","","","","","","","",""
"","ITI","","html-keyboard-response","520","470251","0.0-1.0-729.0","0","0","16402","","null","","","null","80","","","","","","","","","","","","","","","NaN",""
"","S1","","html-keyboard-response","521","470504","0.0-1.0-731.0","0","0","16402","","null","","","null","81","","","","","","","","","","","","","","","",""
"","ISI","","html-keyboard-response","522","471506","0.0-1.0-732.0","0","0","16402","","null","","","null","81","NaN","","","","","","","","","","","","","","",""
"","S2","","html-keyboard-response","523","471758","0.0-1.0-733.0","0","0","16402","","null","","","null","81","","NaN","","","","","","","","","","","","","",""
"","response","","html-keyboard-response","524","471933","0.0-1.0-734.0-0.0","0","0","16402","","172","","","75","81","","","2","81","training","adjacent","AB","1","2","N.jpg","R.jpg","0","1","0","",""
"","feedback","","html-keyboard-response","525","472937","0.0-1.0-735.0-0.0","0","0","16402","","null","","","null","81","","","","","","","","","","","","","","","",""
"","time_out","","html-keyboard-response","526","474939","0.0-1.0-737.0-0.0","0","0","16402","","null","","","null","81","","","","","","","","","","","","","","","",""
"","ITI","","html-keyboard-response","527","475941","0.0-1.0-738.0","0","0","16402","","null","","","null","81","","","","","","","","","","","","","","","NaN",""
"","S1","","html-keyboard-response","528","476194","0.0-1.0-740.0","0","0","16402","","null","","","null","82","","","","","","","","","","","","","","","",""
"","ISI","","html-keyboard-response","529","477196","0.0-1.0-741.0","0","0","16402","","null","","","null","82","NaN","","","","","","","","","","","","","","",""
"","S2","","html-keyboard-response","530","477449","0.0-1.0-742.0","0","0","16402","","null","","","null","82","","NaN","","","","","","","","","","","","","",""
"","response","","html-keyboard-response","531","478538","0.0-1.0-743.0-0.0","0","0","16402","","1087","","","75","82","","","2","82","training","adjacent","FE","6","5","Q.jpg","M.jpg","0","0","1","",""
"","feedback","","html-keyboard-response","532","479541","0.0-1.0-744.0-0.0","0","0","16402","","null","","","null","82","","","","","","","","","","","","","","","",""
"","ITI","","html-keyboard-response","533","480544","0.0-1.0-747.0","0","0","16402","","null","","","null","82","","","","","","","","","","","","","","","NaN",""
"","S1","","html-keyboard-response","534","480796","0.0-1.0-749.0","0","0","16402","","null","","","null","83","","","","","","","","","","","","","","","",""
"","ISI","","html-keyboard-response","535","481798","0.0-1.0-750.0","0","0","16402","","660","","","68","83","d","","","","","","","","","","","","","","",""
"","S2","","html-keyboard-response","536","482051","0.0-1.0-751.0","0","0","16402","","null","","","null","83","","NaN","","","","","","","","","","","","","",""
"","response","","html-keyboard-response","537","483804","0.0-1.0-752.0-0.0","0","0","16402","","null","","","null","83","","","2","83","training","adjacent","CB","3","2","O.jpg","R.jpg","NaN","0","0","",""
"","too_slow_prompt","","html-keyboard-response","538","484807","0.0-1.0-754.0-0.0","1","0","16402","","null","","","null","","","","","","","","","","","","","","","","",""
"","time_out","","html-keyboard-response","539","486809","0.0-1.0-755.0-0.0","0","0","16402","","null","","","null","83","","","","","","","","","","","","","","","",""
"","ITI","","html-keyboard-response","540","487811","0.0-1.0-756.0","0","0","16402","","null","","","null","83","","","","","","","","","","","","","","","NaN",""
"","S1","","html-keyboard-response","541","488063","0.0-1.0-758.0","0","0","16402","","null","","","null","84","","","","","","","","","","","","","","","",""
"","ISI","","html-keyboard-response","542","489067","0.0-1.0-759.0","0","0","16402","","124","","","75","84","k","","","","","","","","","","","","","","",""
"","S2","","html-keyboard-response","543","489321","0.0-1.0-760.0","0","0","16402","","null","","","null","84","","NaN","","","","","","","","","","","","","",""
"","response","","html-keyboard-response","544","489410","0.0-1.0-761.0-0.0","0","0","16402","","86","","","75","84","","","2","84","training","adjacent","CD","3","4","O.jpg","L.jpg","0","1","0","",""
"","feedback","","html-keyboard-response","545","490413","0.0-1.0-762.0-0.0","0","0","16402","","null","","","null","84","","","","","","","","","","","","","","","",""
"","time_out","","html-keyboard-response","546","492416","0.0-1.0-764.0-0.0","0","0","16402","","null","","","null","84","","","","","","","","","","","","","","","",""
"","ITI","","html-keyboard-response","547","493418","0.0-1.0-765.0","0","0","16402","","null","","","null","84","","","","","","","","","","","","","","","NaN",""
"","S1","","html-keyboard-response","548","493672","0.0-1.0-767.0","0","0","16402","","null","","","null","85","","","","","","","","","","","","","","","",""
"","ISI","","html-keyboard-response","549","494675","0.0-1.0-768.0","0","0","16402","","null","","","null","85","NaN","","","","","","","","","","","","","","",""
"","S2","","html-keyboard-response","550","494928","0.0-1.0-769.0","0","0","16402","","null","","","null","85","","NaN","","","","","","","","","","","","","",""
"","response","","html-keyboard-response","551","495393","0.0-1.0-770.0-0.0","0","0","16402","","464","","","68","85","","","2","85","training","adjacent","AB","1","2","N.jpg","R.jpg","1","1","1","",""
"","feedback","","html-keyboard-response","552","496395","0.0-1.0-771.0-0.0","0","0","16402","","null","","","null","85","","","","","","","","","","","","","","","",""
"","ITI","","html-keyboard-response","553","497398","0.0-1.0-774.0","0","0","16402","","null","","","null","85","","","","","","","","","","","","","","","NaN",""
"","S1","","html-keyboard-response","554","497649","0.0-1.0-776.0","0","0","16402","","null","","","null","86","","","","","","","","","","","","","","","",""
"","ISI","","html-keyboard-response","555","498651","0.0-1.0-777.0","0","0","16402","","null","","","null","86","NaN","","","","","","","","","","","","","","",""
"","S2","","html-keyboard-response","556","498905","0.0-1.0-778.0","0","0","16402","","null","","","null","86","","NaN","","","","","","","","","","","","","",""
"","response","","html-keyboard-response","557","499210","0.0-1.0-779.0-0.0","0","0","16402","","301","","","68","86","","","2","86","training","adjacent","ED","5","4","M.jpg","L.jpg","1","0","0","",""
"","feedback","","html-keyboard-response","558","500212","0.0-1.0-780.0-0.0","0","0","16402","","null","","","null","86","","","","","","","","","","","","","","","",""
"","time_out","","html-keyboard-response","559","502215","0.0-1.0-782.0-0.0","0","0","16402","","null","","","null","86","","","","","","","","","","","","","","","",""
"","ITI","","html-keyboard-response","560","503218","0.0-1.0-783.0","0","0","16402","","null","","","null","86","","","","","","","","","","","","","","","NaN",""
"","S1","","html-keyboard-response","561","503470","0.0-1.0-785.0","0","0","16402","","null","","","null","87","","","","","","","","","","","","","","","",""
"","ISI","","html-keyboard-response","562","504472","0.0-1.0-786.0","0","0","16402","","176","","","75","87","k","","","","","","","","","","","","","","",""
"","S2","","html-keyboard-response","563","504724","0.0-1.0-787.0","0","0","16402","","null","","","null","87","","NaN","","","","","","","","","","","","","",""
"","response","","html-keyboard-response","564","504766","0.0-1.0-788.0-0.0","0","0","16402","","41","","","75","87","","","2","87","training","adjacent","BC","2","3","R.jpg","O.jpg","0","1","0","",""
"","feedback","","html-keyboard-response","565","505768","0.0-1.0-789.0-0.0","0","0","16402","","null","","","null","87","","","","","","","","","","","","","","","",""
"","time_out","","html-keyboard-response","566","507770","0.0-1.0-791.0-0.0","0","0","16402","","null","","","null","87","","","","","","","","","","","","","","","",""
"","ITI","","html-keyboard-response","567","508774","0.0-1.0-792.0","0","0","16402","","null","","","null","87","","","","","","","","","","","","","","","NaN",""
"","S1","","html-keyboard-response","568","509026","0.0-1.0-794.0","0","0","16402","","null","","","null","88","","","","","","","","","","","","","","","",""
"","ISI","","html-keyboard-response","569","510029","0.0-1.0-795.0","0","0","16402","","null","","","null","88","NaN","","","","","","","","","","","","","","",""
"","S2","","html-keyboard-response","570","510276","0.0-1.0-796.0","0","0","16402","","245","","","75","88","","k","2","88","training","adjacent","FG","6","7","Q.jpg","P.jpg","0","1","0","",""
"","feedback","","html-keyboard-response","571","511280","0.0-1.0-798.0-0.0","0","0","16402","","null","","","null","88","","","","","","","","","","","","","","","",""
"","time_out","","html-keyboard-response","572","513282","0.0-1.0-800.0-0.0","0","0","16402","","null","","","null","88","","","","","","","","","","","","","","","",""
"","ITI","","html-keyboard-response","573","514285","0.0-1.0-801.0","0","0","16402","","null","","","null","88","","","","","","","","","","","","","","","NaN",""
"","S1","","html-keyboard-response","574","514537","0.0-1.0-803.0","0","0","16402","","null","","","null","89","","","","","","","","","","","","","","","",""
"","ISI","","html-keyboard-response","575","515539","0.0-1.0-804.0","0","0","16402","","null","","","null","89","NaN","","","","","","","","","","","","","","",""
"","S2","","html-keyboard-response","576","515792","0.0-1.0-805.0","0","0","16402","","null","","","null","89","","NaN","","","","","","","","","","","","","",""
"","response","","html-keyboard-response","577","515873","0.0-1.0-806.0-0.0","0","0","16402","","80","","","68","89","","","2","89","training","adjacent","ED","5","4","M.jpg","L.jpg","1","0","0","",""
"","feedback","","html-keyboard-response","578","516877","0.0-1.0-807.0-0.0","0","0","16402","","null","","","null","89","","","","","","","","","","","","","","","",""
"","time_out","","html-keyboard-response","579","518880","0.0-1.0-809.0-0.0","0","0","16402","","null","","","null","89","","","","","","","","","","","","","","","",""
"","ITI","","html-keyboard-response","580","519882","0.0-1.0-810.0","0","0","16402","","null","","","null","89","","","","","","","","","","","","","","","NaN",""
"","S1","","html-keyboard-response","581","520135","0.0-1.0-812.0","0","0","16402","","null","","","null","90","","","","","","","","","","","","","","","",""
"","ISI","","html-keyboard-response","582","521137","0.0-1.0-813.0","0","0","16402","","null","","","null","90","NaN","","","","","","","","","","","","","","",""
"","S2","","html-keyboard-response","583","521391","0.0-1.0-814.0","0","0","16402","","null","","","null","90","","NaN","","","","","","","","","","","","","",""
