"success","ttype","start_time","trial_type","trial_index","time_elapsed","internal_node_id","warning","missed_checkup","PID","view_history","rt","responses","repeat_instructions","key_press","index","keypress_isi","keypress_S2","block","trial_num","phase","group_type","pair_type","S1_stim","S2_stim","S1_img","S2_img","S1_chosen","S1_higher","accuracy","keypress_iti","total_bonus_tally"
"true","full_screen","d04152023hr1151","fullscreen","0","10373","0.0-0.0","0","0","70683","","","","","","","","","","","","","","","","","","","","","",""
"","instructions","","instructions","1","28317","0.0-1.0-0.0-0.0","0","0","70683","[{""page_index"":0,""viewing_time"":5623},{""page_index"":1,""viewing_time"":1666},{""page_index"":2,""viewing_time"":9508},{""page_index"":3,""viewing_time"":1141}]","17940","","","","","","","","","","","","","","","","","","","",""
"","comprehension_check","","survey-multi-choice","2","58277","0.0-1.0-0.0-1.0","0","0","70683","","29949","{""Q0"":""True"",""Q1"":""K"",""Q2"":""Once the second image appears and while the screen 'MAKE A CHOICE' is shown"",""Q3"":""Green mark"",""Q4"":""either D or K""}","0","","","","","","","","","","","","","","","","","",""
"","start_exp","","html-keyboard-response","3","59971","0.0-1.0-1.0","0","0","70683","","1680","","","32","","","","","","","","","","","","","","","","",""
"","S1","","html-keyboard-response","4","60231","0.0-1.0-2.0","0","0","70683","","null","","","null","0","","","","","","","","","","","","","","","",""
"","ISI","","html-keyboard-response","5","61237","0.0-1.0-3.0","0","0","70683","","null","","","null","0","NaN","","","","","","","","","","","","","","",""
"","S2","","html-keyboard-response","6","61494","0.0-1.0-4.0","0","0","70683","","null","","","null","0","","NaN","","","","","","","","","","","","","",""
"","response","","html-keyboard-response","7","63254","0.0-1.0-5.0-0.0","0","0","70683","","null","","","null","0","","","1","0","training","adjacent","FG","6","7","L.jpg","O.jpg","NaN","1","0","",""
"","too_slow_prompt","","html-keyboard-response","8","64262","0.0-1.0-7.0-0.0","1","0","70683","","null","","","null","","","","","","","","","","","","","","","","",""
"","time_out","","html-keyboard-response","9","66270","0.0-1.0-8.0-0.0","0","0","70683","","null","","","null","0","","","","","","","","","","","","","","","",""
"","ITI","","html-keyboard-response","10","67278","0.0-1.0-9.0","0","0","70683","","null","","","null","0","","","","","","","","","","","","","","","NaN",""
"","S1","","html-keyboard-response","11","67534","0.0-1.0-11.0","0","0","70683","","null","","","null","1","","","","","","","","","","","","","","","",""
"","ISI","","html-keyboard-response","12","68542","0.0-1.0-12.0","0","0","70683","","646","","","75","1","k","","","","","","","","","","","","","","",""
"","S2","","html-keyboard-response","13","68799","0.0-1.0-13.0","0","0","70683","","null","","","null","1","","NaN","","","","","","","","","","","","","",""
"","response","","html-keyboard-response","14","68951","0.0-1.0-14.0-0.0","0","0","70683","","148","","","75","1","","","1","1","training","adjacent","FG","6","7","L.jpg","O.jpg","1","1","1","",""
"","feedback","","html-keyboard-response","15","69959","0.0-1.0-15.0-0.0","0","0","70683","","null","","","null","1","","","","","","","","","","","","","","","",""
"","ITI","","html-keyboard-response","16","70965","0.0-1.0-18.0","0","0","70683","","null","","","null","1","","","","","","","","","","","","","","","NaN",""
"","S1","","html-keyboard-response","17","71223","0.0-1.0-20.0","0","0","70683","","null","","","null","2","","","","","","","","","","","","","","","",""
"","ISI","","html-keyboard-response","18","72231","0.0-1.0-21.0","0","0","70683","","null","","","null","2","NaN","","","","","","","","","","","","","","",""
"","S2","","html-keyboard-response","19","72486","0.0-1.0-22.0","0","0","70683","","null","","","null","2","","NaN","","","","","","","","","","","","","",""
"","response","","html-keyboard-response","20","72735","0.0-1.0-23.0-0.0","0","0","70683","","244","","","75","2","","","1","2","training","adjacent","CB","3","2","N.jpg","R.jpg","1","0","0","",""
"","feedback","","html-keyboard-response","21","73743","0.0-1.0-24.0-0.0","0","0","70683","","null","","","null","2","","","","","","","","","","","","","","","",""
"","time_out","","html-keyboard-response","22","75751","0.0-1.0-26.0-0.0","0","0","70683","","null","","","null","2","","","","","","","","","","","","","","","",""
"","ITI","","html-keyboard-response","23","76759","0.0-1.0-27.0","0","0","70683","","524","","","75","2","","","","","","","","","","","","","","","k",""
"","S1","","html-keyboard-response","24","77023","0.0-1.0-29.0","0","0","70683","","null","","","null","3","","","","","","","","","","","","","","","",""
"","ISI","","html-keyboard-response","25","78031","0.0-1.0-30.0","0","0","70683","","540","","","75","3","k","","","","","","","","","","","","","","",""
"","S2","","html-keyboard-response","26","78288","0.0-1.0-31.0","0","0","70683","","null","","","null","3","","NaN","","","","","","","","","","","","","",""
"","response","","html-keyboard-response","27","78568","0.0-1.0-32.0-0.0","0","0","70683","","276","","","75","3","","","1","3","training","adjacent","BC","2","3","R.jpg","N.jpg","1","1","1","",""
"","feedback","","html-keyboard-response","28","79574","0.0-1.0-33.0-0.0","0","0","70683","","null","","","null","3","","","","","","","","","","","","","","","",""
"","ITI","","html-keyboard-response","29","80583","0.0-1.0-36.0","0","0","70683","","null","","","null","3","","","","","","","","","","","","","","","NaN",""
"","S1","","html-keyboard-response","30","80839","0.0-1.0-38.0","0","0","70683","","null","","","null","4","","","","","","","","","","","","","","","",""
"","ISI","","html-keyboard-response","31","81847","0.0-1.0-39.0","0","0","70683","","null","","","null","4","NaN","","","","","","","","","","","","","","",""
"","S2","","html-keyboard-response","32","82111","0.0-1.0-40.0","0","0","70683","","null","","","null","4","","NaN","","","","","","","","","","","","","",""
"","response","","html-keyboard-response","33","82504","0.0-1.0-41.0-0.0","0","0","70683","","387","","","75","4","","","1","4","training","adjacent","DC","4","3","M.jpg","N.jpg","1","0","0","",""
"","feedback","","html-keyboard-response","34","83510","0.0-1.0-42.0-0.0","0","0","70683","","null","","","null","4","","","","","","","","","","","","","","","",""
"","time_out","","html-keyboard-response","35","85518","0.0-1.0-44.0-0.0","0","0","70683","","null","","","null","4","","","","","","","","","","","","","","","",""
"","ITI","","html-keyboard-response","36","86526","0.0-1.0-45.0","0","0","70683","","null","","","null","4","","","","","","","","","","","","","","","NaN",""
"","S1","","html-keyboard-response","37","86782","0.0-1.0-47.0","0","0","70683","","null","","","null","5","","","","","","","","","","","","","","","",""
"","ISI","","html-keyboard-response","38","87790","0.0-1.0-48.0","0","0","70683","","509","","","68","5","d","","","","","","","","","","","","","","",""
"","S2","","html-keyboard-response","39","88046","0.0-1.0-49.0","0","0","70683","","null","","","null","5","","NaN","","","","","","","","","","","","","",""
"","response","","html-keyboard-response","40","88183","0.0-1.0-50.0-0.0","0","0","70683","","133","","","68","5","","","1","5","training","adjacent","BA","2","1","R.jpg","P.jpg","0","0","1","",""
"","feedback","","html-keyboard-response","41","89191","0.0-1.0-51.0-0.0","0","0","70683","","null","","","null","5","","","","","","","","","","","","","","","",""
"","ITI","","html-keyboard-response","42","90197","0.0-1.0-54.0","0","0","70683","","null","","","null","5","","","","","","","","","","","","","","","NaN",""
"","S1","","html-keyboard-response","43","90454","0.0-1.0-56.0","0","0","70683","","null","","","null","6","","","","","","","","","","","","","","","",""
"","ISI","","html-keyboard-response","44","91461","0.0-1.0-57.0","0","0","70683","","null","","","null","6","NaN","","","","","","","","","","","","","","",""
"","S2","","html-keyboard-response","45","91717","0.0-1.0-58.0","0","0","70683","","null","","","null","6","","NaN","","","","","","","","","","","","","",""
"","response","","html-keyboard-response","46","92528","0.0-1.0-59.0-0.0","0","0","70683","","806","","","68","6","","","1","6","training","adjacent","GF","7","6","O.jpg","L.jpg","0","0","1","",""
"","feedback","","html-keyboard-response","47","93535","0.0-1.0-60.0-0.0","0","0","70683","","null","","","null","6","","","","","","","","","","","","","","","",""
"","ITI","","html-keyboard-response","48","94541","0.0-1.0-63.0","0","0","70683","","null","","","null","6","","","","","","","","","","","","","","","NaN",""
"","S1","","html-keyboard-response","49","94799","0.0-1.0-65.0","0","0","70683","","null","","","null","7","","","","","","","","","","","","","","","",""
"","ISI","","html-keyboard-response","50","95807","0.0-1.0-66.0","0","0","70683","","484","","","68","7","d","","","","","","","","","","","","","","",""
"","S2","","html-keyboard-response","51","96071","0.0-1.0-67.0","0","0","70683","","null","","","null","7","","NaN","","","","","","","","","","","","","",""
"","response","","html-keyboard-response","52","96287","0.0-1.0-68.0-0.0","0","0","70683","","212","","","68","7","","","1","7","training","adjacent","BA","2","1","R.jpg","P.jpg","0","0","1","",""
"","feedback","","html-keyboard-response","53","97294","0.0-1.0-69.0-0.0","0","0","70683","","null","","","null","7","","","","","","","","","","","","","","","",""
"","ITI","","html-keyboard-response","54","98303","0.0-1.0-72.0","0","0","70683","","null","","","null","7","","","","","","","","","","","","","","","NaN",""
"","S1","","html-keyboard-response","55","98559","0.0-1.0-74.0","0","0","70683","","null","","","null","8","","","","","","","","","","","","","","","",""
"","ISI","","html-keyboard-response","56","99567","0.0-1.0-75.0","0","0","70683","","null","","","null","8","NaN","","","","","","","","","","","","","","",""
"","S2","","html-keyboard-response","57","99663","0.0-1.0-76.0","0","0","70683","","92","","","75","8","","k","1","8","training","adjacent","BC","2","3","R.jpg","N.jpg","1","1","1","",""
"","feedback","","html-keyboard-response","58","100670","0.0-1.0-78.0-0.0","0","0","70683","","null","","","null","8","","","","","","","","","","","","","","","",""
"","ITI","","html-keyboard-response","59","101679","0.0-1.0-81.0","0","0","70683","","null","","","null","8","","","","","","","","","","","","","","","NaN",""
"","S1","","html-keyboard-response","60","101935","0.0-1.0-83.0","0","0","70683","","null","","","null","9","","","","","","","","","","","","","","","",""
"","ISI","","html-keyboard-response","61","102942","0.0-1.0-84.0","0","0","70683","","null","","","null","9","NaN","","","","","","","","","","","","","","",""
"","S2","","html-keyboard-response","62","103200","0.0-1.0-85.0","0","0","70683","","null","","","null","9","","NaN","","","","","","","","","","","","","",""
"","response","","html-keyboard-response","63","103246","0.0-1.0-86.0-0.0","0","0","70683","","42","","","75","9","","","1","9","training","adjacent","CD","3","4","N.jpg","M.jpg","1","1","1","",""
"","feedback","","html-keyboard-response","64","104255","0.0-1.0-87.0-0.0","0","0","70683","","null","","","null","9","","","","","","","","","","","","","","","",""
"","ITI","","html-keyboard-response","65","105263","0.0-1.0-90.0","0","0","70683","","null","","","null","9","","","","","","","","","","","","","","","NaN",""
"","S1","","html-keyboard-response","66","105518","0.0-1.0-92.0","0","0","70683","","null","","","null","10","","","","","","","","","","","","","","","",""
"","ISI","","html-keyboard-response","67","106527","0.0-1.0-93.0","0","0","70683","","null","","","null","10","NaN","","","","","","","","","","","","","","",""
"","S2","","html-keyboard-response","68","106798","0.0-1.0-94.0","0","0","70683","","null","","","null","10","","NaN","","","","","","","","","","","","","",""
"","response","","html-keyboard-response","69","106871","0.0-1.0-95.0-0.0","0","0","70683","","67","","","68","10","","","1","10","training","adjacent","GF","7","6","O.jpg","L.jpg","0","0","1","",""
"","feedback","","html-keyboard-response","70","107880","0.0-1.0-96.0-0.0","0","0","70683","","null","","","null","10","","","","","","","","","","","","","","","",""
"","ITI","","html-keyboard-response","71","108887","0.0-1.0-99.0","0","0","70683","","null","","","null","10","","","","","","","","","","","","","","","NaN",""
"","S1","","html-keyboard-response","72","109150","0.0-1.0-101.0","0","0","70683","","null","","","null","11","","","","","","","","","","","","","","","",""
"","ISI","","html-keyboard-response","73","110157","0.0-1.0-102.0","0","0","70683","","804","","","68","11","d","","","","","","","","","","","","","","",""
"","S2","","html-keyboard-response","74","110414","0.0-1.0-103.0","0","0","70683","","null","","","null","11","","NaN","","","","","","","","","","","","","",""
"","response","","html-keyboard-response","75","110558","0.0-1.0-104.0-0.0","0","0","70683","","140","","","68","11","","","1","11","training","adjacent","EF","5","6","Q.jpg","L.jpg","0","1","0","",""
"","feedback","","html-keyboard-response","76","111566","0.0-1.0-105.0-0.0","0","0","70683","","null","","","null","11","","","","","","","","","","","","","","","",""
"","time_out","","html-keyboard-response","77","113573","0.0-1.0-107.0-0.0","0","0","70683","","null","","","null","11","","","","","","","","","","","","","","","",""
"","ITI","","html-keyboard-response","78","114582","0.0-1.0-108.0","0","0","70683","","null","","","null","11","","","","","","","","","","","","","","","NaN",""
"","S1","","html-keyboard-response","79","114839","0.0-1.0-110.0","0","0","70683","","null","","","null","12","","","","","","","","","","","","","","","",""
"","ISI","","html-keyboard-response","80","115845","0.0-1.0-111.0","0","0","70683","","null","","","null","12","NaN","","","","","","","","","","","","","","",""
"","S2","","html-keyboard-response","81","116102","0.0-1.0-112.0","0","0","70683","","null","","","null","12","","NaN","","","","","","","","","","","","","",""
"","response","","html-keyboard-response","82","116167","0.0-1.0-113.0-0.0","0","0","70683","","60","","","75","12","","","1","12","training","adjacent","DE","4","5","M.jpg","Q.jpg","1","1","1","",""
"","feedback","","html-keyboard-response","83","117174","0.0-1.0-114.0-0.0","0","0","70683","","null","","","null","12","","","","","","","","","","","","","","","",""
"","ITI","","html-keyboard-response","84","118183","0.0-1.0-117.0","0","0","70683","","null","","","null","12","","","","","","","","","","","","","","","NaN",""
"","S1","","html-keyboard-response","85","118438","0.0-1.0-119.0","0","0","70683","","null","","","null","13","","","","","","","","","","","","","","","",""
"","ISI","","html-keyboard-response","86","119447","0.0-1.0-120.0","0","0","70683","","null","","","null","13","NaN","","","","","","","","","","","","","","",""
"","S2","","html-keyboard-response","87","119702","0.0-1.0-121.0","0","0","70683","","null","","","null","13","","NaN","","","","","","","","","","","","","",""
"","response","","html-keyboard-response","88","120312","0.0-1.0-122.0-0.0","0","0","70683","","605","","","68","13","","","1","13","training","adjacent","GF","7","6","O.jpg","L.jpg","0","0","1","",""
"","feedback","","html-keyboard-response","89","121319","0.0-1.0-123.0-0.0","0","0","70683","","null","","","null","13","","","","","","","","","","","","","","","",""
"","ITI","","html-keyboard-response","90","122327","0.0-1.0-126.0","0","0","70683","","null","","","null","13","","","","","","","","","","","","","","","NaN",""
"","S1","","html-keyboard-response","91","122583","0.0-1.0-128.0","0","0","70683","","null","","","null","14","","","","","","","","","","","","","","","",""
"","ISI","","html-keyboard-response","92","123592","0.0-1.0-129.0","0","0","70683","","null","","","null","14","NaN","","","","","","","","","","","","","","",""
"","S2","","html-keyboard-response","93","123847","0.0-1.0-130.0","0","0","70683","","null","","","null","14","","NaN","","","","","","","","","","","","","",""
"","response","","html-keyboard-response","94","124359","0.0-1.0-131.0-0.0","0","0","70683","","508","","","75","14","","","1","14","training","adjacent","EF","5","6","Q.jpg","L.jpg","1","1","1","",""
"","feedback","","html-keyboard-response","95","125367","0.0-1.0-132.0-0.0","0","0","70683","","null","","","null","14","","","","","","","","","","","","","","","",""
"","ITI","","html-keyboard-response","96","126374","0.0-1.0-135.0","0","0","70683","","null","","","null","14","","","","","","","","","","","","","","","NaN",""
"","S1","","html-keyboard-response","97","126632","0.0-1.0-137.0","0","0","70683","","null","","","null","15","","","","","","","","","","","","","","","",""
"","ISI","","html-keyboard-response","98","127639","0.0-1.0-138.0","0","0","70683","","null","","","null","15","NaN","","","","","","","","","","","","","","",""
"","S2","","html-keyboard-response","99","127895","0.0-1.0-139.0","0","0","70683","","null","","","null","15","","NaN","","","","","","","","","","","","","",""
"","response","","html-keyboard-response","100","128400","0.0-1.0-140.0-0.0","0","0","70683","","499","","","68","15","","","1","15","training","adjacent","DC","4","3","M.jpg","N.jpg","0","0","1","",""
"","feedback","","html-keyboard-response","101","129407","0.0-1.0-141.0-0.0","0","0","70683","","null","","","null","15","","","","","","","","","","","","","","","",""
"","ITI","","html-keyboard-response","102","130415","0.0-1.0-144.0","0","0","70683","","null","","","null","15","","","","","","","","","","","","","","","NaN",""
"","S1","","html-keyboard-response","103","130672","0.0-1.0-146.0","0","0","70683","","null","","","null","16","","","","","","","","","","","","","","","",""
"","ISI","","html-keyboard-response","104","131678","0.0-1.0-147.0","0","0","70683","","null","","","null","16","NaN","","","","","","","","","","","","","","",""
"","S2","","html-keyboard-response","105","131936","0.0-1.0-148.0","0","0","70683","","null","","","null","16","","NaN","","","","","","","","","","","","","",""
"","response","","html-keyboard-response","106","132543","0.0-1.0-149.0-0.0","0","0","70683","","603","","","75","16","","","1","16","training","adjacent","EF","5","6","Q.jpg","L.jpg","1","1","1","",""
"","feedback","","html-keyboard-response","107","133550","0.0-1.0-150.0-0.0","0","0","70683","","null","","","null","16","","","","","","","","","","","","","","","",""
"","ITI","","html-keyboard-response","108","134559","0.0-1.0-153.0","0","0","70683","","null","","","null","16","","","","","","","","","","","","","","","NaN",""
"","S1","","html-keyboard-response","109","134815","0.0-1.0-155.0","0","0","70683","","null","","","null","17","","","","","","","","","","","","","","","",""
"","ISI","","html-keyboard-response","110","135822","0.0-1.0-156.0","0","0","70683","","null","","","null","17","NaN","","","","","","","","","","","","","","",""
"","S2","","html-keyboard-response","111","136079","0.0-1.0-157.0","0","0","70683","","null","","","null","17","","NaN","","","","","","","","","","","","","",""
"","response","","html-keyboard-response","112","136278","0.0-1.0-158.0-0.0","0","0","70683","","194","","","75","17","","","1","17","training","adjacent","ED","5","4","Q.jpg","M.jpg","1","0","0","",""
"","feedback","","html-keyboard-response","113","137287","0.0-1.0-159.0-0.0","0","0","70683","","null","","","null","17","","","","","","","","","","","","","","","",""
"","time_out","","html-keyboard-response","114","139295","0.0-1.0-161.0-0.0","0","0","70683","","null","","","null","17","","","","","","","","","","","","","","","",""
"","ITI","","html-keyboard-response","115","140302","0.0-1.0-162.0","0","0","70683","","null","","","null","17","","","","","","","","","","","","","","","NaN",""
"","S1","","html-keyboard-response","116","140558","0.0-1.0-164.0","0","0","70683","","null","","","null","18","","","","","","","","","","","","","","","",""
"","ISI","","html-keyboard-response","117","141567","0.0-1.0-165.0","0","0","70683","","269","","","68","18","d","","","","","","","","","","","","","","",""
"","S2","","html-keyboard-response","118","141648","0.0-1.0-166.0","0","0","70683","","76","","","68","18","","d","1","18","training","adjacent","FG","6","7","L.jpg","O.jpg","0","1","0","",""
"","feedback","","html-keyboard-response","119","142655","0.0-1.0-168.0-0.0","0","0","70683","","null","","","null","18","","","","","","","","","","","","","","","",""
"","time_out","","html-keyboard-response","120","144663","0.0-1.0-170.0-0.0","0","0","70683","","null","","","null","18","","","","","","","","","","","","","","","",""
"","ITI","","html-keyboard-response","121","145672","0.0-1.0-171.0","0","0","70683","","null","","","null","18","","","","","","","","","","","","","","","NaN",""
"","S1","","html-keyboard-response","122","145927","0.0-1.0-173.0","0","0","70683","","null","","","null","19","","","","","","","","","","","","","","","",""
"","ISI","","html-keyboard-response","123","146935","0.0-1.0-174.0","0","0","70683","","null","","","null","19","NaN","","","","","","","","","","","","","","",""
"","S2","","html-keyboard-response","124","147198","0.0-1.0-175.0","0","0","70683","","null","","","null","19","","NaN","","","","","","","","","","","","","",""
"","response","","html-keyboard-response","125","147270","0.0-1.0-176.0-0.0","0","0","70683","","68","","","75","19","","","1","19","training","adjacent","BA","2","1","R.jpg","P.jpg","1","0","0","",""
"","feedback","","html-keyboard-response","126","148279","0.0-1.0-177.0-0.0","0","0","70683","","null","","","null","19","","","","","","","","","","","","","","","",""
"","time_out","","html-keyboard-response","127","150288","0.0-1.0-179.0-0.0","0","0","70683","","null","","","null","19","","","","","","","","","","","","","","","",""
"","ITI","","html-keyboard-response","128","151294","0.0-1.0-180.0","0","0","70683","","null","","","null","19","","","","","","","","","","","","","","","NaN",""
"","S1","","html-keyboard-response","129","151552","0.0-1.0-182.0","0","0","70683","","null","","","null","20","","","","","","","","","","","","","","","",""
"","ISI","","html-keyboard-response","130","152560","0.0-1.0-183.0","0","0","70683","","null","","","null","20","NaN","","","","","","","","","","","","","","",""
"","S2","","html-keyboard-response","131","152815","0.0-1.0-184.0","0","0","70683","","null","","","null","20","","NaN","","","","","","","","","","","","","",""
"","response","","html-keyboard-response","132","154574","0.0-1.0-185.0-0.0","0","0","70683","","null","","","null","20","","","1","20","training","adjacent","FE","6","5","L.jpg","Q.jpg","NaN","0","0","",""
"","too_slow_prompt","","html-keyboard-response","133","155583","0.0-1.0-187.0-0.0","1","0","70683","","null","","","null","","","","","","","","","","","","","","","","",""
"","time_out","","html-keyboard-response","134","157591","0.0-1.0-188.0-0.0","0","0","70683","","null","","","null","20","","","","","","","","","","","","","","","",""
"","ITI","","html-keyboard-response","135","158597","0.0-1.0-189.0","0","0","70683","","null","","","null","20","","","","","","","","","","","","","","","NaN",""
"","S1","","html-keyboard-response","136","158854","0.0-1.0-191.0","0","0","70683","","null","","","null","21","","","","","","","","","","","","","","","",""
"","ISI","","html-keyboard-response","137","159862","0.0-1.0-192.0","0","0","70683","","null","","","null","21","NaN","","","","","","","","","","","","","","",""
"","S2","","html-keyboard-response","138","160119","0.0-1.0-193.0","0","0","70683","","null","","","null","21","","NaN","","","","","","","","","","","","","",""
"","response","","html-keyboard-response","139","160646","0.0-1.0-194.0-0.0","0","0","70683","","524","","","68","21","","","1","21","training","adjacent","FE","6","5","L.jpg","Q.jpg","0","0","1","",""
"","feedback","","html-keyboard-response","140","161655","0.0-1.0-195.0-0.0","0","0","70683","","null","","","null","21","","","","","","","","","","","","","","","",""
"","ITI","","html-keyboard-response","141","162662","0.0-1.0-198.0","0","0","70683","","null","","","null","21","","","","","","","","","","","","","","","NaN",""
"","S1","","html-keyboard-response","142","162919","0.0-1.0-200.0","0","0","70683","","null","","","null","22","","","","","","","","","","","","","","","",""
"","ISI","","html-keyboard-response","143","163927","0.0-1.0-201.0","0","0","70683","","null","","","null","22","NaN","","","","","","","","","","","","","","",""
"","S2","","html-keyboard-response","144","164184","0.0-1.0-202.0","0","0","70683","","null","","","null","22","","NaN","","","","","","","","","","","","","",""
"","response","","html-keyboard-response","145","165062","0.0-1.0-203.0-0.0","0","0","70683","","874","","","68","22","","","1","22","training","adjacent","BA","2","1","R.jpg","P.jpg","0","0","1","",""
"","feedback","","html-keyboard-response","146","166070","0.0-1.0-204.0-0.0","0","0","70683","","null","","","null","22","","","","","","","","","","","","","","","",""
"","ITI","","html-keyboard-response","147","167079","0.0-1.0-207.0","0","0","70683","","null","","","null","22","","","","","","","","","","","","","","","NaN",""
"","S1","","html-keyboard-response","148","167334","0.0-1.0-209.0","0","0","70683","","null","","","null","23","","","","","","","","","","","","","","","",""
"","ISI","","html-keyboard-response","149","168343","0.0-1.0-210.0","0","0","70683","","469","","","68","23","d","","","","","","","","","","","","","","",""
"","S2","","html-keyboard-response","150","168600","0.0-1.0-211.0","0","0","70683","","null","","","null","23","","NaN","","","","","","","","","","","","","",""
"","response","","html-keyboard-response","151","168686","0.0-1.0-212.0-0.0","0","0","70683","","83","","","68","23","","","1","23","training","adjacent","AB","1","2","P.jpg","R.jpg","0","1","0","",""
"","feedback","","html-keyboard-response","152","169696","0.0-1.0-213.0-0.0","0","0","70683","","null","","","null","23","","","","","","","","","","","","","","","",""
"","time_out","","html-keyboard-response","153","171703","0.0-1.0-215.0-0.0","0","0","70683","","null","","","null","23","","","","","","","","","","","","","","","",""
"","ITI","","html-keyboard-response","154","172712","0.0-1.0-216.0","0","0","70683","","null","","","null","23","","","","","","","","","","","","","","","NaN",""
"","S1","","html-keyboard-response","155","172975","0.0-1.0-218.0","0","0","70683","","null","","","null","24","","","","","","","","","","","","","","","",""
"","ISI","","html-keyboard-response","156","173983","0.0-1.0-219.0","0","0","70683","","null","","","null","24","NaN","","","","","","","","","","","","","","",""
"","S2","","html-keyboard-response","157","173999","0.0-1.0-220.0","0","0","70683","","11","","","75","24","","k","1","24","training","adjacent","ED","5","4","Q.jpg","M.jpg","1","0","0","",""
"","feedback","","html-keyboard-response","158","175007","0.0-1.0-222.0-0.0","0","0","70683","","null","","","null","24","","","","","","","","","","","","","","","",""
"","time_out","","html-keyboard-response","159","177016","0.0-1.0-224.0-0.0","0","0","70683","","null","","","null","24","","","","","","","","","","","","","","","",""
"","ITI","","html-keyboard-response","160","178025","0.0-1.0-225.0","0","0","70683","","null","","","null","24","","","","","","","","","","","","","","","NaN",""
"","S1","","html-keyboard-response","161","178289","0.0-1.0-227.0","0","0","70683","","null","","","null","25","","","","","","","","","","","","","","","",""
"","ISI","","html-keyboard-response","162","179298","0.0-1.0-228.0","0","0","70683","","362","","","68","25","d","","","","","","","","","","","","","","",""
"","S2","","html-keyboard-response","163","179560","0.0-1.0-229.0","0","0","70683","","null","","","null","25","","NaN","","","","","","","","","","","","","",""
"","response","","html-keyboard-response","164","179696","0.0-1.0-230.0-0.0","0","0","70683","","131","","","68","25","","","1","25","training","adjacent","ED","5","4","Q.jpg","M.jpg","0","0","1","",""
"","feedback","","html-keyboard-response","165","180705","0.0-1.0-231.0-0.0","0","0","70683","","null","","","null","25","","","","","","","","","","","","","","","",""
"","ITI","","html-keyboard-response","166","181713","0.0-1.0-234.0","0","0","70683","","null","","","null","25","","","","","","","","","","","","","","","NaN",""
"","S1","","html-keyboard-response","167","181977","0.0-1.0-236.0","0","0","70683","","null","","","null","26","","","","","","","","","","","","","","","",""
"","ISI","","html-keyboard-response","168","182984","0.0-1.0-237.0","0","0","70683","","null","","","null","26","NaN","","","","","","","","","","","","","","",""
"","S2","","html-keyboard-response","169","183241","0.0-1.0-238.0","0","0","70683","","null","","","null","26","","NaN","","","","","","","","","","","","","",""
"","response","","html-keyboard-response","170","183631","0.0-1.0-239.0-0.0","0","0","70683","","387","","","68","26","","","1","26","training","adjacent","GF","7","6","O.jpg","L.jpg","0","0","1","",""
"","feedback","","html-keyboard-response","171","184640","0.0-1.0-240.0-0.0","0","0","70683","","null","","","null","26","","","","","","","","","","","","","","","",""
"","ITI","","html-keyboard-response","172","185648","0.0-1.0-243.0","0","0","70683","","null","","","null","26","","","","","","","","","","","","","","","NaN",""
"","S1","","html-keyboard-response","173","185904","0.0-1.0-245.0","0","0","70683","","null","","","null","27","","","","","","","","","","","","","","","",""
"","ISI","","html-keyboard-response","174","186912","0.0-1.0-246.0","0","0","70683","","323","","","68","27","d","","","","","","","","","","","","","","",""
"","S2","","html-keyboard-response","175","187168","0.0-1.0-247.0","0","0","70683","","null","","","null","27","","NaN","","","","","","","","","","","","","",""
"","response","","html-keyboard-response","176","187279","0.0-1.0-248.0-0.0","0","0","70683","","107","","","68","27","","","1","27","training","adjacent","CD","3","4","N.jpg","M.jpg","0","1","0","",""
"","feedback","","html-keyboard-response","177","188287","0.0-1.0-249.0-0.0","0","0","70683","","null","","","null","27","","","","","","","","","","","","","","","",""
"","time_out","","html-keyboard-response","178","190296","0.0-1.0-251.0-0.0","0","0","70683","","null","","","null","27","","","","","","","","","","","","","","","",""
"","ITI","","html-keyboard-response","179","191304","0.0-1.0-252.0","0","0","70683","","null","","","null","27","","","","","","","","","","","","","","","NaN",""
"","S1","","html-keyboard-response","180","191560","0.0-1.0-254.0","0","0","70683","","null","","","null","28","","","","","","","","","","","","","","","",""
"","ISI","","html-keyboard-response","181","192568","0.0-1.0-255.0","0","0","70683","","91","","","68","28","d","","","","","","","","","","","","","","",""
"","S2","","html-keyboard-response","182","192823","0.0-1.0-256.0","0","0","70683","","null","","","null","28","","NaN","","","","","","","","","","","","","",""
"","response","","html-keyboard-response","183","192967","0.0-1.0-257.0-0.0","0","0","70683","","140","","","68","28","","","1","28","training","adjacent","AB","1","2","P.jpg","R.jpg","0","1","0","",""
"","feedback","","html-keyboard-response","184","193976","0.0-1.0-258.0-0.0","0","0","70683","","null","","","null","28","","","","","","","","","","","","","","","",""
"","time_out","","html-keyboard-response","185","195985","0.0-1.0-260.0-0.0","0","0","70683","","null","","","null","28","","","","","","","","","","","","","","","",""
"","ITI","","html-keyboard-response","186","196992","0.0-1.0-261.0","0","0","70683","","null","","","null","28","","","","","","","","","","","","","","","NaN",""
"","S1","","html-keyboard-response","187","197248","0.0-1.0-263.0","0","0","70683","","null","","","null","29","","","","","","","","","","","","","","","",""
"","ISI","","html-keyboard-response","188","198257","0.0-1.0-264.0","0","0","70683","","235","","","75","29","k","","","","","","","","","","","","","","",""
"","S2","","html-keyboard-response","189","198359","0.0-1.0-265.0","0","0","70683","","97","","","75","29","","k","1","29","training","adjacent","CB","3","2","N.jpg","R.jpg","1","0","0","",""
"","feedback","","html-keyboard-response","190","199369","0.0-1.0-267.0-0.0","0","0","70683","","null","","","null","29","","","","","","","","","","","","","","","",""
"","time_out","","html-keyboard-response","191","201375","0.0-1.0-269.0-0.0","0","0","70683","","null","","","null","29","","","","","","","","","","","","","","","",""
"","ITI","","html-keyboard-response","192","202385","0.0-1.0-270.0","0","0","70683","","null","","","null","29","","","","","","","","","","","","","","","NaN",""
"","S1","","html-keyboard-response","193","202648","0.0-1.0-272.0","0","0","70683","","null","","","null","30","","","","","","","","","","","","","","","",""
"","ISI","","html-keyboard-response","194","203657","0.0-1.0-273.0","0","0","70683","","443","","","75","30","k","","","","","","","","","","","","","","",""
"","S2","","html-keyboard-response","195","203912","0.0-1.0-274.0","0","0","70683","","null","","","null","30","","NaN","","","","","","","","","","","","","",""
"","response","","html-keyboard-response","196","204591","0.0-1.0-275.0-0.0","0","0","70683","","675","","","75","30","","","1","30","training","adjacent","EF","5","6","Q.jpg","L.jpg","1","1","1","",""
"","feedback","","html-keyboard-response","197","205600","0.0-1.0-276.0-0.0","0","0","70683","","null","","","null","30","","","","","","","","","","","","","","","",""
"","ITI","","html-keyboard-response","198","206609","0.0-1.0-279.0","0","0","70683","","null","","","null","30","","","","","","","","","","","","","","","NaN",""
"","S1","","html-keyboard-response","199","206872","0.0-1.0-281.0","0","0","70683","","null","","","null","31","","","","","","","","","","","","","","","",""
"","ISI","","html-keyboard-response","200","207879","0.0-1.0-282.0","0","0","70683","","null","","","null","31","NaN","","","","","","","","","","","","","","",""
"","S2","","html-keyboard-response","201","208137","0.0-1.0-283.0","0","0","70683","","null","","","null","31","","NaN","","","","","","","","","","","","","",""
"","response","","html-keyboard-response","202","208535","0.0-1.0-284.0-0.0","0","0","70683","","394","","","75","31","","","1","31","training","adjacent","FE","6","5","L.jpg","Q.jpg","1","0","0","",""
"","feedback","","html-keyboard-response","203","209544","0.0-1.0-285.0-0.0","0","0","70683","","null","","","null","31","","","","","","","","","","","","","","","",""
"","time_out","","html-keyboard-response","204","211551","0.0-1.0-287.0-0.0","0","0","70683","","null","","","null","31","","","","","","","","","","","","","","","",""
"","ITI","","html-keyboard-response","205","212560","0.0-1.0-288.0","0","0","70683","","395","","","75","31","","","","","","","","","","","","","","","k",""
"","S1","","html-keyboard-response","206","212816","0.0-1.0-290.0","0","0","70683","","null","","","null","32","","","","","","","","","","","","","","","",""
"","ISI","","html-keyboard-response","207","213824","0.0-1.0-291.0","0","0","70683","","123","","","75","32","k","","","","","","","","","","","","","","",""
"","S2","","html-keyboard-response","208","214080","0.0-1.0-292.0","0","0","70683","","null","","","null","32","","NaN","","","","","","","","","","","","","",""
"","response","","html-keyboard-response","209","214128","0.0-1.0-293.0-0.0","0","0","70683","","43","","","75","32","","","1","32","training","adjacent","FE","6","5","L.jpg","Q.jpg","1","0","0","",""
"","feedback","","html-keyboard-response","210","215136","0.0-1.0-294.0-0.0","0","0","70683","","null","","","null","32","","","","","","","","","","","","","","","",""
"","time_out","","html-keyboard-response","211","217145","0.0-1.0-296.0-0.0","0","0","70683","","null","","","null","32","","","","","","","","","","","","","","","",""
"","ITI","","html-keyboard-response","212","218153","0.0-1.0-297.0","0","0","70683","","null","","","null","32","","","","","","","","","","","","","","","NaN",""
"","S1","","html-keyboard-response","213","218418","0.0-1.0-299.0","0","0","70683","","null","","","null","33","","","","","","","","","","","","","","","",""
"","ISI","","html-keyboard-response","214","219425","0.0-1.0-300.0","0","0","70683","","297","","","75","33","k","","","","","","","","","","","","","","",""
"","S2","","html-keyboard-response","215","219689","0.0-1.0-301.0","0","0","70683","","null","","","null","33","","NaN","","","","","","","","","","","","","",""
"","response","","html-keyboard-response","216","220415","0.0-1.0-302.0-0.0","0","0","70683","","722","","","68","33","","","1","33","training","adjacent","DE","4","5","M.jpg","Q.jpg","0","1","0","",""
"","feedback","","html-keyboard-response","217","221424","0.0-1.0-303.0-0.0","0","0","70683","","null","","","null","33","","","","","","","","","","","","","","","",""
"","time_out","","html-keyboard-response","218","223433","0.0-1.0-305.0-0.0","0","0","70683","","null","","","null","33","","","","","","","","","","","","","","","",""
"","ITI","","html-keyboard-response","219","224440","0.0-1.0-306.0","0","0","70683","","null","","","null","33","","","","","","","","","","","","","","","NaN",""
"","S1","","html-keyboard-response","220","224697","0.0-1.0-308.0","0","0","70683","","null","","","null","34","","","","","","","","","","","","","","","",""
"","ISI","","html-keyboard-response","221","225705","0.0-1.0-309.0","0","0","70683","","null","","","null","34","NaN","","","","","","","","","","","","","","",""
"","S2","","html-keyboard-response","222","225960","0.0-1.0-310.0","0","0","70683","","null","","","null","34","","NaN","","","","","","","","","","","","","",""
"","response","","html-keyboard-response","223","226560","0.0-1.0-311.0-0.0","0","0","70683","","595","","","75","34","","","1","34","training","adjacent","FG","6","7","L.jpg","O.jpg","1","1","1","",""
"","feedback","","html-keyboard-response","224","227569","0.0-1.0-312.0-0.0","0","0","70683","","null","","","null","34","","","","","","","","","","","","","","","",""
"","ITI","","html-keyboard-response","225","228577","0.0-1.0-315.0","0","0","70683","","null","","","null","34","","","","","","","","","","","","","","","NaN",""
"","S1","","html-keyboard-response","226","228840","0.0-1.0-317.0","0","0","70683","","null","","","null","35","","","","","","","","","","","","","","","",""
"","ISI","","html-keyboard-response","227","229849","0.0-1.0-318.0","0","0","70683","","null","","","null","35","NaN","","","","","","","","","","","","","","",""
"","S2","","html-keyboard-response","228","230113","0.0-1.0-319.0","0","0","70683","","null","","","null","35","","NaN","","","","","","","","","","","","","",""
"","response","","html-keyboard-response","229","230368","0.0-1.0-320.0-0.0","0","0","70683","","251","","","75","35","","","1","35","training","adjacent","CB","3","2","N.jpg","R.jpg","1","0","0","",""
"","feedback","","html-keyboard-response","230","231377","0.0-1.0-321.0-0.0","0","0","70683","","null","","","null","35","","","","","","","","","","","","","","","",""
"","time_out","","html-keyboard-response","231","233386","0.0-1.0-323.0-0.0","0","0","70683","","null","","","null","35","","","","","","","","","","","","","","","",""
"","ITI","","html-keyboard-response","232","234392","0.0-1.0-324.0","0","0","70683","","null","","","null","35","","","","","","","","","","","","","","","NaN",""
"","S1","","html-keyboard-response","233","234648","0.0-1.0-326.0","0","0","70683","","null","","","null","36","","","","","","","","","","","","","","","",""
"","ISI","","html-keyboard-response","234","235656","0.0-1.0-327.0","0","0","70683","","null","","","null","36","NaN","","","","","","","","","","","","","","",""
"","S2","","html-keyboard-response","235","235911","0.0-1.0-328.0","0","0","70683","","null","","","null","36","","NaN","","","","","","","","","","","","","",""
"","response","","html-keyboard-response","236","235936","0.0-1.0-329.0-0.0","0","0","70683","","21","","","75","36","","","1","36","training","adjacent","CD","3","4","N.jpg","M.jpg","1","1","1","",""
"","feedback","","html-keyboard-response","237","236945","0.0-1.0-330.0-0.0","0","0","70683","","null","","","null","36","","","","","","","","","","","","","","","",""
"","ITI","","html-keyboard-response","238","237953","0.0-1.0-333.0","0","0","70683","","null","","","null","36","","","","","","","","","","","","","","","NaN",""
"","S1","","html-keyboard-response","239","238217","0.0-1.0-335.0","0","0","70683","","null","","","null","37","","","","","","","","","","","","","","","",""
"","ISI","","html-keyboard-response","240","239225","0.0-1.0-336.0","0","0","70683","","null","","","null","37","NaN","","","","","","","","","","","","","","",""
"","S2","","html-keyboard-response","241","239481","0.0-1.0-337.0","0","0","70683","","null","","","null","37","","NaN","","","","","","","","","","","","","",""
"","response","","html-keyboard-response","242","241241","0.0-1.0-338.0-0.0","0","0","70683","","null","","","null","37","","","1","37","training","adjacent","CB","3","2","N.jpg","R.jpg","NaN","0","0","",""
"","too_slow_prompt","","html-keyboard-response","243","242248","0.0-1.0-340.0-0.0","1","0","70683","","null","","","null","","","","","","","","","","","","","","","","",""
"","time_out","","html-keyboard-response","244","244257","0.0-1.0-341.0-0.0","0","0","70683","","null","","","null","37","","","","","","","","","","","","","","","",""
"","ITI","","html-keyboard-response","245","245265","0.0-1.0-342.0","0","0","70683","","null","","","null","37","","","","","","","","","","","","","","","NaN",""
"","S1","","html-keyboard-response","246","245520","0.0-1.0-344.0","0","0","70683","","null","","","null","38","","","","","","","","","","","","","","","",""
"","ISI","","html-keyboard-response","247","246530","0.0-1.0-345.0","0","0","70683","","null","","","null","38","NaN","","","","","","","","","","","","","","",""
"","S2","","html-keyboard-response","248","246793","0.0-1.0-346.0","0","0","70683","","null","","","null","38","","NaN","","","","","","","","","","","","","",""
"","response","","html-keyboard-response","249","247327","0.0-1.0-347.0-0.0","0","0","70683","","530","","","75","38","","","1","38","training","adjacent","AB","1","2","P.jpg","R.jpg","1","1","1","",""
"","feedback","","html-keyboard-response","250","248336","0.0-1.0-348.0-0.0","0","0","70683","","null","","","null","38","","","","","","","","","","","","","","","",""
"","ITI","","html-keyboard-response","251","249346","0.0-1.0-351.0","0","0","70683","","null","","","null","38","","","","","","","","","","","","","","","NaN",""
"","S1","","html-keyboard-response","252","249609","0.0-1.0-353.0","0","0","70683","","null","","","null","39","","","","","","","","","","","","","","","",""
"","ISI","","html-keyboard-response","253","250619","0.0-1.0-354.0","0","0","70683","","null","","","null","39","NaN","","","","","","","","","","","","","","",""
"","S2","","html-keyboard-response","254","250881","0.0-1.0-355.0","0","0","70683","","null","","","null","39","","NaN","","","","","","","","","","","","","",""
"","response","","html-keyboard-response","255","251360","0.0-1.0-356.0-0.0","0","0","70683","","475","","","68","39","","","1","39","training","adjacent","BC","2","3","R.jpg","N.jpg","0","1","0","",""
"","feedback","","html-keyboard-response","256","252370","0.0-1.0-357.0-0.0","0","0","70683","","null","","","null","39","","","","","","","","","","","","","","","",""
"","time_out","","html-keyboard-response","257","254378","0.0-1.0-359.0-0.0","0","0","70683","","null","","","null","39","","","","","","","","","","","","","","","",""
"","ITI","","html-keyboard-response","258","255386","0.0-1.0-360.0","0","0","70683","","null","","","null","39","","","","","","","","","","","","","","","NaN",""
"","S1","","html-keyboard-response","259","255641","0.0-1.0-362.0","0","0","70683","","null","","","null","40","","","","","","","","","","","","","","","",""
"","ISI","","html-keyboard-response","260","256650","0.0-1.0-363.0","0","0","70683","","null","","","null","40","NaN","","","","","","","","","","","","","","",""
"","S2","","html-keyboard-response","261","256906","0.0-1.0-364.0","0","0","70683","","null","","","null","40","","NaN","","","","","","","","","","","","","",""
"","response","","html-keyboard-response","262","257231","0.0-1.0-365.0-0.0","0","0","70683","","321","","","68","40","","","1","40","training","adjacent","CD","3","4","N.jpg","M.jpg","0","1","0","",""
"","feedback","","html-keyboard-response","263","258240","0.0-1.0-366.0-0.0","0","0","70683","","null","","","null","40","","","","","","","","","","","","","","","",""
"","time_out","","html-keyboard-response","264","260249","0.0-1.0-368.0-0.0","0","0","70683","","null","","","null","40","","","","","","","","","","","","","","","",""
"","ITI","","html-keyboard-response","265","261257","0.0-1.0-369.0","0","0","70683","","null","","","null","40","","","","","","","","","","","","","","","NaN",""
"","S1","","html-keyboard-response","266","261513","0.0-1.0-371.0","0","0","70683","","null","","","null","41","","","","","","","","","","","","","","","",""
"","ISI","","html-keyboard-response","267","262521","0.0-1.0-372.0","0","0","70683","","null","","","null","41","NaN","","","","","","","","","","","","","","",""
"","S2","","html-keyboard-response","268","262778","0.0-1.0-373.0","0","0","70683","","null","","","null","41","","NaN","","","","","","","","","","","","","",""
"","response","","html-keyboard-response","269","263286","0.0-1.0-374.0-0.0","0","0","70683","","503","","","75","41","","","1","41","training","adjacent","ED","5","4","Q.jpg","M.jpg","1","0","0","",""
"","feedback","","html-keyboard-response","270","264297","0.0-1.0-375.0-0.0","0","0","70683","","null","","","null","41","","","","","","","","","","","","","","","",""
"","time_out","","html-keyboard-response","271","266305","0.0-1.0-377.0-0.0","0","0","70683","","null","","","null","41","","","","","","","","","","","","","","","",""
"","ITI","","html-keyboard-response","272","267313","0.0-1.0-378.0","0","0","70683","","null","","","null","41","","","","","","","","","","","","","","","NaN",""
"","S1","","html-keyboard-response","273","267569","0.0-1.0-380.0","0","0","70683","","null","","","null","42","","","","","","","","","","","","","","","",""
"","ISI","","html-keyboard-response","274","268576","0.0-1.0-381.0","0","0","70683","","234","","","75","42","k","","","","","","","","","","","","","","",""
"","S2","","html-keyboard-response","275","268742","0.0-1.0-382.0","0","0","70683","","163","","","75","42","","k","1","42","training","adjacent","BC","2","3","R.jpg","N.jpg","1","1","1","",""
"","feedback","","html-keyboard-response","276","269753","0.0-1.0-384.0-0.0","0","0","70683","","null","","","null","42","","","","","","","","","","","","","","","",""
"","ITI","","html-keyboard-response","277","270761","0.0-1.0-387.0","0","0","70683","","null","","","null","42","","","","","","","","","","","","","","","NaN",""
"","S1","","html-keyboard-response","278","271016","0.0-1.0-389.0","0","0","70683","","null","","","null","43","","","","","","","","","","","","","","","",""
"","ISI","","html-keyboard-response","279","272024","0.0-1.0-390.0","0","0","70683","","null","","","null","43","NaN","","","","","","","","","","","","","","",""
"","S2","","html-keyboard-response","280","272280","0.0-1.0-391.0","0","0","70683","","null","","","null","43","","NaN","","","","","","","","","","","","","",""
"","response","","html-keyboard-response","281","272902","0.0-1.0-392.0-0.0","0","0","70683","","618","","","75","43","","","1","43","training","adjacent","DE","4","5","M.jpg","Q.jpg","1","1","1","",""
"","feedback","","html-keyboard-response","282","273912","0.0-1.0-393.0-0.0","0","0","70683","","null","","","null","43","","","","","","","","","","","","","","","",""
"","ITI","","html-keyboard-response","283","274921","0.0-1.0-396.0","0","0","70683","","null","","","null","43","","","","","","","","","","","","","","","NaN",""
"","S1","","html-keyboard-response","284","275177","0.0-1.0-398.0","0","0","70683","","null","","","null","44","","","","","","","","","","","","","","","",""
"","ISI","","html-keyboard-response","285","276185","0.0-1.0-399.0","0","0","70683","","null","","","null","44","NaN","","","","","","","","","","","","","","",""
"","S2","","html-keyboard-response","286","276441","0.0-1.0-400.0","0","0","70683","","null","","","null","44","","NaN","","","","","","","","","","","","","",""
"","response","","html-keyboard-response","287","276566","0.0-1.0-401.0-0.0","0","0","70683","","121","","","75","44","","","1","44","training","adjacent","DE","4","5","M.jpg","Q.jpg","1","1","1","",""
"","feedback","","html-keyboard-response","288","277578","0.0-1.0-402.0-0.0","0","0","70683","","null","","","null","44","","","","","","","","","","","","","","","",""
"","ITI","","html-keyboard-response","289","278586","0.0-1.0-405.0","0","0","70683","","938","","","75","44","","","","","","","","","","","","","","","k",""
"","S1","","html-keyboard-response","290","278849","0.0-1.0-407.0","0","0","70683","","null","","","null","45","","","","","","","","","","","","","","","",""
"","ISI","","html-keyboard-response","291","279857","0.0-1.0-408.0","0","0","70683","","257","","","75","45","k","","","","","","","","","","","","","","",""
"","S2","","html-keyboard-response","292","280121","0.0-1.0-409.0","0","0","70683","","null","","","null","45","","NaN","","","","","","","","","","","","","",""
"","response","","html-keyboard-response","293","280294","0.0-1.0-410.0-0.0","0","0","70683","","171","","","75","45","","","1","45","training","adjacent","AB","1","2","P.jpg","R.jpg","1","1","1","",""
"","feedback","","html-keyboard-response","294","281306","0.0-1.0-411.0-0.0","0","0","70683","","null","","","null","45","","","","","","","","","","","","","","","",""
"","ITI","","html-keyboard-response","295","282313","0.0-1.0-414.0","0","0","70683","","null","","","null","45","","","","","","","","","","","","","","","NaN",""
"","S1","","html-keyboard-response","296","282570","0.0-1.0-416.0","0","0","70683","","null","","","null","46","","","","","","","","","","","","","","","",""
"","ISI","","html-keyboard-response","297","283577","0.0-1.0-417.0","0","0","70683","","722","","","75","46","k","","","","","","","","","","","","","","",""
"","S2","","html-keyboard-response","298","283840","0.0-1.0-418.0","0","0","70683","","null","","","null","46","","NaN","","","","","","","","","","","","","",""
"","response","","html-keyboard-response","299","284022","0.0-1.0-419.0-0.0","0","0","70683","","178","","","75","46","","","1","46","training","adjacent","DC","4","3","M.jpg","N.jpg","1","0","0","",""
"","feedback","","html-keyboard-response","300","285033","0.0-1.0-420.0-0.0","0","0","70683","","null","","","null","46","","","","","","","","","","","","","","","",""
"","time_out","","html-keyboard-response","301","287040","0.0-1.0-422.0-0.0","0","0","70683","","null","","","null","46","","","","","","","","","","","","","","","",""
"","ITI","","html-keyboard-response","302","288049","0.0-1.0-423.0","0","0","70683","","null","","","null","46","","","","","","","","","","","","","","","NaN",""
"","S1","","html-keyboard-response","303","288304","0.0-1.0-425.0","0","0","70683","","null","","","null","47","","","","","","","","","","","","","","","",""
"","ISI","","html-keyboard-response","304","289314","0.0-1.0-426.0","0","0","70683","","170","","","68","47","d","","","","","","","","","","","","","","",""
"","S2","","html-keyboard-response","305","289577","0.0-1.0-427.0","0","0","70683","","null","","","null","47","","NaN","","","","","","","","","","","","","",""
"","response","","html-keyboard-response","306","289584","0.0-1.0-428.0-0.0","0","0","70683","","3","","","68","47","","","1","47","training","adjacent","DC","4","3","M.jpg","N.jpg","0","0","1","",""
"","feedback","","html-keyboard-response","307","290593","0.0-1.0-429.0-0.0","0","0","70683","","null","","","null","47","","","","","","","","","","","","","","","",""
"","ITI","","html-keyboard-response","308","291600","0.0-1.0-432.0","0","0","70683","","null","","","null","47","","","","","","","","","","","","","","","NaN",""
"","block_over","","html-keyboard-response","309","297693","0.0-1.0-433.0-0.0","0","0","70683","","6089","","","32","47","","","","","","","","","","","","","","","",""
"","S1","","html-keyboard-response","310","297953","0.0-1.0-434.0","0","0","70683","","null","","","null","48","","","","","","","","","","","","","","","",""
"","ISI","","html-keyboard-response","311","298961","0.0-1.0-435.0","0","0","70683","","null","","","null","48","NaN","","","","","","","","","","","","","","",""
"","S2","","html-keyboard-response","312","299218","0.0-1.0-436.0","0","0","70683","","null","","","null","48","","NaN","","","","","","","","","","","","","",""
"","response","","html-keyboard-response","313","299873","0.0-1.0-437.0-0.0","0","0","70683","","648","","","68","48","","","2","48","training","adjacent","BC","2","3","R.jpg","N.jpg","0","1","0","",""
"","feedback","","html-keyboard-response","314","300881","0.0-1.0-438.0-0.0","0","0","70683","","null","","","null","48","","","","","","","","","","","","","","","",""
"","time_out","","html-keyboard-response","315","302891","0.0-1.0-440.0-0.0","0","0","70683","","null","","","null","48","","","","","","","","","","","","","","","",""
"","ITI","","html-keyboard-response","316","303897","0.0-1.0-441.0","0","0","70683","","null","","","null","48","","","","","","","","","","","","","","","NaN",""
"","S1","","html-keyboard-response","317","304154","0.0-1.0-443.0","0","0","70683","","null","","","null","49","","","","","","","","","","","","","","","",""
"","ISI","","html-keyboard-response","318","305163","0.0-1.0-444.0","0","0","70683","","385","","","75","49","k","","","","","","","","","","","","","","",""
"","S2","","html-keyboard-response","319","305425","0.0-1.0-445.0","0","0","70683","","null","","","null","49","","NaN","","","","","","","","","","","","","",""
"","response","","html-keyboard-response","320","305726","0.0-1.0-446.0-0.0","0","0","70683","","297","","","75","49","","","2","49","training","adjacent","FG","6","7","L.jpg","O.jpg","1","1","1","",""
"","feedback","","html-keyboard-response","321","306738","0.0-1.0-447.0-0.0","0","0","70683","","null","","","null","49","","","","","","","","","","","","","","","",""
"","ITI","","html-keyboard-response","322","307746","0.0-1.0-450.0","0","0","70683","","null","","","null","49","","","","","","","","","","","","","","","NaN",""
"","S1","","html-keyboard-response","323","308011","0.0-1.0-452.0","0","0","70683","","null","","","null","50","","","","","","","","","","","","","","","",""
"","ISI","","html-keyboard-response","324","309017","0.0-1.0-453.0","0","0","70683","","null","","","null","50","NaN","","","","","","","","","","","","","","",""
"","S2","","html-keyboard-response","325","309275","0.0-1.0-454.0","0","0","70683","","null","","","null","50","","NaN","","","","","","","","","","","","","",""
"","response","","html-keyboard-response","326","309350","0.0-1.0-455.0-0.0","0","0","70683","","72","","","75","50","","","2","50","training","adjacent","GF","7","6","O.jpg","L.jpg","1","0","0","",""
"","feedback","","html-keyboard-response","327","310361","0.0-1.0-456.0-0.0","0","0","70683","","null","","","null","50","","","","","","","","","","","","","","","",""
"","time_out","","html-keyboard-response","328","312370","0.0-1.0-458.0-0.0","0","0","70683","","null","","","null","50","","","","","","","","","","","","","","","",""
"","ITI","","html-keyboard-response","329","313378","0.0-1.0-459.0","0","0","70683","","null","","","null","50","","","","","","","","","","","","","","","NaN",""
"","S1","","html-keyboard-response","330","313634","0.0-1.0-461.0","0","0","70683","","null","","","null","51","","","","","","","","","","","","","","","",""
"","ISI","","html-keyboard-response","331","314641","0.0-1.0-462.0","0","0","70683","","null","","","null","51","NaN","","","","","","","","","","","","","","",""
"","S2","","html-keyboard-response","332","314898","0.0-1.0-463.0","0","0","70683","","null","","","null","51","","NaN","","","","","","","","","","","","","",""
"","response","","html-keyboard-response","333","315287","0.0-1.0-464.0-0.0","0","0","70683","","385","","","68","51","","","2","51","training","adjacent","CD","3","4","N.jpg","M.jpg","0","1","0","",""
"","feedback","","html-keyboard-response","334","316297","0.0-1.0-465.0-0.0","0","0","70683","","null","","","null","51","","","","","","","","","","","","","","","",""
"","time_out","","html-keyboard-response","335","318306","0.0-1.0-467.0-0.0","0","0","70683","","null","","","null","51","","","","","","","","","","","","","","","",""
"","ITI","","html-keyboard-response","336","319314","0.0-1.0-468.0","0","0","70683","","null","","","null","51","","","","","","","","","","","","","","","NaN",""
"","S1","","html-keyboard-response","337","319570","0.0-1.0-470.0","0","0","70683","","null","","","null","52","","","","","","","","","","","","","","","",""
"","ISI","","html-keyboard-response","338","320578","0.0-1.0-471.0","0","0","70683","","null","","","null","52","NaN","","","","","","","","","","","","","","",""
"","S2","","html-keyboard-response","339","320834","0.0-1.0-472.0","0","0","70683","","null","","","null","52","","NaN","","","","","","","","","","","","","",""
"","response","","html-keyboard-response","340","321430","0.0-1.0-473.0-0.0","0","0","70683","","592","","","68","52","","","2","52","training","adjacent","ED","5","4","Q.jpg","M.jpg","0","0","1","",""
"","feedback","","html-keyboard-response","341","322442","0.0-1.0-474.0-0.0","0","0","70683","","null","","","null","52","","","","","","","","","","","","","","","",""
"","ITI","","html-keyboard-response","342","323450","0.0-1.0-477.0","0","0","70683","","null","","","null","52","","","","","","","","","","","","","","","NaN",""
"","S1","","html-keyboard-response","343","323706","0.0-1.0-479.0","0","0","70683","","null","","","null","53","","","","","","","","","","","","","","","",""
"","ISI","","html-keyboard-response","344","324714","0.0-1.0-480.0","0","0","70683","","null","","","null","53","NaN","","","","","","","","","","","","","","",""
"","S2","","html-keyboard-response","345","324978","0.0-1.0-481.0","0","0","70683","","null","","","null","53","","NaN","","","","","","","","","","","","","",""
"","response","","html-keyboard-response","346","326048","0.0-1.0-482.0-0.0","0","0","70683","","1064","","","75","53","","","2","53","training","adjacent","BC","2","3","R.jpg","N.jpg","1","1","1","",""
"","feedback","","html-keyboard-response","347","327058","0.0-1.0-483.0-0.0","0","0","70683","","null","","","null","53","","","","","","","","","","","","","","","",""
"","ITI","","html-keyboard-response","348","328066","0.0-1.0-486.0","0","0","70683","","null","","","null","53","","","","","","","","","","","","","","","NaN",""
"","S1","","html-keyboard-response","349","328330","0.0-1.0-488.0","0","0","70683","","null","","","null","54","","","","","","","","","","","","","","","",""
"","ISI","","html-keyboard-response","350","329338","0.0-1.0-489.0","0","0","70683","","null","","","null","54","NaN","","","","","","","","","","","","","","",""
"","S2","","html-keyboard-response","351","329594","0.0-1.0-490.0","0","0","70683","","null","","","null","54","","NaN","","","","","","","","","","","","","",""
"","response","","html-keyboard-response","352","329983","0.0-1.0-491.0-0.0","0","0","70683","","383","","","75","54","","","2","54","training","adjacent","AB","1","2","P.jpg","R.jpg","1","1","1","",""
"","feedback","","html-keyboard-response","353","330995","0.0-1.0-492.0-0.0","0","0","70683","","null","","","null","54","","","","","","","","","","","","","","","",""
"","ITI","","html-keyboard-response","354","332002","0.0-1.0-495.0","0","0","70683","","null","","","null","54","","","","","","","","","","","","","","","NaN",""
"","S1","","html-keyboard-response","355","332257","0.0-1.0-497.0","0","0","70683","","null","","","null","55","","","","","","","","","","","","","","","",""
"","ISI","","html-keyboard-response","356","333266","0.0-1.0-498.0","0","0","70683","","705","","","68","55","d","","","","","","","","","","","","","","",""
"","S2","","html-keyboard-response","357","333531","0.0-1.0-499.0","0","0","70683","","null","","","null","55","","NaN","","","","","","","","","","","","","",""
"","response","","html-keyboard-response","358","333583","0.0-1.0-500.0-0.0","0","0","70683","","47","","","68","55","","","2","55","training","adjacent","DC","4","3","M.jpg","N.jpg","0","0","1","",""
"","feedback","","html-keyboard-response","359","334594","0.0-1.0-501.0-0.0","0","0","70683","","null","","","null","55","","","","","","","","","","","","","","","",""
"","ITI","","html-keyboard-response","360","335601","0.0-1.0-504.0","0","0","70683","","null","","","null","55","","","","","","","","","","","","","","","NaN",""
"","S1","","html-keyboard-response","361","335858","0.0-1.0-506.0","0","0","70683","","null","","","null","56","","","","","","","","","","","","","","","",""
"","ISI","","html-keyboard-response","362","336865","0.0-1.0-507.0","0","0","70683","","353","","","75","56","k","","","","","","","","","","","","","","",""
"","S2","","html-keyboard-response","363","337121","0.0-1.0-508.0","0","0","70683","","null","","","null","56","","NaN","","","","","","","","","","","","","",""
"","response","","html-keyboard-response","364","337648","0.0-1.0-509.0-0.0","0","0","70683","","523","","","75","56","","","2","56","training","adjacent","ED","5","4","Q.jpg","M.jpg","1","0","0","",""
"","feedback","","html-keyboard-response","365","338658","0.0-1.0-510.0-0.0","0","0","70683","","null","","","null","56","","","","","","","","","","","","","","","",""
"","time_out","","html-keyboard-response","366","340665","0.0-1.0-512.0-0.0","0","0","70683","","null","","","null","56","","","","","","","","","","","","","","","",""
"","ITI","","html-keyboard-response","367","341674","0.0-1.0-513.0","0","0","70683","","null","","","null","56","","","","","","","","","","","","","","","NaN",""
"","S1","","html-keyboard-response","368","341930","0.0-1.0-515.0","0","0","70683","","null","","","null","57","","","","","","","","","","","","","","","",""
"","ISI","","html-keyboard-response","369","342938","0.0-1.0-516.0","0","0","70683","","null","","","null","57","NaN","","","","","","","","","","","","","","",""
"","S2","","html-keyboard-response","370","343192","0.0-1.0-517.0","0","0","70683","","249","","","75","57","","k","2","57","training","adjacent","AB","1","2","P.jpg","R.jpg","1","1","1","",""
"","feedback","","html-keyboard-response","371","344201","0.0-1.0-519.0-0.0","0","0","70683","","null","","","null","57","","","","","","","","","","","","","","","",""
"","ITI","","html-keyboard-response","372","345211","0.0-1.0-522.0","0","0","70683","","null","","","null","57","","","","","","","","","","","","","","","NaN",""
"","S1","","html-keyboard-response","373","345474","0.0-1.0-524.0","0","0","70683","","null","","","null","58","","","","","","","","","","","","","","","",""
"","ISI","","html-keyboard-response","374","346482","0.0-1.0-525.0","0","0","70683","","null","","","null","58","NaN","","","","","","","","","","","","","","",""
"","S2","","html-keyboard-response","375","346738","0.0-1.0-526.0","0","0","70683","","null","","","null","58","","NaN","","","","","","","","","","","","","",""
"","response","","html-keyboard-response","376","347038","0.0-1.0-527.0-0.0","0","0","70683","","296","","","68","58","","","2","58","training","adjacent","CB","3","2","N.jpg","R.jpg","0","0","1","",""
"","feedback","","html-keyboard-response","377","348050","0.0-1.0-528.0-0.0","0","0","70683","","null","","","null","58","","","","","","","","","","","","","","","",""
"","ITI","","html-keyboard-response","378","349058","0.0-1.0-531.0","0","0","70683","","null","","","null","58","","","","","","","","","","","","","","","NaN",""
"","S1","","html-keyboard-response","379","349314","0.0-1.0-533.0","0","0","70683","","null","","","null","59","","","","","","","","","","","","","","","",""
"","ISI","","html-keyboard-response","380","350322","0.0-1.0-534.0","0","0","70683","","648","","","68","59","d","","","","","","","","","","","","","","",""
"","S2","","html-keyboard-response","381","350586","0.0-1.0-535.0","0","0","70683","","null","","","null","59","","NaN","","","","","","","","","","","","","",""
"","response","","html-keyboard-response","382","350774","0.0-1.0-536.0-0.0","0","0","70683","","184","","","68","59","","","2","59","training","adjacent","GF","7","6","O.jpg","L.jpg","0","0","1","",""
"","feedback","","html-keyboard-response","383","351785","0.0-1.0-537.0-0.0","0","0","70683","","null","","","null","59","","","","","","","","","","","","","","","",""
"","ITI","","html-keyboard-response","384","352795","0.0-1.0-540.0","0","0","70683","","null","","","null","59","","","","","","","","","","","","","","","NaN",""
"","S1","","html-keyboard-response","385","353059","0.0-1.0-542.0","0","0","70683","","null","","","null","60","","","","","","","","","","","","","","","",""
"","ISI","","html-keyboard-response","386","354066","0.0-1.0-543.0","0","0","70683","","null","","","null","60","NaN","","","","","","","","","","","","","","",""
"","S2","","html-keyboard-response","387","354331","0.0-1.0-544.0","0","0","70683","","null","","","null","60","","NaN","","","","","","","","","","","","","",""
"","response","","html-keyboard-response","388","354661","0.0-1.0-545.0-0.0","0","0","70683","","327","","","68","60","","","2","60","training","adjacent","FG","6","7","L.jpg","O.jpg","0","1","0","",""
"","feedback","","html-keyboard-response","389","355673","0.0-1.0-546.0-0.0","0","0","70683","","null","","","null","60","","","","","","","","","","","","","","","",""
"","time_out","","html-keyboard-response","390","357683","0.0-1.0-548.0-0.0","0","0","70683","","null","","","null","60","","","","","","","","","","","","","","","",""
"","ITI","","html-keyboard-response","391","358690","0.0-1.0-549.0","0","0","70683","","null","","","null","60","","","","","","","","","","","","","","","NaN",""
"","S1","","html-keyboard-response","392","358946","0.0-1.0-551.0","0","0","70683","","null","","","null","61","","","","","","","","","","","","","","","",""
"","ISI","","html-keyboard-response","393","359955","0.0-1.0-552.0","0","0","70683","","null","","","null","61","NaN","","","","","","","","","","","","","","",""
"","S2","","html-keyboard-response","394","360211","0.0-1.0-553.0","0","0","70683","","null","","","null","61","","NaN","","","","","","","","","","","","","",""
"","response","","html-keyboard-response","395","360440","0.0-1.0-554.0-0.0","0","0","70683","","226","","","75","61","","","2","61","training","adjacent","BA","2","1","R.jpg","P.jpg","1","0","0","",""
"","feedback","","html-keyboard-response","396","361451","0.0-1.0-555.0-0.0","0","0","70683","","null","","","null","61","","","","","","","","","","","","","","","",""
"","time_out","","html-keyboard-response","397","363459","0.0-1.0-557.0-0.0","0","0","70683","","null","","","null","61","","","","","","","","","","","","","","","",""
"","ITI","","html-keyboard-response","398","364467","0.0-1.0-558.0","0","0","70683","","null","","","null","61","","","","","","","","","","","","","","","NaN",""
"","S1","","html-keyboard-response","399","364723","0.0-1.0-560.0","0","0","70683","","null","","","null","62","","","","","","","","","","","","","","","",""
"","ISI","","html-keyboard-response","400","365731","0.0-1.0-561.0","0","0","70683","","null","","","null","62","NaN","","","","","","","","","","","","","","",""
"","S2","","html-keyboard-response","401","365935","0.0-1.0-562.0","0","0","70683","","199","","","68","62","","d","2","62","training","adjacent","FE","6","5","L.jpg","Q.jpg","0","0","1","",""
"","feedback","","html-keyboard-response","402","366946","0.0-1.0-564.0-0.0","0","0","70683","","null","","","null","62","","","","","","","","","","","","","","","",""
"","ITI","","html-keyboard-response","403","367955","0.0-1.0-567.0","0","0","70683","","null","","","null","62","","","","","","","","","","","","","","","NaN",""
"","S1","","html-keyboard-response","404","368212","0.0-1.0-569.0","0","0","70683","","null","","","null","63","","","","","","","","","","","","","","","",""
"","ISI","","html-keyboard-response","405","369219","0.0-1.0-570.0","0","0","70683","","null","","","null","63","NaN","","","","","","","","","","","","","","",""
"","S2","","html-keyboard-response","406","369474","0.0-1.0-571.0","0","0","70683","","null","","","null","63","","NaN","","","","","","","","","","","","","",""
"","response","","html-keyboard-response","407","370071","0.0-1.0-572.0-0.0","0","0","70683","","593","","","75","63","","","2","63","training","adjacent","CB","3","2","N.jpg","R.jpg","1","0","0","",""
"","feedback","","html-keyboard-response","408","371084","0.0-1.0-573.0-0.0","0","0","70683","","null","","","null","63","","","","","","","","","","","","","","","",""
"","time_out","","html-keyboard-response","409","373091","0.0-1.0-575.0-0.0","0","0","70683","","null","","","null","63","","","","","","","","","","","","","","","",""
"","ITI","","html-keyboard-response","410","374100","0.0-1.0-576.0","0","0","70683","","null","","","null","63","","","","","","","","","","","","","","","NaN",""
"","S1","","html-keyboard-response","411","374354","0.0-1.0-578.0","0","0","70683","","null","","","null","64","","","","","","","","","","","","","","","",""
"","ISI","","html-keyboard-response","412","375365","0.0-1.0-579.0","0","0","70683","","null","","","null","64","NaN","","","","","","","","","","","","","","",""
"","S2","","html-keyboard-response","413","375628","0.0-1.0-580.0","0","0","70683","","null","","","null","64","","NaN","","","","","","","","","","","","","",""
"","response","","html-keyboard-response","414","375774","0.0-1.0-581.0-0.0","0","0","70683","","143","","","75","64","","","2","64","training","adjacent","CD","3","4","N.jpg","M.jpg","1","1","1","",""
"","feedback","","html-keyboard-response","415","376789","0.0-1.0-582.0-0.0","0","0","70683","","null","","","null","64","","","","","","","","","","","","","","","",""
"","ITI","","html-keyboard-response","416","377795","0.0-1.0-585.0","0","0","70683","","null","","","null","64","","","","","","","","","","","","","","","NaN",""
"","S1","","html-keyboard-response","417","378052","0.0-1.0-587.0","0","0","70683","","null","","","null","65","","","","","","","","","","","","","","","",""
"","ISI","","html-keyboard-response","418","379060","0.0-1.0-588.0","0","0","70683","","null","","","null","65","NaN","","","","","","","","","","","","","","",""
"","S2","","html-keyboard-response","419","379324","0.0-1.0-589.0","0","0","70683","","null","","","null","65","","NaN","","","","","","","","","","","","","",""
"","response","","html-keyboard-response","420","379639","0.0-1.0-590.0-0.0","0","0","70683","","311","","","68","65","","","2","65","training","adjacent","DC","4","3","M.jpg","N.jpg","0","0","1","",""
"","feedback","","html-keyboard-response","421","380652","0.0-1.0-591.0-0.0","0","0","70683","","null","","","null","65","","","","","","","","","","","","","","","",""
"","ITI","","html-keyboard-response","422","381660","0.0-1.0-594.0","0","0","70683","","null","","","null","65","","","","","","","","","","","","","","","NaN",""
"","S1","","html-keyboard-response","423","381916","0.0-1.0-596.0","0","0","70683","","null","","","null","66","","","","","","","","","","","","","","","",""
"","ISI","","html-keyboard-response","424","382923","0.0-1.0-597.0","0","0","70683","","null","","","null","66","NaN","","","","","","","","","","","","","","",""
"","S2","","html-keyboard-response","425","383180","0.0-1.0-598.0","0","0","70683","","null","","","null","66","","NaN","","","","","","","","","","","","","",""
"","response","","html-keyboard-response","426","383471","0.0-1.0-599.0-0.0","0","0","70683","","287","","","68","66","","","2","66","training","adjacent","EF","5","6","Q.jpg","L.jpg","0","1","0","",""
"","feedback","","html-keyboard-response","427","384483","0.0-1.0-600.0-0.0","0","0","70683","","null","","","null","66","","","","","","","","","","","","","","","",""
"","time_out","","html-keyboard-response","428","386491","0.0-1.0-602.0-0.0","0","0","70683","","null","","","null","66","","","","","","","","","","","","","","","",""
"","ITI","","html-keyboard-response","429","387499","0.0-1.0-603.0","0","0","70683","","null","","","null","66","","","","","","","","","","","","","","","NaN",""
"","S1","","html-keyboard-response","430","387755","0.0-1.0-605.0","0","0","70683","","null","","","null","67","","","","","","","","","","","","","","","",""
"","ISI","","html-keyboard-response","431","388762","0.0-1.0-606.0","0","0","70683","","null","","","null","67","NaN","","","","","","","","","","","","","","",""
"","S2","","html-keyboard-response","432","389019","0.0-1.0-607.0","0","0","70683","","null","","","null","67","","NaN","","","","","","","","","","","","","",""
"","response","","html-keyboard-response","433","389126","0.0-1.0-608.0-0.0","0","0","70683","","103","","","68","67","","","2","67","training","adjacent","BC","2","3","R.jpg","N.jpg","0","1","0","",""
"","feedback","","html-keyboard-response","434","390139","0.0-1.0-609.0-0.0","0","0","70683","","null","","","null","67","","","","","","","","","","","","","","","",""
"","time_out","","html-keyboard-response","435","392147","0.0-1.0-611.0-0.0","0","0","70683","","null","","","null","67","","","","","","","","","","","","","","","",""
"","ITI","","html-keyboard-response","436","393155","0.0-1.0-612.0","0","0","70683","","null","","","null","67","","","","","","","","","","","","","","","NaN",""
"","S1","","html-keyboard-response","437","393420","0.0-1.0-614.0","0","0","70683","","null","","","null","68","","","","","","","","","","","","","","","",""
"","ISI","","html-keyboard-response","438","394427","0.0-1.0-615.0","0","0","70683","","null","","","null","68","NaN","","","","","","","","","","","","","","",""
"","S2","","html-keyboard-response","439","394670","0.0-1.0-616.0","0","0","70683","","238","","","75","68","","k","2","68","training","adjacent","DE","4","5","M.jpg","Q.jpg","1","1","1","",""
"","feedback","","html-keyboard-response","440","395683","0.0-1.0-618.0-0.0","0","0","70683","","null","","","null","68","","","","","","","","","","","","","","","",""
"","ITI","","html-keyboard-response","441","396692","0.0-1.0-621.0","0","0","70683","","null","","","null","68","","","","","","","","","","","","","","","NaN",""
"","S1","","html-keyboard-response","442","396955","0.0-1.0-623.0","0","0","70683","","null","","","null","69","","","","","","","","","","","","","","","",""
"","ISI","","html-keyboard-response","443","397963","0.0-1.0-624.0","0","0","70683","","null","","","null","69","NaN","","","","","","","","","","","","","","",""
"","S2","","html-keyboard-response","444","398219","0.0-1.0-625.0","0","0","70683","","null","","","null","69","","NaN","","","","","","","","","","","","","",""
"","response","","html-keyboard-response","445","398423","0.0-1.0-626.0-0.0","0","0","70683","","199","","","75","69","","","2","69","training","adjacent","DE","4","5","M.jpg","Q.jpg","1","1","1","",""
"","feedback","","html-keyboard-response","446","399436","0.0-1.0-627.0-0.0","0","0","70683","","null","","","null","69","","","","","","","","","","","","","","","",""
"","ITI","","html-keyboard-response","447","400444","0.0-1.0-630.0","0","0","70683","","null","","","null","69","","","","","","","","","","","","","","","NaN",""
"","S1","","html-keyboard-response","448","400707","0.0-1.0-632.0","0","0","70683","","null","","","null","70","","","","","","","","","","","","","","","",""
"","ISI","","html-keyboard-response","449","401715","0.0-1.0-633.0","0","0","70683","","null","","","null","70","NaN","","","","","","","","","","","","","","",""
"","S2","","html-keyboard-response","450","401971","0.0-1.0-634.0","0","0","70683","","null","","","null","70","","NaN","","","","","","","","","","","","","",""
"","response","","html-keyboard-response","451","402198","0.0-1.0-635.0-0.0","0","0","70683","","224","","","75","70","","","2","70","training","adjacent","BA","2","1","R.jpg","P.jpg","1","0","0","",""
"","feedback","","html-keyboard-response","452","403211","0.0-1.0-636.0-0.0","0","0","70683","","null","","","null","70","","","","","","","","","","","","","","","",""
"","time_out","","html-keyboard-response","453","405219","0.0-1.0-638.0-0.0","0","0","70683","","null","","","null","70","","","","","","","","","","","","","","","",""
"","ITI","","html-keyboard-response","454","406228","0.0-1.0-639.0","0","0","70683","","null","","","null","70","","","","","","","","","","","","","","","NaN",""
"","S1","","html-keyboard-response","455","406492","0.0-1.0-641.0","0","0","70683","","null","","","null","71","","","","","","","","","","","","","","","",""
"","ISI","","html-keyboard-response","456","407499","0.0-1.0-642.0","0","0","70683","","null","","","null","71","NaN","","","","","","","","","","","","","","",""
"","S2","","html-keyboard-response","457","407756","0.0-1.0-643.0","0","0","70683","","null","","","null","71","","NaN","","","","","","","","","","","","","",""
"","response","","html-keyboard-response","458","408166","0.0-1.0-644.0-0.0","0","0","70683","","406","","","75","71","","","2","71","training","adjacent","EF","5","6","Q.jpg","L.jpg","1","1","1","",""
"","feedback","","html-keyboard-response","459","409171","0.0-1.0-645.0-0.0","0","0","70683","","null","","","null","71","","","","","","","","","","","","","","","",""
"","ITI","","html-keyboard-response","460","410179","0.0-1.0-648.0","0","0","70683","","null","","","null","71","","","","","","","","","","","","","","","NaN",""
"","S1","","html-keyboard-response","461","410435","0.0-1.0-650.0","0","0","70683","","null","","","null","72","","","","","","","","","","","","","","","",""
"","ISI","","html-keyboard-response","462","411443","0.0-1.0-651.0","0","0","70683","","null","","","null","72","NaN","","","","","","","","","","","","","","",""
"","S2","","html-keyboard-response","463","411699","0.0-1.0-652.0","0","0","70683","","null","","","null","72","","NaN","","","","","","","","","","","","","",""
"","response","","html-keyboard-response","464","411999","0.0-1.0-653.0-0.0","0","0","70683","","295","","","68","72","","","2","72","training","adjacent","FG","6","7","L.jpg","O.jpg","0","1","0","",""
"","feedback","","html-keyboard-response","465","413010","0.0-1.0-654.0-0.0","0","0","70683","","null","","","null","72","","","","","","","","","","","","","","","",""
"","time_out","","html-keyboard-response","466","415019","0.0-1.0-656.0-0.0","0","0","70683","","null","","","null","72","","","","","","","","","","","","","","","",""
"","ITI","","html-keyboard-response","467","416027","0.0-1.0-657.0","0","0","70683","","null","","","null","72","","","","","","","","","","","","","","","NaN",""
"","S1","","html-keyboard-response","468","416283","0.0-1.0-659.0","0","0","70683","","null","","","null","73","","","","","","","","","","","","","","","",""
"","ISI","","html-keyboard-response","469","417291","0.0-1.0-660.0","0","0","70683","","null","","","null","73","NaN","","","","","","","","","","","","","","",""
"","S2","","html-keyboard-response","470","417547","0.0-1.0-661.0","0","0","70683","","null","","","null","73","","NaN","","","","","","","","","","","","","",""
"","response","","html-keyboard-response","471","418015","0.0-1.0-662.0-0.0","0","0","70683","","462","","","75","73","","","2","73","training","adjacent","CB","3","2","N.jpg","R.jpg","1","0","0","",""
"","feedback","","html-keyboard-response","472","419027","0.0-1.0-663.0-0.0","0","0","70683","","null","","","null","73","","","","","","","","","","","","","","","",""
"","time_out","","html-keyboard-response","473","421036","0.0-1.0-665.0-0.0","0","0","70683","","null","","","null","73","","","","","","","","","","","","","","","",""
"","ITI","","html-keyboard-response","474","422044","0.0-1.0-666.0","0","0","70683","","null","","","null","73","","","","","","","","","","","","","","","NaN",""
"","S1","","html-keyboard-response","475","422309","0.0-1.0-668.0","0","0","70683","","null","","","null","74","","","","","","","","","","","","","","","",""
"","ISI","","html-keyboard-response","476","423316","0.0-1.0-669.0","0","0","70683","","null","","","null","74","NaN","","","","","","","","","","","","","","",""
"","S2","","html-keyboard-response","477","423446","0.0-1.0-670.0","0","0","70683","","126","","","68","74","","d","2","74","training","adjacent","DE","4","5","M.jpg","Q.jpg","0","1","0","",""
"","feedback","","html-keyboard-response","478","424452","0.0-1.0-672.0-0.0","0","0","70683","","null","","","null","74","","","","","","","","","","","","","","","",""
"","time_out","","html-keyboard-response","479","426460","0.0-1.0-674.0-0.0","0","0","70683","","null","","","null","74","","","","","","","","","","","","","","","",""
"","ITI","","html-keyboard-response","480","427469","0.0-1.0-675.0","0","0","70683","","null","","","null","74","","","","","","","","","","","","","","","NaN",""
"","S1","","html-keyboard-response","481","427733","0.0-1.0-677.0","0","0","70683","","null","","","null","75","","","","","","","","","","","","","","","",""
"","ISI","","html-keyboard-response","482","428740","0.0-1.0-678.0","0","0","70683","","350","","","75","75","k","","","","","","","","","","","","","","",""
"","S2","","html-keyboard-response","483","428997","0.0-1.0-679.0","0","0","70683","","null","","","null","75","","NaN","","","","","","","","","","","","","",""
"","response","","html-keyboard-response","484","429183","0.0-1.0-680.0-0.0","0","0","70683","","181","","","75","75","","","2","75","training","adjacent","ED","5","4","Q.jpg","M.jpg","1","0","0","",""
"","feedback","","html-keyboard-response","485","430197","0.0-1.0-681.0-0.0","0","0","70683","","null","","","null","75","","","","","","","","","","","","","","","",""
"","time_out","","html-keyboard-response","486","432205","0.0-1.0-683.0-0.0","0","0","70683","","null","","","null","75","","","","","","","","","","","","","","","",""
"","ITI","","html-keyboard-response","487","433212","0.0-1.0-684.0","0","0","70683","","null","","","null","75","","","","","","","","","","","","","","","NaN",""
"","S1","","html-keyboard-response","488","433468","0.0-1.0-686.0","0","0","70683","","null","","","null","76","","","","","","","","","","","","","","","",""
"","ISI","","html-keyboard-response","489","434475","0.0-1.0-687.0","0","0","70683","","359","","","68","76","d","","","","","","","","","","","","","","",""
"","S2","","html-keyboard-response","490","434731","0.0-1.0-688.0","0","0","70683","","null","","","null","76","","NaN","","","","","","","","","","","","","",""
"","response","","html-keyboard-response","491","435055","0.0-1.0-689.0-0.0","0","0","70683","","320","","","68","76","","","2","76","training","adjacent","EF","5","6","Q.jpg","L.jpg","0","1","0","",""
"","feedback","","html-keyboard-response","492","436068","0.0-1.0-690.0-0.0","0","0","70683","","null","","","null","76","","","","","","","","","","","","","","","",""
"","time_out","","html-keyboard-response","493","438076","0.0-1.0-692.0-0.0","0","0","70683","","null","","","null","76","","","","","","","","","","","","","","","",""
"","ITI","","html-keyboard-response","494","439084","0.0-1.0-693.0","0","0","70683","","null","","","null","76","","","","","","","","","","","","","","","NaN",""
"","S1","","html-keyboard-response","495","439339","0.0-1.0-695.0","0","0","70683","","null","","","null","77","","","","","","","","","","","","","","","",""
"","ISI","","html-keyboard-response","496","440348","0.0-1.0-696.0","0","0","70683","","592","","","75","77","k","","","","","","","","","","","","","","",""
"","S2","","html-keyboard-response","497","440605","0.0-1.0-697.0","0","0","70683","","null","","","null","77","","NaN","","","","","","","","","","","","","",""
"","response","","html-keyboard-response","498","440934","0.0-1.0-698.0-0.0","0","0","70683","","326","","","75","77","","","2","77","training","adjacent","FE","6","5","L.jpg","Q.jpg","1","0","0","",""
"","feedback","","html-keyboard-response","499","441941","0.0-1.0-699.0-0.0","0","0","70683","","null","","","null","77","","","","","","","","","","","","","","","",""
"","time_out","","html-keyboard-response","500","443949","0.0-1.0-701.0-0.0","0","0","70683","","null","","","null","77","","","","","","","","","","","","","","","",""
"","ITI","","html-keyboard-response","501","444956","0.0-1.0-702.0","0","0","70683","","null","","","null","77","","","","","","","","","","","","","","","NaN",""
"","S1","","html-keyboard-response","502","445212","0.0-1.0-704.0","0","0","70683","","null","","","null","78","","","","","","","","","","","","","","","",""
"","ISI","","html-keyboard-response","503","446220","0.0-1.0-705.0","0","0","70683","","192","","","68","78","d","","","","","","","","","","","","","","",""
"","S2","","html-keyboard-response","504","446279","0.0-1.0-706.0","0","0","70683","","54","","","68","78","","d","2","78","training","adjacent","DC","4","3","M.jpg","N.jpg","0","0","1","",""
"","feedback","","html-keyboard-response","505","447291","0.0-1.0-708.0-0.0","0","0","70683","","null","","","null","78","","","","","","","","","","","","","","","",""
"","ITI","","html-keyboard-response","506","448300","0.0-1.0-711.0","0","0","70683","","null","","","null","78","","","","","","","","","","","","","","","NaN",""
"","S1","","html-keyboard-response","507","448556","0.0-1.0-713.0","0","0","70683","","null","","","null","79","","","","","","","","","","","","","","","",""
"","ISI","","html-keyboard-response","508","449564","0.0-1.0-714.0","0","0","70683","","null","","","null","79","NaN","","","","","","","","","","","","","","",""
"","S2","","html-keyboard-response","509","449742","0.0-1.0-715.0","0","0","70683","","174","","","68","79","","d","2","79","training","adjacent","DC","4","3","M.jpg","N.jpg","0","0","1","",""
"","feedback","","html-keyboard-response","510","450757","0.0-1.0-717.0-0.0","0","0","70683","","null","","","null","79","","","","","","","","","","","","","","","",""
"","ITI","","html-keyboard-response","511","451764","0.0-1.0-720.0","0","0","70683","","null","","","null","79","","","","","","","","","","","","","","","NaN",""
"","S1","","html-keyboard-response","512","452021","0.0-1.0-722.0","0","0","70683","","null","","","null","80","","","","","","","","","","","","","","","",""
"","ISI","","html-keyboard-response","513","453028","0.0-1.0-723.0","0","0","70683","","null","","","null","80","NaN","","","","","","","","","","","","","","",""
"","S2","","html-keyboard-response","514","453293","0.0-1.0-724.0","0","0","70683","","null","","","null","80","","NaN","","","","","","","","","","","","","",""
"","response","","html-keyboard-response","515","453966","0.0-1.0-725.0-0.0","0","0","70683","","670","","","75","80","","","2","80","training","adjacent","GF","7","6","O.jpg","L.jpg","1","0","0","",""
"","feedback","","html-keyboard-response","516","454973","0.0-1.0-726.0-0.0","0","0","70683","","null","","","null","80","","","","","","","","","","","","","","","",""
"","time_out","","html-keyboard-response","517","456981","0.0-1.0-728.0-0.0","0","0","70683","","null","","","null","80","","","","","","","","","","","","","","","",""
"","ITI","","html-keyboard-response","518","457989","0.0-1.0-729.0","0","0","70683","","null","","","null","80","","","","","","","","","","","","","","","NaN",""
"","S1","","html-keyboard-response","519","458253","0.0-1.0-731.0","0","0","70683","","null","","","null","81","","","","","","","","","","","","","","","",""
"","ISI","","html-keyboard-response","520","459260","0.0-1.0-732.0","0","0","70683","","534","","","75","81","k","","","","","","","","","","","","","","",""
"","S2","","html-keyboard-response","521","459516","0.0-1.0-733.0","0","0","70683","","null","","","null","81","","NaN","","","","","","","","","","","","","",""
"","response","","html-keyboard-response","522","459686","0.0-1.0-734.0-0.0","0","0","70683","","166","","","75","81","","","2","81","training","adjacent","CB","3","2","N.jpg","R.jpg","1","0","0","",""
"","feedback","","html-keyboard-response","523","460691","0.0-1.0-735.0-0.0","0","0","70683","","null","","","null","81","","","","","","","","","","","","","","","",""
"","time_out","","html-keyboard-response","524","462700","0.0-1.0-737.0-0.0","0","0","70683","","null","","","null","81","","","","","","","","","","","","","","","",""
"","ITI","","html-keyboard-response","525","463737","0.0-1.0-738.0","0","0","70683","","551","","","75","81","","","","","","","","","","","","","","","k",""
"","S1","","html-keyboard-response","526","464002","0.0-1.0-740.0","0","0","70683","","null","","","null","82","","","","","","","","","","","","","","","",""
"","ISI","","html-keyboard-response","527","465011","0.0-1.0-741.0","0","0","70683","","545","","","68","82","d","","","","","","","","","","","","","","",""
"","S2","","html-keyboard-response","528","465268","0.0-1.0-742.0","0","0","70683","","null","","","null","82","","NaN","","","","","","","","","","","","","",""
"","response","","html-keyboard-response","529","465390","0.0-1.0-743.0-0.0","0","0","70683","","118","","","75","82","","","2","82","training","adjacent","BC","2","3","R.jpg","N.jpg","1","1","1","",""
"","feedback","","html-keyboard-response","530","466396","0.0-1.0-744.0-0.0","0","0","70683","","null","","","null","82","","","","","","","","","","","","","","","",""
"","ITI","","html-keyboard-response","531","467404","0.0-1.0-747.0","0","0","70683","","null","","","null","82","","","","","","","","","","","","","","","NaN",""
"","S1","","html-keyboard-response","532","467660","0.0-1.0-749.0","0","0","70683","","null","","","null","83","","","","","","","","","","","","","","","",""
"","ISI","","html-keyboard-response","533","468668","0.0-1.0-750.0","0","0","70683","","null","","","null","83","NaN","","","","","","","","","","","","","","",""
"","S2","","html-keyboard-response","534","468932","0.0-1.0-751.0","0","0","70683","","null","","","null","83","","NaN","","","","","","","","","","","","","",""
"","response","","html-keyboard-response","535","469765","0.0-1.0-752.0-0.0","0","0","70683","","829","","","75","83","","","2","83","training","adjacent","DE","4","5","M.jpg","Q.jpg","1","1","1","",""
"","feedback","","html-keyboard-response","536","470772","0.0-1.0-753.0-0.0","0","0","70683","","null","","","null","83","","","","","","","","","","","","","","","",""
"","ITI","","html-keyboard-response","537","471780","0.0-1.0-756.0","0","0","70683","","null","","","null","83","","","","","","","","","","","","","","","NaN",""
"","S1","","html-keyboard-response","538","472036","0.0-1.0-758.0","0","0","70683","","null","","","null","84","","","","","","","","","","","","","","","",""
"","ISI","","html-keyboard-response","539","473044","0.0-1.0-759.0","0","0","70683","","null","","","null","84","NaN","","","","","","","","","","","","","","",""
"","S2","","html-keyboard-response","540","473300","0.0-1.0-760.0","0","0","70683","","null","","","null","84","","NaN","","","","","","","","","","","","","",""
"","response","","html-keyboard-response","541","473807","0.0-1.0-761.0-0.0","0","0","70683","","503","","","75","84","","","2","84","training","adjacent","CD","3","4","N.jpg","M.jpg","1","1","1","",""
"","feedback","","html-keyboard-response","542","474820","0.0-1.0-762.0-0.0","0","0","70683","","null","","","null","84","","","","","","","","","","","","","","","",""
"","ITI","","html-keyboard-response","543","475827","0.0-1.0-765.0","0","0","70683","","null","","","null","84","","","","","","","","","","","","","","","NaN",""
"","S1","","html-keyboard-response","544","476084","0.0-1.0-767.0","0","0","70683","","null","","","null","85","","","","","","","","","","","","","","","",""
"","ISI","","html-keyboard-response","545","477093","0.0-1.0-768.0","0","0","70683","","null","","","null","85","NaN","","","","","","","","","","","","","","",""
"","S2","","html-keyboard-response","546","477356","0.0-1.0-769.0","0","0","70683","","null","","","null","85","","NaN","","","","","","","","","","","","","",""
"","response","","html-keyboard-response","547","477630","0.0-1.0-770.0-0.0","0","0","70683","","270","","","75","85","","","2","85","training","adjacent","FE","6","5","L.jpg","Q.jpg","1","0","0","",""
"","feedback","","html-keyboard-response","548","478636","0.0-1.0-771.0-0.0","0","0","70683","","null","","","null","85","","","","","","","","","","","","","","","",""
"","time_out","","html-keyboard-response","549","480645","0.0-1.0-773.0-0.0","0","0","70683","","null","","","null","85","","","","","","","","","","","","","","","",""
"","ITI","","html-keyboard-response","550","481654","0.0-1.0-774.0","0","0","70683","","null","","","null","85","","","","","","","","","","","","","","","NaN",""
"","S1","","html-keyboard-response","551","481917","0.0-1.0-776.0","0","0","70683","","null","","","null","86","","","","","","","","","","","","","","","",""
"","ISI","","html-keyboard-response","552","482925","0.0-1.0-777.0","0","0","70683","","null","","","null","86","NaN","","","","","","","","","","","","","","",""
"","S2","","html-keyboard-response","553","483181","0.0-1.0-778.0","0","0","70683","","null","","","null","86","","NaN","","","","","","","","","","","","","",""
"","response","","html-keyboard-response","554","483495","0.0-1.0-779.0-0.0","0","0","70683","","310","","","68","86","","","2","86","training","adjacent","FE","6","5","L.jpg","Q.jpg","0","0","1","",""
"","feedback","","html-keyboard-response","555","484501","0.0-1.0-780.0-0.0","0","0","70683","","null","","","null","86","","","","","","","","","","","","","","","",""
"","ITI","","html-keyboard-response","556","485510","0.0-1.0-783.0","0","0","70683","","null","","","null","86","","","","","","","","","","","","","","","NaN",""
"","S1","","html-keyboard-response","557","485774","0.0-1.0-785.0","0","0","70683","","null","","","null","87","","","","","","","","","","","","","","","",""
"","ISI","","html-keyboard-response","558","486780","0.0-1.0-786.0","0","0","70683","","null","","","null","87","NaN","","","","","","","","","","","","","","",""
"","S2","","html-keyboard-response","559","487037","0.0-1.0-787.0","0","0","70683","","null","","","null","87","","NaN","","","","","","","","","","","","","",""
"","response","","html-keyboard-response","560","487438","0.0-1.0-788.0-0.0","0","0","70683","","397","","","75","87","","","2","87","training","adjacent","AB","1","2","P.jpg","R.jpg","1","1","1","",""
"","feedback","","html-keyboard-response","561","488445","0.0-1.0-789.0-0.0","0","0","70683","","null","","","null","87","","","","","","","","","","","","","","","",""
"","ITI","","html-keyboard-response","562","489454","0.0-1.0-792.0","0","0","70683","","null","","","null","87","","","","","","","","","","","","","","","NaN",""
"","S1","","html-keyboard-response","563","489718","0.0-1.0-794.0","0","0","70683","","null","","","null","88","","","","","","","","","","","","","","","",""
"","ISI","","html-keyboard-response","564","490725","0.0-1.0-795.0","0","0","70683","","null","","","null","88","NaN","","","","","","","","","","","","","","",""
"","S2","","html-keyboard-response","565","490982","0.0-1.0-796.0","0","0","70683","","null","","","null","88","","NaN","","","","","","","","","","","","","",""
"","response","","html-keyboard-response","566","491078","0.0-1.0-797.0-0.0","0","0","70683","","93","","","68","88","","","2","88","training","adjacent","BA","2","1","R.jpg","P.jpg","0","0","1","",""
"","feedback","","html-keyboard-response","567","492085","0.0-1.0-798.0-0.0","0","0","70683","","null","","","null","88","","","","","","","","","","","","","","","",""
"","ITI","","html-keyboard-response","568","493093","0.0-1.0-801.0","0","0","70683","","null","","","null","88","","","","","","","","","","","","","","","NaN",""
"","S1","","html-keyboard-response","569","493349","0.0-1.0-803.0","0","0","70683","","null","","","null","89","","","","","","","","","","","","","","","",""
"","ISI","","html-keyboard-response","570","494357","0.0-1.0-804.0","0","0","70683","","null","","","null","89","NaN","","","","","","","","","","","","","","",""
"","S2","","html-keyboard-response","571","494613","0.0-1.0-805.0","0","0","70683","","null","","","null","89","","NaN","","","","","","","","","","","","","",""
"","response","","html-keyboard-response","572","494918","0.0-1.0-806.0-0.0","0","0","70683","","302","","","68","89","","","2","89","training","adjacent","ED","5","4","Q.jpg","M.jpg","0","0","1","",""
"","feedback","","html-keyboard-response","573","495925","0.0-1.0-807.0-0.0","0","0","70683","","null","","","null","89","","","","","","","","","","","","","","","",""
"","ITI","","html-keyboard-response","574","496933","0.0-1.0-810.0","0","0","70683","","null","","","null","89","","","","","","","","","","","","","","","NaN",""
"","S1","","html-keyboard-response","575","497190","0.0-1.0-812.0","0","0","70683","","null","","","null","90","","","","","","","","","","","","","","","",""
"","ISI","","html-keyboard-response","576","498197","0.0-1.0-813.0","0","0","70683","","null","","","null","90","NaN","","","","","","","","","","","","","","",""
"","S2","","html-keyboard-response","577","498453","0.0-1.0-814.0","0","0","70683","","null","","","null","90","","NaN","","","","","","","","","","","","","",""
"","response","","html-keyboard-response","578","498736","0.0-1.0-815.0-0.0","0","0","70683","","277","","","75","90","","","2","90","training","adjacent","GF","7","6","O.jpg","L.jpg","1","0","0","",""
"","feedback","","html-keyboard-response","579","499750","0.0-1.0-816.0-0.0","0","0","70683","","null","","","null","90","","","","","","","","","","","","","","","",""
"","time_out","","html-keyboard-response","580","501757","0.0-1.0-818.0-0.0","0","0","70683","","null","","","null","90","","","","","","","","","","","","","","","",""
"","ITI","","html-keyboard-response","581","502765","0.0-1.0-819.0","0","0","70683","","null","","","null","90","","","","","","","","","","","","","","","NaN",""
"","S1","","html-keyboard-response","582","503021","0.0-1.0-821.0","0","0","70683","","null","","","null","91","","","","","","","","","","","","","","","",""
"","ISI","","html-keyboard-response","583","504031","0.0-1.0-822.0","0","0","70683","","614","","","68","91","d","","","","","","","","","","","","","","",""
"","S2","","html-keyboard-response","584","504294","0.0-1.0-823.0","0","0","70683","","null","","","null","91","","NaN","","","","","","","","","","","","","",""
