"success","ttype","start_time","trial_type","trial_index","time_elapsed","internal_node_id","warning","missed_checkup","PID","view_history","rt","responses","repeat_instructions","key_press","index","keypress_isi","keypress_S2","block","trial_num","phase","group_type","pair_type","S1_stim","S2_stim","S1_img","S2_img","S1_chosen","S1_higher","accuracy","keypress_iti","total_bonus_tally"
"true","full_screen","d03032023hr1949","fullscreen","0","38695","0.0-0.0","0","0","73355","","","","","","","","","","","","","","","","","","","","","",""
"","instructions","","instructions","1","149629","0.0-1.0-0.0-0.0","0","0","73355","[{""page_index"":0,""viewing_time"":7782},{""page_index"":1,""viewing_time"":73619},{""page_index"":2,""viewing_time"":24340},{""page_index"":3,""viewing_time"":5176}]","110919","","","","","","","","","","","","","","","","","","","",""
"","comprehension_check","","survey-multi-choice","2","274890","0.0-1.0-0.0-1.0","0","0","73355","","125241","{""Q0"":""True"",""Q1"":""K"",""Q2"":""Only when the screen 'MAKE A CHOICE' is shown"",""Q3"":""Green mark"",""Q4"":""either D or K""}","1","","","","","","","","","","","","","","","","","",""
"","missed_instruction_checkup","","html-keyboard-response","3","280653","0.0-1.0-0.0-2.0-0.0","0","1","73355","","5746","","","32","","","","","","","","","","","","","","","","",""
"","instructions","","instructions","4","321783","0.0-1.0-0.1-0.1","0","0","73355","[{""page_index"":0,""viewing_time"":3273},{""page_index"":1,""viewing_time"":32139},{""page_index"":2,""viewing_time"":4123},{""page_index"":3,""viewing_time"":1584}]","41120","","","","","","","","","","","","","","","","","","","",""
"","comprehension_check","","survey-multi-choice","5","350010","0.0-1.0-0.1-1.1","0","0","73355","","28203","{""Q0"":""True"",""Q1"":""K"",""Q2"":""Once the second image appears and while the screen 'MAKE A CHOICE' is shown"",""Q3"":""Green mark"",""Q4"":""either D or K""}","0","","","","","","","","","","","","","","","","","",""
"","start_exp","","html-keyboard-response","6","354774","0.0-1.0-1.0","0","0","73355","","4754","","","32","","","","","","","","","","","","","","","","",""
"","S1","","html-keyboard-response","7","355032","0.0-1.0-2.0","0","0","73355","","null","","","null","0","","","","","","","","","","","","","","","",""
"","ISI","","html-keyboard-response","8","355537","0.0-1.0-3.0","0","0","73355","","null","","","null","0","NaN","","","","","","","","","","","","","","",""
"","S2","","html-keyboard-response","9","355794","0.0-1.0-4.0","0","0","73355","","null","","","null","0","","NaN","","","","","","","","","","","","","",""
"","response","","html-keyboard-response","10","357554","0.0-1.0-5.0-0.0","0","0","73355","","null","","","null","0","","","1","0","training","adjacent","AB","1","2","P.jpg","O.jpg","NaN","1","0","",""
"","too_slow_prompt","","html-keyboard-response","11","358562","0.0-1.0-7.0-0.0","1","0","73355","","null","","","null","","","","","","","","","","","","","","","","",""
"","time_out","","html-keyboard-response","12","360569","0.0-1.0-8.0-0.0","0","0","73355","","null","","","null","0","","","","","","","","","","","","","","","",""
"","ITI","","html-keyboard-response","13","361574","0.0-1.0-9.0","0","0","73355","","null","","","null","0","","","","","","","","","","","","","","","NaN",""
"","S1","","html-keyboard-response","14","361831","0.0-1.0-11.0","0","0","73355","","null","","","null","1","","","","","","","","","","","","","","","",""
"","ISI","","html-keyboard-response","15","362336","0.0-1.0-12.0","0","0","73355","","null","","","null","1","NaN","","","","","","","","","","","","","","",""
"","S2","","html-keyboard-response","16","362591","0.0-1.0-13.0","0","0","73355","","null","","","null","1","","NaN","","","","","","","","","","","","","",""
"","response","","html-keyboard-response","17","364346","0.0-1.0-14.0-0.0","0","0","73355","","null","","","null","1","","","1","1","training","adjacent","AB","1","2","P.jpg","O.jpg","NaN","1","0","",""
"","too_slow_prompt","","html-keyboard-response","18","365352","0.0-1.0-16.0-0.0","1","0","73355","","null","","","null","","","","","","","","","","","","","","","","",""
"","time_out","","html-keyboard-response","19","367360","0.0-1.0-17.0-0.0","0","0","73355","","null","","","null","1","","","","","","","","","","","","","","","",""
"","ITI","","html-keyboard-response","20","368367","0.0-1.0-18.0","0","0","73355","","null","","","null","1","","","","","","","","","","","","","","","NaN",""
"","S1","","html-keyboard-response","21","368622","0.0-1.0-20.0","0","0","73355","","null","","","null","2","","","","","","","","","","","","","","","",""
"","ISI","","html-keyboard-response","22","369127","0.0-1.0-21.0","0","0","73355","","362","","","75","2","k","","","","","","","","","","","","","","",""
"","S2","","html-keyboard-response","23","369384","0.0-1.0-22.0","0","0","73355","","null","","","null","2","","NaN","","","","","","","","","","","","","",""
"","response","","html-keyboard-response","24","370628","0.0-1.0-23.0-0.0","0","0","73355","","1236","","","75","2","","","1","2","training","adjacent","FG","6","7","N.jpg","R.jpg","1","1","1","",""
"","feedback","","html-keyboard-response","25","371635","0.0-1.0-24.0-0.0","0","0","73355","","null","","","null","2","","","","","","","","","","","","","","","",""
"","ITI","","html-keyboard-response","26","372641","0.0-1.0-27.0","0","0","73355","","null","","","null","2","","","","","","","","","","","","","","","NaN",""
"","S1","","html-keyboard-response","27","372895","0.0-1.0-29.0","0","0","73355","","null","","","null","3","","","","","","","","","","","","","","","",""
"","ISI","","html-keyboard-response","28","373397","0.0-1.0-30.0","0","0","73355","","null","","","null","3","NaN","","","","","","","","","","","","","","",""
"","S2","","html-keyboard-response","29","373652","0.0-1.0-31.0","0","0","73355","","null","","","null","3","","NaN","","","","","","","","","","","","","",""
"","response","","html-keyboard-response","30","373655","0.0-1.0-32.0-0.0","0","0","73355","","1","","","75","3","","","1","3","training","adjacent","ED","5","4","L.jpg","Q.jpg","1","0","0","",""
"","feedback","","html-keyboard-response","31","374659","0.0-1.0-33.0-0.0","0","0","73355","","null","","","null","3","","","","","","","","","","","","","","","",""
"","time_out","","html-keyboard-response","32","376664","0.0-1.0-35.0-0.0","0","0","73355","","null","","","null","3","","","","","","","","","","","","","","","",""
"","ITI","","html-keyboard-response","33","377668","0.0-1.0-36.0","0","0","73355","","749","","","83","3","","","","","","","","","","","","","","","s",""
"","S1","","html-keyboard-response","34","377922","0.0-1.0-38.0","0","0","73355","","null","","","null","4","","","","","","","","","","","","","","","",""
"","ISI","","html-keyboard-response","35","378424","0.0-1.0-39.0","0","0","73355","","null","","","null","4","NaN","","","","","","","","","","","","","","",""
"","S2","","html-keyboard-response","36","378686","0.0-1.0-40.0","0","0","73355","","null","","","null","4","","NaN","","","","","","","","","","","","","",""
"","response","","html-keyboard-response","37","379101","0.0-1.0-41.0-0.0","0","0","73355","","408","","","75","4","","","1","4","training","adjacent","GF","7","6","R.jpg","N.jpg","1","0","0","",""
"","feedback","","html-keyboard-response","38","380106","0.0-1.0-42.0-0.0","0","0","73355","","null","","","null","4","","","","","","","","","","","","","","","",""
"","time_out","","html-keyboard-response","39","382112","0.0-1.0-44.0-0.0","0","0","73355","","null","","","null","4","","","","","","","","","","","","","","","",""
"","ITI","","html-keyboard-response","40","383117","0.0-1.0-45.0","0","0","73355","","null","","","null","4","","","","","","","","","","","","","","","NaN",""
"","S1","","html-keyboard-response","41","383372","0.0-1.0-47.0","0","0","73355","","null","","","null","5","","","","","","","","","","","","","","","",""
"","ISI","","html-keyboard-response","42","383877","0.0-1.0-48.0","0","0","73355","","null","","","null","5","NaN","","","","","","","","","","","","","","",""
"","S2","","html-keyboard-response","43","384135","0.0-1.0-49.0","0","0","73355","","null","","","null","5","","NaN","","","","","","","","","","","","","",""
"","response","","html-keyboard-response","44","385891","0.0-1.0-50.0-0.0","0","0","73355","","null","","","null","5","","","1","5","training","adjacent","DE","4","5","Q.jpg","L.jpg","NaN","1","0","",""
"","too_slow_prompt","","html-keyboard-response","45","386894","0.0-1.0-52.0-0.0","1","0","73355","","null","","","null","","","","","","","","","","","","","","","","",""
"","time_out","","html-keyboard-response","46","388900","0.0-1.0-53.0-0.0","0","0","73355","","null","","","null","5","","","","","","","","","","","","","","","",""
"","ITI","","html-keyboard-response","47","389911","0.0-1.0-54.0","0","0","73355","","null","","","null","5","","","","","","","","","","","","","","","NaN",""
"","S1","","html-keyboard-response","48","390168","0.0-1.0-56.0","0","0","73355","","null","","","null","6","","","","","","","","","","","","","","","",""
"","ISI","","html-keyboard-response","49","390675","0.0-1.0-57.0","0","0","73355","","null","","","null","6","NaN","","","","","","","","","","","","","","",""
"","S2","","html-keyboard-response","50","390934","0.0-1.0-58.0","0","0","73355","","null","","","null","6","","NaN","","","","","","","","","","","","","",""
"","response","","html-keyboard-response","51","392691","0.0-1.0-59.0-0.0","0","0","73355","","null","","","null","6","","","1","6","training","adjacent","EF","5","6","L.jpg","N.jpg","NaN","1","0","",""
"","too_slow_prompt","","html-keyboard-response","52","393698","0.0-1.0-61.0-0.0","1","0","73355","","null","","","null","","","","","","","","","","","","","","","","",""
"","time_out","","html-keyboard-response","53","395706","0.0-1.0-62.0-0.0","0","0","73355","","null","","","null","6","","","","","","","","","","","","","","","",""
"","ITI","","html-keyboard-response","54","396712","0.0-1.0-63.0","0","0","73355","","null","","","null","6","","","","","","","","","","","","","","","NaN",""
"","S1","","html-keyboard-response","55","396968","0.0-1.0-65.0","0","0","73355","","null","","","null","7","","","","","","","","","","","","","","","",""
"","ISI","","html-keyboard-response","56","397473","0.0-1.0-66.0","0","0","73355","","334","","","83","7","s","","","","","","","","","","","","","","",""
"","S2","","html-keyboard-response","57","397728","0.0-1.0-67.0","0","0","73355","","null","","","null","7","","NaN","","","","","","","","","","","","","",""
"","response","","html-keyboard-response","58","399484","0.0-1.0-68.0-0.0","0","0","73355","","null","","","null","7","","","1","7","training","adjacent","BC","2","3","O.jpg","M.jpg","NaN","1","0","",""
"","too_slow_prompt","","html-keyboard-response","59","400492","0.0-1.0-70.0-0.0","1","0","73355","","null","","","null","","","","","","","","","","","","","","","","",""
"","time_out","","html-keyboard-response","60","402498","0.0-1.0-71.0-0.0","0","0","73355","","null","","","null","7","","","","","","","","","","","","","","","",""
"","ITI","","html-keyboard-response","61","403506","0.0-1.0-72.0","0","0","73355","","null","","","null","7","","","","","","","","","","","","","","","NaN",""
"","S1","","html-keyboard-response","62","403762","0.0-1.0-74.0","0","0","73355","","null","","","null","8","","","","","","","","","","","","","","","",""
"","ISI","","html-keyboard-response","63","404271","0.0-1.0-75.0","0","0","73355","","null","","","null","8","NaN","","","","","","","","","","","","","","",""
"","S2","","html-keyboard-response","64","404526","0.0-1.0-76.0","0","0","73355","","null","","","null","8","","NaN","","","","","","","","","","","","","",""
"","response","","html-keyboard-response","65","406286","0.0-1.0-77.0-0.0","0","0","73355","","null","","","null","8","","","1","8","training","adjacent","CB","3","2","M.jpg","O.jpg","NaN","0","0","",""
"","too_slow_prompt","","html-keyboard-response","66","407291","0.0-1.0-79.0-0.0","1","0","73355","","null","","","null","","","","","","","","","","","","","","","","",""
"","time_out","","html-keyboard-response","67","409322","0.0-1.0-80.0-0.0","0","0","73355","","null","","","null","8","","","","","","","","","","","","","","","",""
"","ITI","","html-keyboard-response","68","410327","0.0-1.0-81.0","0","0","73355","","null","","","null","8","","","","","","","","","","","","","","","NaN",""
"","S1","","html-keyboard-response","69","410583","0.0-1.0-83.0","0","0","73355","","null","","","null","9","","","","","","","","","","","","","","","",""
"","ISI","","html-keyboard-response","70","411086","0.0-1.0-84.0","0","0","73355","","null","","","null","9","NaN","","","","","","","","","","","","","","",""
"","S2","","html-keyboard-response","71","411103","0.0-1.0-85.0","0","0","73355","","11","","","75","9","","k","1","9","training","adjacent","AB","1","2","P.jpg","O.jpg","1","1","1","",""
"","feedback","","html-keyboard-response","72","412112","0.0-1.0-87.0-0.0","0","0","73355","","null","","","null","9","","","","","","","","","","","","","","","",""
"","ITI","","html-keyboard-response","73","413117","0.0-1.0-90.0","0","0","73355","","null","","","null","9","","","","","","","","","","","","","","","NaN",""
"","S1","","html-keyboard-response","74","413372","0.0-1.0-92.0","0","0","73355","","null","","","null","10","","","","","","","","","","","","","","","",""
"","ISI","","html-keyboard-response","75","413876","0.0-1.0-93.0","0","0","73355","","null","","","null","10","NaN","","","","","","","","","","","","","","",""
"","S2","","html-keyboard-response","76","414129","0.0-1.0-94.0","0","0","73355","","null","","","null","10","","NaN","","","","","","","","","","","","","",""
"","response","","html-keyboard-response","77","415888","0.0-1.0-95.0-0.0","0","0","73355","","null","","","null","10","","","1","10","training","adjacent","GF","7","6","R.jpg","N.jpg","NaN","0","0","",""
"","too_slow_prompt","","html-keyboard-response","78","416895","0.0-1.0-97.0-0.0","1","0","73355","","null","","","null","","","","","","","","","","","","","","","","",""
"","time_out","","html-keyboard-response","79","418943","0.0-1.0-98.0-0.0","0","0","73355","","null","","","null","10","","","","","","","","","","","","","","","",""
"","ITI","","html-keyboard-response","80","419950","0.0-1.0-99.0","0","0","73355","","null","","","null","10","","","","","","","","","","","","","","","NaN",""
"","S1","","html-keyboard-response","81","420210","0.0-1.0-101.0","0","0","73355","","null","","","null","11","","","","","","","","","","","","","","","",""
"","ISI","","html-keyboard-response","82","420713","0.0-1.0-102.0","0","0","73355","","null","","","null","11","NaN","","","","","","","","","","","","","","",""
"","S2","","html-keyboard-response","83","420968","0.0-1.0-103.0","0","0","73355","","null","","","null","11","","NaN","","","","","","","","","","","","","",""
"","response","","html-keyboard-response","84","422722","0.0-1.0-104.0-0.0","0","0","73355","","null","","","null","11","","","1","11","training","adjacent","FE","6","5","N.jpg","L.jpg","NaN","0","0","",""
"","too_slow_prompt","","html-keyboard-response","85","423725","0.0-1.0-106.0-0.0","1","0","73355","","null","","","null","","","","","","","","","","","","","","","","",""
"","time_out","","html-keyboard-response","86","425731","0.0-1.0-107.0-0.0","0","0","73355","","null","","","null","11","","","","","","","","","","","","","","","",""
"","ITI","","html-keyboard-response","87","426737","0.0-1.0-108.0","0","0","73355","","null","","","null","11","","","","","","","","","","","","","","","NaN",""
"","S1","","html-keyboard-response","88","426993","0.0-1.0-110.0","0","0","73355","","null","","","null","12","","","","","","","","","","","","","","","",""
"","ISI","","html-keyboard-response","89","427500","0.0-1.0-111.0","0","0","73355","","null","","","null","12","NaN","","","","","","","","","","","","","","",""
"","S2","","html-keyboard-response","90","427764","0.0-1.0-112.0","0","0","73355","","null","","","null","12","","NaN","","","","","","","","","","","","","",""
"","response","","html-keyboard-response","91","429519","0.0-1.0-113.0-0.0","0","0","73355","","null","","","null","12","","","1","12","training","adjacent","FG","6","7","N.jpg","R.jpg","NaN","1","0","",""
"","too_slow_prompt","","html-keyboard-response","92","430522","0.0-1.0-115.0-0.0","1","0","73355","","null","","","null","","","","","","","","","","","","","","","","",""
"","time_out","","html-keyboard-response","93","432527","0.0-1.0-116.0-0.0","0","0","73355","","null","","","null","12","","","","","","","","","","","","","","","",""
"","ITI","","html-keyboard-response","94","433533","0.0-1.0-117.0","0","0","73355","","null","","","null","12","","","","","","","","","","","","","","","NaN",""
"","S1","","html-keyboard-response","95","433787","0.0-1.0-119.0","0","0","73355","","null","","","null","13","","","","","","","","","","","","","","","",""
"","ISI","","html-keyboard-response","96","434295","0.0-1.0-120.0","0","0","73355","","null","","","null","13","NaN","","","","","","","","","","","","","","",""
"","S2","","html-keyboard-response","97","434552","0.0-1.0-121.0","0","0","73355","","null","","","null","13","","NaN","","","","","","","","","","","","","",""
"","response","","html-keyboard-response","98","435771","0.0-1.0-122.0-0.0","0","0","73355","","1210","","","75","13","","","1","13","training","adjacent","FG","6","7","N.jpg","R.jpg","1","1","1","",""
"","feedback","","html-keyboard-response","99","436785","0.0-1.0-123.0-0.0","0","0","73355","","null","","","null","13","","","","","","","","","","","","","","","",""
"","ITI","","html-keyboard-response","100","437866","0.0-1.0-126.0","0","0","73355","","null","","","null","13","","","","","","","","","","","","","","","NaN",""
"","S1","","html-keyboard-response","101","438121","0.0-1.0-128.0","0","0","73355","","null","","","null","14","","","","","","","","","","","","","","","",""
"","ISI","","html-keyboard-response","102","438628","0.0-1.0-129.0","0","0","73355","","null","","","null","14","NaN","","","","","","","","","","","","","","",""
"","S2","","html-keyboard-response","103","438888","0.0-1.0-130.0","0","0","73355","","null","","","null","14","","NaN","","","","","","","","","","","","","",""
"","response","","html-keyboard-response","104","440644","0.0-1.0-131.0-0.0","0","0","73355","","null","","","null","14","","","1","14","training","adjacent","CD","3","4","M.jpg","Q.jpg","NaN","1","0","",""
"","too_slow_prompt","","html-keyboard-response","105","441648","0.0-1.0-133.0-0.0","1","0","73355","","null","","","null","","","","","","","","","","","","","","","","",""
"","time_out","","html-keyboard-response","106","443652","0.0-1.0-134.0-0.0","0","0","73355","","null","","","null","14","","","","","","","","","","","","","","","",""
"","ITI","","html-keyboard-response","107","444662","0.0-1.0-135.0","0","0","73355","","null","","","null","14","","","","","","","","","","","","","","","NaN",""
"","S1","","html-keyboard-response","108","444918","0.0-1.0-137.0","0","0","73355","","null","","","null","15","","","","","","","","","","","","","","","",""
"","ISI","","html-keyboard-response","109","445423","0.0-1.0-138.0","0","0","73355","","null","","","null","15","NaN","","","","","","","","","","","","","","",""
"","S2","","html-keyboard-response","110","445678","0.0-1.0-139.0","0","0","73355","","null","","","null","15","","NaN","","","","","","","","","","","","","",""
"","response","","html-keyboard-response","111","447019","0.0-1.0-140.0-0.0","0","0","73355","","1323","","","75","15","","","1","15","training","adjacent","EF","5","6","L.jpg","N.jpg","1","1","1","",""
"","feedback","","html-keyboard-response","112","448028","0.0-1.0-141.0-0.0","0","0","73355","","null","","","null","15","","","","","","","","","","","","","","","",""
"","ITI","","html-keyboard-response","113","449033","0.0-1.0-144.0","0","0","73355","","null","","","null","15","","","","","","","","","","","","","","","NaN",""
"","S1","","html-keyboard-response","114","449288","0.0-1.0-146.0","0","0","73355","","null","","","null","16","","","","","","","","","","","","","","","",""
"","ISI","","html-keyboard-response","115","449792","0.0-1.0-147.0","0","0","73355","","null","","","null","16","NaN","","","","","","","","","","","","","","",""
"","S2","","html-keyboard-response","116","450050","0.0-1.0-148.0","0","0","73355","","null","","","null","16","","NaN","","","","","","","","","","","","","",""
"","response","","html-keyboard-response","117","451808","0.0-1.0-149.0-0.0","0","0","73355","","null","","","null","16","","","1","16","training","adjacent","FE","6","5","N.jpg","L.jpg","NaN","0","0","",""
"","too_slow_prompt","","html-keyboard-response","118","452817","0.0-1.0-151.0-0.0","1","0","73355","","null","","","null","","","","","","","","","","","","","","","","",""
"","time_out","","html-keyboard-response","119","454824","0.0-1.0-152.0-0.0","0","0","73355","","null","","","null","16","","","","","","","","","","","","","","","",""
"","ITI","","html-keyboard-response","120","455831","0.0-1.0-153.0","0","0","73355","","null","","","null","16","","","","","","","","","","","","","","","NaN",""
"","S1","","html-keyboard-response","121","456084","0.0-1.0-155.0","0","0","73355","","null","","","null","17","","","","","","","","","","","","","","","",""
"","ISI","","html-keyboard-response","122","456588","0.0-1.0-156.0","0","0","73355","","null","","","null","17","NaN","","","","","","","","","","","","","","",""
"","S2","","html-keyboard-response","123","456845","0.0-1.0-157.0","0","0","73355","","null","","","null","17","","NaN","","","","","","","","","","","","","",""
"","response","","html-keyboard-response","124","457464","0.0-1.0-158.0-0.0","0","0","73355","","613","","","75","17","","","1","17","training","adjacent","FE","6","5","N.jpg","L.jpg","1","0","0","",""
"","feedback","","html-keyboard-response","125","458473","0.0-1.0-159.0-0.0","0","0","73355","","null","","","null","17","","","","","","","","","","","","","","","",""
"","time_out","","html-keyboard-response","126","460483","0.0-1.0-161.0-0.0","0","0","73355","","null","","","null","17","","","","","","","","","","","","","","","",""
"","ITI","","html-keyboard-response","127","461489","0.0-1.0-162.0","0","0","73355","","null","","","null","17","","","","","","","","","","","","","","","NaN",""
"","S1","","html-keyboard-response","128","461747","0.0-1.0-164.0","0","0","73355","","null","","","null","18","","","","","","","","","","","","","","","",""
"","ISI","","html-keyboard-response","129","462252","0.0-1.0-165.0","0","0","73355","","null","","","null","18","NaN","","","","","","","","","","","","","","",""
"","S2","","html-keyboard-response","130","462508","0.0-1.0-166.0","0","0","73355","","null","","","null","18","","NaN","","","","","","","","","","","","","",""
"","response","","html-keyboard-response","131","464266","0.0-1.0-167.0-0.0","0","0","73355","","null","","","null","18","","","1","18","training","adjacent","GF","7","6","R.jpg","N.jpg","NaN","0","0","",""
"","too_slow_prompt","","html-keyboard-response","132","465271","0.0-1.0-169.0-0.0","1","0","73355","","null","","","null","","","","","","","","","","","","","","","","",""
"","time_out","","html-keyboard-response","133","467278","0.0-1.0-170.0-0.0","0","0","73355","","null","","","null","18","","","","","","","","","","","","","","","",""
"","ITI","","html-keyboard-response","134","468284","0.0-1.0-171.0","0","0","73355","","null","","","null","18","","","","","","","","","","","","","","","NaN",""
"","S1","","html-keyboard-response","135","468541","0.0-1.0-173.0","0","0","73355","","null","","","null","19","","","","","","","","","","","","","","","",""
"","ISI","","html-keyboard-response","136","469047","0.0-1.0-174.0","0","0","73355","","null","","","null","19","NaN","","","","","","","","","","","","","","",""
"","S2","","html-keyboard-response","137","469304","0.0-1.0-175.0","0","0","73355","","null","","","null","19","","NaN","","","","","","","","","","","","","",""
"","response","","html-keyboard-response","138","469981","0.0-1.0-176.0-0.0","0","0","73355","","674","","","75","19","","","1","19","training","adjacent","DC","4","3","Q.jpg","M.jpg","1","0","0","",""
"","feedback","","html-keyboard-response","139","470997","0.0-1.0-177.0-0.0","0","0","73355","","null","","","null","19","","","","","","","","","","","","","","","",""
"","time_out","","html-keyboard-response","140","473007","0.0-1.0-179.0-0.0","0","0","73355","","null","","","null","19","","","","","","","","","","","","","","","",""
"","ITI","","html-keyboard-response","141","474016","0.0-1.0-180.0","0","0","73355","","null","","","null","19","","","","","","","","","","","","","","","NaN",""
"","S1","","html-keyboard-response","142","474271","0.0-1.0-182.0","0","0","73355","","null","","","null","20","","","","","","","","","","","","","","","",""
"","ISI","","html-keyboard-response","143","474783","0.0-1.0-183.0","0","0","73355","","null","","","null","20","NaN","","","","","","","","","","","","","","",""
"","S2","","html-keyboard-response","144","475040","0.0-1.0-184.0","0","0","73355","","null","","","null","20","","NaN","","","","","","","","","","","","","",""
"","response","","html-keyboard-response","145","476796","0.0-1.0-185.0-0.0","0","0","73355","","null","","","null","20","","","1","20","training","adjacent","AB","1","2","P.jpg","O.jpg","NaN","1","0","",""
"","too_slow_prompt","","html-keyboard-response","146","477802","0.0-1.0-187.0-0.0","1","0","73355","","null","","","null","","","","","","","","","","","","","","","","",""
"","time_out","","html-keyboard-response","147","479809","0.0-1.0-188.0-0.0","0","0","73355","","null","","","null","20","","","","","","","","","","","","","","","",""
"","ITI","","html-keyboard-response","148","480817","0.0-1.0-189.0","0","0","73355","","null","","","null","20","","","","","","","","","","","","","","","NaN",""
"","S1","","html-keyboard-response","149","481072","0.0-1.0-191.0","0","0","73355","","null","","","null","21","","","","","","","","","","","","","","","",""
"","ISI","","html-keyboard-response","150","481576","0.0-1.0-192.0","0","0","73355","","null","","","null","21","NaN","","","","","","","","","","","","","","",""
"","S2","","html-keyboard-response","151","481834","0.0-1.0-193.0","0","0","73355","","null","","","null","21","","NaN","","","","","","","","","","","","","",""
"","response","","html-keyboard-response","152","482226","0.0-1.0-194.0-0.0","0","0","73355","","385","","","75","21","","","1","21","training","adjacent","BC","2","3","O.jpg","M.jpg","1","1","1","",""
"","feedback","","html-keyboard-response","153","483233","0.0-1.0-195.0-0.0","0","0","73355","","null","","","null","21","","","","","","","","","","","","","","","",""
"","ITI","","html-keyboard-response","154","484243","0.0-1.0-198.0","0","0","73355","","null","","","null","21","","","","","","","","","","","","","","","NaN",""
"","S1","","html-keyboard-response","155","484503","0.0-1.0-200.0","0","0","73355","","null","","","null","22","","","","","","","","","","","","","","","",""
"","ISI","","html-keyboard-response","156","485006","0.0-1.0-201.0","0","0","73355","","null","","","null","22","NaN","","","","","","","","","","","","","","",""
"","S2","","html-keyboard-response","157","485260","0.0-1.0-202.0","0","0","73355","","null","","","null","22","","NaN","","","","","","","","","","","","","",""
"","response","","html-keyboard-response","158","487021","0.0-1.0-203.0-0.0","0","0","73355","","null","","","null","22","","","1","22","training","adjacent","DE","4","5","Q.jpg","L.jpg","NaN","1","0","",""
"","too_slow_prompt","","html-keyboard-response","159","488026","0.0-1.0-205.0-0.0","1","0","73355","","null","","","null","","","","","","","","","","","","","","","","",""
"","time_out","","html-keyboard-response","160","490033","0.0-1.0-206.0-0.0","0","0","73355","","null","","","null","22","","","","","","","","","","","","","","","",""
"","ITI","","html-keyboard-response","161","491037","0.0-1.0-207.0","0","0","73355","","null","","","null","22","","","","","","","","","","","","","","","NaN",""
"","S1","","html-keyboard-response","162","491293","0.0-1.0-209.0","0","0","73355","","null","","","null","23","","","","","","","","","","","","","","","",""
"","ISI","","html-keyboard-response","163","491798","0.0-1.0-210.0","0","0","73355","","null","","","null","23","NaN","","","","","","","","","","","","","","",""
"","S2","","html-keyboard-response","164","492055","0.0-1.0-211.0","0","0","73355","","null","","","null","23","","NaN","","","","","","","","","","","","","",""
"","response","","html-keyboard-response","165","492480","0.0-1.0-212.0-0.0","0","0","73355","","420","","","75","23","","","1","23","training","adjacent","CD","3","4","M.jpg","Q.jpg","1","1","1","",""
"","feedback","","html-keyboard-response","166","493487","0.0-1.0-213.0-0.0","0","0","73355","","null","","","null","23","","","","","","","","","","","","","","","",""
"","ITI","","html-keyboard-response","167","494491","0.0-1.0-216.0","0","0","73355","","null","","","null","23","","","","","","","","","","","","","","","NaN",""
"","S1","","html-keyboard-response","168","494746","0.0-1.0-218.0","0","0","73355","","null","","","null","24","","","","","","","","","","","","","","","",""
"","ISI","","html-keyboard-response","169","495250","0.0-1.0-219.0","0","0","73355","","null","","","null","24","NaN","","","","","","","","","","","","","","",""
"","S2","","html-keyboard-response","170","495506","0.0-1.0-220.0","0","0","73355","","null","","","null","24","","NaN","","","","","","","","","","","","","",""
"","response","","html-keyboard-response","171","497264","0.0-1.0-221.0-0.0","0","0","73355","","null","","","null","24","","","1","24","training","adjacent","EF","5","6","L.jpg","N.jpg","NaN","1","0","",""
"","too_slow_prompt","","html-keyboard-response","172","498271","0.0-1.0-223.0-0.0","1","0","73355","","null","","","null","","","","","","","","","","","","","","","","",""
"","time_out","","html-keyboard-response","173","500279","0.0-1.0-224.0-0.0","0","0","73355","","null","","","null","24","","","","","","","","","","","","","","","",""
"","ITI","","html-keyboard-response","174","501285","0.0-1.0-225.0","0","0","73355","","null","","","null","24","","","","","","","","","","","","","","","NaN",""
"","S1","","html-keyboard-response","175","501551","0.0-1.0-227.0","0","0","73355","","null","","","null","25","","","","","","","","","","","","","","","",""
"","ISI","","html-keyboard-response","176","502056","0.0-1.0-228.0","0","0","73355","","null","","","null","25","NaN","","","","","","","","","","","","","","",""
"","S2","","html-keyboard-response","177","502310","0.0-1.0-229.0","0","0","73355","","null","","","null","25","","NaN","","","","","","","","","","","","","",""
"","response","","html-keyboard-response","178","504068","0.0-1.0-230.0-0.0","0","0","73355","","null","","","null","25","","","1","25","training","adjacent","CB","3","2","M.jpg","O.jpg","NaN","0","0","",""
"","too_slow_prompt","","html-keyboard-response","179","505073","0.0-1.0-232.0-0.0","1","0","73355","","null","","","null","","","","","","","","","","","","","","","","",""
"","time_out","","html-keyboard-response","180","507076","0.0-1.0-233.0-0.0","0","0","73355","","null","","","null","25","","","","","","","","","","","","","","","",""
"","ITI","","html-keyboard-response","181","508083","0.0-1.0-234.0","0","0","73355","","null","","","null","25","","","","","","","","","","","","","","","NaN",""
"","S1","","html-keyboard-response","182","508339","0.0-1.0-236.0","0","0","73355","","null","","","null","26","","","","","","","","","","","","","","","",""
"","ISI","","html-keyboard-response","183","508840","0.0-1.0-237.0","0","0","73355","","null","","","null","26","NaN","","","","","","","","","","","","","","",""
"","S2","","html-keyboard-response","184","509095","0.0-1.0-238.0","0","0","73355","","null","","","null","26","","NaN","","","","","","","","","","","","","",""
"","response","","html-keyboard-response","185","509934","0.0-1.0-239.0-0.0","0","0","73355","","831","","","75","26","","","1","26","training","adjacent","BC","2","3","O.jpg","M.jpg","1","1","1","",""
"","feedback","","html-keyboard-response","186","510939","0.0-1.0-240.0-0.0","0","0","73355","","null","","","null","26","","","","","","","","","","","","","","","",""
"","ITI","","html-keyboard-response","187","511946","0.0-1.0-243.0","0","0","73355","","null","","","null","26","","","","","","","","","","","","","","","NaN",""
"","S1","","html-keyboard-response","188","512201","0.0-1.0-245.0","0","0","73355","","null","","","null","27","","","","","","","","","","","","","","","",""
"","ISI","","html-keyboard-response","189","512704","0.0-1.0-246.0","0","0","73355","","null","","","null","27","NaN","","","","","","","","","","","","","","",""
"","S2","","html-keyboard-response","190","512960","0.0-1.0-247.0","0","0","73355","","null","","","null","27","","NaN","","","","","","","","","","","","","",""
"","response","","html-keyboard-response","191","514718","0.0-1.0-248.0-0.0","0","0","73355","","null","","","null","27","","","1","27","training","adjacent","EF","5","6","L.jpg","N.jpg","NaN","1","0","",""
"","too_slow_prompt","","html-keyboard-response","192","515724","0.0-1.0-250.0-0.0","1","0","73355","","null","","","null","","","","","","","","","","","","","","","","",""
"","time_out","","html-keyboard-response","193","517734","0.0-1.0-251.0-0.0","0","0","73355","","null","","","null","27","","","","","","","","","","","","","","","",""
"","ITI","","html-keyboard-response","194","518741","0.0-1.0-252.0","0","0","73355","","null","","","null","27","","","","","","","","","","","","","","","NaN",""
"","S1","","html-keyboard-response","195","518996","0.0-1.0-254.0","0","0","73355","","null","","","null","28","","","","","","","","","","","","","","","",""
"","ISI","","html-keyboard-response","196","519502","0.0-1.0-255.0","0","0","73355","","null","","","null","28","NaN","","","","","","","","","","","","","","",""
"","S2","","html-keyboard-response","197","519758","0.0-1.0-256.0","0","0","73355","","null","","","null","28","","NaN","","","","","","","","","","","","","",""
"","response","","html-keyboard-response","198","519808","0.0-1.0-257.0-0.0","0","0","73355","","42","","","75","28","","","1","28","training","adjacent","CD","3","4","M.jpg","Q.jpg","1","1","1","",""
"","feedback","","html-keyboard-response","199","520813","0.0-1.0-258.0-0.0","0","0","73355","","null","","","null","28","","","","","","","","","","","","","","","",""
"","ITI","","html-keyboard-response","200","521818","0.0-1.0-261.0","0","0","73355","","null","","","null","28","","","","","","","","","","","","","","","NaN",""
"","S1","","html-keyboard-response","201","522075","0.0-1.0-263.0","0","0","73355","","null","","","null","29","","","","","","","","","","","","","","","",""
"","ISI","","html-keyboard-response","202","522581","0.0-1.0-264.0","0","0","73355","","null","","","null","29","NaN","","","","","","","","","","","","","","",""
"","S2","","html-keyboard-response","203","522839","0.0-1.0-265.0","0","0","73355","","null","","","null","29","","NaN","","","","","","","","","","","","","",""
"","response","","html-keyboard-response","204","522970","0.0-1.0-266.0-0.0","0","0","73355","","126","","","75","29","","","1","29","training","adjacent","CD","3","4","M.jpg","Q.jpg","1","1","1","",""
"","feedback","","html-keyboard-response","205","523979","0.0-1.0-267.0-0.0","0","0","73355","","null","","","null","29","","","","","","","","","","","","","","","",""
"","ITI","","html-keyboard-response","206","524984","0.0-1.0-270.0","0","0","73355","","null","","","null","29","","","","","","","","","","","","","","","NaN",""
"","S1","","html-keyboard-response","207","525238","0.0-1.0-272.0","0","0","73355","","null","","","null","30","","","","","","","","","","","","","","","",""
"","ISI","","html-keyboard-response","208","525743","0.0-1.0-273.0","0","0","73355","","null","","","null","30","NaN","","","","","","","","","","","","","","",""
"","S2","","html-keyboard-response","209","526001","0.0-1.0-274.0","0","0","73355","","null","","","null","30","","NaN","","","","","","","","","","","","","",""
"","response","","html-keyboard-response","210","527762","0.0-1.0-275.0-0.0","0","0","73355","","null","","","null","30","","","1","30","training","adjacent","ED","5","4","L.jpg","Q.jpg","NaN","0","0","",""
"","too_slow_prompt","","html-keyboard-response","211","528766","0.0-1.0-277.0-0.0","1","0","73355","","null","","","null","","","","","","","","","","","","","","","","",""
"","time_out","","html-keyboard-response","212","530769","0.0-1.0-278.0-0.0","0","0","73355","","null","","","null","30","","","","","","","","","","","","","","","",""
"","ITI","","html-keyboard-response","213","531772","0.0-1.0-279.0","0","0","73355","","null","","","null","30","","","","","","","","","","","","","","","NaN",""
"","S1","","html-keyboard-response","214","532028","0.0-1.0-281.0","0","0","73355","","null","","","null","31","","","","","","","","","","","","","","","",""
"","ISI","","html-keyboard-response","215","532536","0.0-1.0-282.0","0","0","73355","","null","","","null","31","NaN","","","","","","","","","","","","","","",""
"","S2","","html-keyboard-response","216","532790","0.0-1.0-283.0","0","0","73355","","null","","","null","31","","NaN","","","","","","","","","","","","","",""
"","response","","html-keyboard-response","217","534562","0.0-1.0-284.0-0.0","0","0","73355","","null","","","null","31","","","1","31","training","adjacent","FG","6","7","N.jpg","R.jpg","NaN","1","0","",""
"","too_slow_prompt","","html-keyboard-response","218","535570","0.0-1.0-286.0-0.0","1","0","73355","","null","","","null","","","","","","","","","","","","","","","","",""
"","time_out","","html-keyboard-response","219","537577","0.0-1.0-287.0-0.0","0","0","73355","","null","","","null","31","","","","","","","","","","","","","","","",""
"","ITI","","html-keyboard-response","220","538581","0.0-1.0-288.0","0","0","73355","","null","","","null","31","","","","","","","","","","","","","","","NaN",""
"","S1","","html-keyboard-response","221","538835","0.0-1.0-290.0","0","0","73355","","null","","","null","32","","","","","","","","","","","","","","","",""
"","ISI","","html-keyboard-response","222","539338","0.0-1.0-291.0","0","0","73355","","null","","","null","32","NaN","","","","","","","","","","","","","","",""
"","S2","","html-keyboard-response","223","539600","0.0-1.0-292.0","0","0","73355","","null","","","null","32","","NaN","","","","","","","","","","","","","",""
"","response","","html-keyboard-response","224","541355","0.0-1.0-293.0-0.0","0","0","73355","","null","","","null","32","","","1","32","training","adjacent","GF","7","6","R.jpg","N.jpg","NaN","0","0","",""
"","too_slow_prompt","","html-keyboard-response","225","542362","0.0-1.0-295.0-0.0","1","0","73355","","null","","","null","","","","","","","","","","","","","","","","",""
"","time_out","","html-keyboard-response","226","544369","0.0-1.0-296.0-0.0","0","0","73355","","null","","","null","32","","","","","","","","","","","","","","","",""
"","ITI","","html-keyboard-response","227","545374","0.0-1.0-297.0","0","0","73355","","null","","","null","32","","","","","","","","","","","","","","","NaN",""
"","S1","","html-keyboard-response","228","545628","0.0-1.0-299.0","0","0","73355","","null","","","null","33","","","","","","","","","","","","","","","",""
"","ISI","","html-keyboard-response","229","546133","0.0-1.0-300.0","0","0","73355","","null","","","null","33","NaN","","","","","","","","","","","","","","",""
"","S2","","html-keyboard-response","230","546390","0.0-1.0-301.0","0","0","73355","","null","","","null","33","","NaN","","","","","","","","","","","","","",""
"","response","","html-keyboard-response","231","548149","0.0-1.0-302.0-0.0","0","0","73355","","null","","","null","33","","","1","33","training","adjacent","BA","2","1","O.jpg","P.jpg","NaN","0","0","",""
"","too_slow_prompt","","html-keyboard-response","232","549156","0.0-1.0-304.0-0.0","1","0","73355","","null","","","null","","","","","","","","","","","","","","","","",""
"","time_out","","html-keyboard-response","233","551168","0.0-1.0-305.0-0.0","0","0","73355","","null","","","null","33","","","","","","","","","","","","","","","",""
"","ITI","","html-keyboard-response","234","552176","0.0-1.0-306.0","0","0","73355","","null","","","null","33","","","","","","","","","","","","","","","NaN",""
"","S1","","html-keyboard-response","235","552432","0.0-1.0-308.0","0","0","73355","","null","","","null","34","","","","","","","","","","","","","","","",""
"","ISI","","html-keyboard-response","236","552937","0.0-1.0-309.0","0","0","73355","","null","","","null","34","NaN","","","","","","","","","","","","","","",""
"","S2","","html-keyboard-response","237","553194","0.0-1.0-310.0","0","0","73355","","null","","","null","34","","NaN","","","","","","","","","","","","","",""
"","response","","html-keyboard-response","238","554952","0.0-1.0-311.0-0.0","0","0","73355","","null","","","null","34","","","1","34","training","adjacent","DE","4","5","Q.jpg","L.jpg","NaN","1","0","",""
"","too_slow_prompt","","html-keyboard-response","239","555960","0.0-1.0-313.0-0.0","1","0","73355","","null","","","null","","","","","","","","","","","","","","","","",""
"","time_out","","html-keyboard-response","240","557964","0.0-1.0-314.0-0.0","0","0","73355","","null","","","null","34","","","","","","","","","","","","","","","",""
"","ITI","","html-keyboard-response","241","558970","0.0-1.0-315.0","0","0","73355","","null","","","null","34","","","","","","","","","","","","","","","NaN",""
"","S1","","html-keyboard-response","242","559245","0.0-1.0-317.0","0","0","73355","","null","","","null","35","","","","","","","","","","","","","","","",""
"","ISI","","html-keyboard-response","243","559750","0.0-1.0-318.0","0","0","73355","","null","","","null","35","NaN","","","","","","","","","","","","","","",""
"","S2","","html-keyboard-response","244","560006","0.0-1.0-319.0","0","0","73355","","null","","","null","35","","NaN","","","","","","","","","","","","","",""
"","response","","html-keyboard-response","245","561760","0.0-1.0-320.0-0.0","0","0","73355","","null","","","null","35","","","1","35","training","adjacent","BA","2","1","O.jpg","P.jpg","NaN","0","0","",""
"","too_slow_prompt","","html-keyboard-response","246","562767","0.0-1.0-322.0-0.0","1","0","73355","","null","","","null","","","","","","","","","","","","","","","","",""
"","time_out","","html-keyboard-response","247","564775","0.0-1.0-323.0-0.0","0","0","73355","","null","","","null","35","","","","","","","","","","","","","","","",""
"","ITI","","html-keyboard-response","248","565784","0.0-1.0-324.0","0","0","73355","","null","","","null","35","","","","","","","","","","","","","","","NaN",""
"","S1","","html-keyboard-response","249","566039","0.0-1.0-326.0","0","0","73355","","null","","","null","36","","","","","","","","","","","","","","","",""
"","ISI","","html-keyboard-response","250","566543","0.0-1.0-327.0","0","0","73355","","null","","","null","36","NaN","","","","","","","","","","","","","","",""
"","S2","","html-keyboard-response","251","566799","0.0-1.0-328.0","0","0","73355","","null","","","null","36","","NaN","","","","","","","","","","","","","",""
"","response","","html-keyboard-response","252","566831","0.0-1.0-329.0-0.0","0","0","73355","","27","","","75","36","","","1","36","training","adjacent","CB","3","2","M.jpg","O.jpg","1","0","0","",""
"","feedback","","html-keyboard-response","253","567839","0.0-1.0-330.0-0.0","0","0","73355","","null","","","null","36","","","","","","","","","","","","","","","",""
"","time_out","","html-keyboard-response","254","569846","0.0-1.0-332.0-0.0","0","0","73355","","null","","","null","36","","","","","","","","","","","","","","","",""
"","ITI","","html-keyboard-response","255","570850","0.0-1.0-333.0","0","0","73355","","null","","","null","36","","","","","","","","","","","","","","","NaN",""
"","S1","","html-keyboard-response","256","571108","0.0-1.0-335.0","0","0","73355","","null","","","null","37","","","","","","","","","","","","","","","",""
"","ISI","","html-keyboard-response","257","571612","0.0-1.0-336.0","0","0","73355","","null","","","null","37","NaN","","","","","","","","","","","","","","",""
"","S2","","html-keyboard-response","258","571868","0.0-1.0-337.0","0","0","73355","","null","","","null","37","","NaN","","","","","","","","","","","","","",""
"","response","","html-keyboard-response","259","573624","0.0-1.0-338.0-0.0","0","0","73355","","null","","","null","37","","","1","37","training","adjacent","ED","5","4","L.jpg","Q.jpg","NaN","0","0","",""
"","too_slow_prompt","","html-keyboard-response","260","574634","0.0-1.0-340.0-0.0","1","0","73355","","null","","","null","","","","","","","","","","","","","","","","",""
"","time_out","","html-keyboard-response","261","576644","0.0-1.0-341.0-0.0","0","0","73355","","null","","","null","37","","","","","","","","","","","","","","","",""
"","ITI","","html-keyboard-response","262","577652","0.0-1.0-342.0","0","0","73355","","null","","","null","37","","","","","","","","","","","","","","","NaN",""
"","S1","","html-keyboard-response","263","577910","0.0-1.0-344.0","0","0","73355","","null","","","null","38","","","","","","","","","","","","","","","",""
"","ISI","","html-keyboard-response","264","578414","0.0-1.0-345.0","0","0","73355","","null","","","null","38","NaN","","","","","","","","","","","","","","",""
"","S2","","html-keyboard-response","265","578672","0.0-1.0-346.0","0","0","73355","","null","","","null","38","","NaN","","","","","","","","","","","","","",""
"","response","","html-keyboard-response","266","579554","0.0-1.0-347.0-0.0","0","0","73355","","874","","","75","38","","","1","38","training","adjacent","DC","4","3","Q.jpg","M.jpg","1","0","0","",""
"","feedback","","html-keyboard-response","267","580559","0.0-1.0-348.0-0.0","0","0","73355","","null","","","null","38","","","","","","","","","","","","","","","",""
"","time_out","","html-keyboard-response","268","582566","0.0-1.0-350.0-0.0","0","0","73355","","null","","","null","38","","","","","","","","","","","","","","","",""
"","ITI","","html-keyboard-response","269","583572","0.0-1.0-351.0","0","0","73355","","null","","","null","38","","","","","","","","","","","","","","","NaN",""
"","S1","","html-keyboard-response","270","583827","0.0-1.0-353.0","0","0","73355","","null","","","null","39","","","","","","","","","","","","","","","",""
"","ISI","","html-keyboard-response","271","584334","0.0-1.0-354.0","0","0","73355","","null","","","null","39","NaN","","","","","","","","","","","","","","",""
"","S2","","html-keyboard-response","272","584595","0.0-1.0-355.0","0","0","73355","","null","","","null","39","","NaN","","","","","","","","","","","","","",""
"","response","","html-keyboard-response","273","586360","0.0-1.0-356.0-0.0","0","0","73355","","null","","","null","39","","","1","39","training","adjacent","DE","4","5","Q.jpg","L.jpg","NaN","1","0","",""
"","too_slow_prompt","","html-keyboard-response","274","587370","0.0-1.0-358.0-0.0","1","0","73355","","null","","","null","","","","","","","","","","","","","","","","",""
"","time_out","","html-keyboard-response","275","589376","0.0-1.0-359.0-0.0","0","0","73355","","null","","","null","39","","","","","","","","","","","","","","","",""
"","ITI","","html-keyboard-response","276","590382","0.0-1.0-360.0","0","0","73355","","null","","","null","39","","","","","","","","","","","","","","","NaN",""
"","S1","","html-keyboard-response","277","590640","0.0-1.0-362.0","0","0","73355","","null","","","null","40","","","","","","","","","","","","","","","",""
"","ISI","","html-keyboard-response","278","591145","0.0-1.0-363.0","0","0","73355","","null","","","null","40","NaN","","","","","","","","","","","","","","",""
"","S2","","html-keyboard-response","279","591400","0.0-1.0-364.0","0","0","73355","","null","","","null","40","","NaN","","","","","","","","","","","","","",""
"","response","","html-keyboard-response","280","593158","0.0-1.0-365.0-0.0","0","0","73355","","null","","","null","40","","","1","40","training","adjacent","BA","2","1","O.jpg","P.jpg","NaN","0","0","",""
"","too_slow_prompt","","html-keyboard-response","281","594171","0.0-1.0-367.0-0.0","1","0","73355","","null","","","null","","","","","","","","","","","","","","","","",""
"","time_out","","html-keyboard-response","282","596178","0.0-1.0-368.0-0.0","0","0","73355","","null","","","null","40","","","","","","","","","","","","","","","",""
"","ITI","","html-keyboard-response","283","597185","0.0-1.0-369.0","0","0","73355","","null","","","null","40","","","","","","","","","","","","","","","NaN",""
"","S1","","html-keyboard-response","284","597440","0.0-1.0-371.0","0","0","73355","","null","","","null","41","","","","","","","","","","","","","","","",""
"","ISI","","html-keyboard-response","285","597946","0.0-1.0-372.0","0","0","73355","","null","","","null","41","NaN","","","","","","","","","","","","","","",""
"","S2","","html-keyboard-response","286","598206","0.0-1.0-373.0","0","0","73355","","null","","","null","41","","NaN","","","","","","","","","","","","","",""
"","response","","html-keyboard-response","287","599004","0.0-1.0-374.0-0.0","0","0","73355","","792","","","68","41","","","1","41","training","adjacent","BA","2","1","O.jpg","P.jpg","0","0","1","",""
"","feedback","","html-keyboard-response","288","600013","0.0-1.0-375.0-0.0","0","0","73355","","null","","","null","41","","","","","","","","","","","","","","","",""
"","ITI","","html-keyboard-response","289","601019","0.0-1.0-378.0","0","0","73355","","null","","","null","41","","","","","","","","","","","","","","","NaN",""
"","S1","","html-keyboard-response","290","601274","0.0-1.0-380.0","0","0","73355","","null","","","null","42","","","","","","","","","","","","","","","",""
"","ISI","","html-keyboard-response","291","601778","0.0-1.0-381.0","0","0","73355","","null","","","null","42","NaN","","","","","","","","","","","","","","",""
"","S2","","html-keyboard-response","292","602035","0.0-1.0-382.0","0","0","73355","","null","","","null","42","","NaN","","","","","","","","","","","","","",""
"","response","","html-keyboard-response","293","602724","0.0-1.0-383.0-0.0","0","0","73355","","677","","","75","42","","","1","42","training","adjacent","DC","4","3","Q.jpg","M.jpg","1","0","0","",""
"","feedback","","html-keyboard-response","294","603730","0.0-1.0-384.0-0.0","0","0","73355","","null","","","null","42","","","","","","","","","","","","","","","",""
"","time_out","","html-keyboard-response","295","605737","0.0-1.0-386.0-0.0","0","0","73355","","null","","","null","42","","","","","","","","","","","","","","","",""
"","ITI","","html-keyboard-response","296","606744","0.0-1.0-387.0","0","0","73355","","null","","","null","42","","","","","","","","","","","","","","","NaN",""
"","S1","","html-keyboard-response","297","606999","0.0-1.0-389.0","0","0","73355","","null","","","null","43","","","","","","","","","","","","","","","",""
"","ISI","","html-keyboard-response","298","607509","0.0-1.0-390.0","0","0","73355","","null","","","null","43","NaN","","","","","","","","","","","","","","",""
"","S2","","html-keyboard-response","299","607764","0.0-1.0-391.0","0","0","73355","","null","","","null","43","","NaN","","","","","","","","","","","","","",""
"","response","","html-keyboard-response","300","608511","0.0-1.0-392.0-0.0","0","0","73355","","741","","","68","43","","","1","43","training","adjacent","ED","5","4","L.jpg","Q.jpg","0","0","1","",""
"","feedback","","html-keyboard-response","301","609522","0.0-1.0-393.0-0.0","0","0","73355","","null","","","null","43","","","","","","","","","","","","","","","",""
"","ITI","","html-keyboard-response","302","610537","0.0-1.0-396.0","0","0","73355","","null","","","null","43","","","","","","","","","","","","","","","NaN",""
"","S1","","html-keyboard-response","303","610795","0.0-1.0-398.0","0","0","73355","","null","","","null","44","","","","","","","","","","","","","","","",""
"","ISI","","html-keyboard-response","304","611302","0.0-1.0-399.0","0","0","73355","","null","","","null","44","NaN","","","","","","","","","","","","","","",""
"","S2","","html-keyboard-response","305","611557","0.0-1.0-400.0","0","0","73355","","null","","","null","44","","NaN","","","","","","","","","","","","","",""
"","response","","html-keyboard-response","306","612325","0.0-1.0-401.0-0.0","0","0","73355","","762","","","68","44","","","1","44","training","adjacent","FE","6","5","N.jpg","L.jpg","0","0","1","",""
"","feedback","","html-keyboard-response","307","613340","0.0-1.0-402.0-0.0","0","0","73355","","null","","","null","44","","","","","","","","","","","","","","","",""
"","ITI","","html-keyboard-response","308","614350","0.0-1.0-405.0","0","0","73355","","null","","","null","44","","","","","","","","","","","","","","","NaN",""
"","S1","","html-keyboard-response","309","614607","0.0-1.0-407.0","0","0","73355","","null","","","null","45","","","","","","","","","","","","","","","",""
"","ISI","","html-keyboard-response","310","615112","0.0-1.0-408.0","0","0","73355","","null","","","null","45","NaN","","","","","","","","","","","","","","",""
"","S2","","html-keyboard-response","311","615368","0.0-1.0-409.0","0","0","73355","","null","","","null","45","","NaN","","","","","","","","","","","","","",""
"","response","","html-keyboard-response","312","615992","0.0-1.0-410.0-0.0","0","0","73355","","618","","","68","45","","","1","45","training","adjacent","BC","2","3","O.jpg","M.jpg","0","1","0","",""
"","feedback","","html-keyboard-response","313","616998","0.0-1.0-411.0-0.0","0","0","73355","","null","","","null","45","","","","","","","","","","","","","","","",""
"","time_out","","html-keyboard-response","314","619005","0.0-1.0-413.0-0.0","0","0","73355","","null","","","null","45","","","","","","","","","","","","","","","",""
"","ITI","","html-keyboard-response","315","620009","0.0-1.0-414.0","0","0","73355","","null","","","null","45","","","","","","","","","","","","","","","NaN",""
"","S1","","html-keyboard-response","316","620266","0.0-1.0-416.0","0","0","73355","","null","","","null","46","","","","","","","","","","","","","","","",""
"","ISI","","html-keyboard-response","317","620771","0.0-1.0-417.0","0","0","73355","","null","","","null","46","NaN","","","","","","","","","","","","","","",""
"","S2","","html-keyboard-response","318","621032","0.0-1.0-418.0","0","0","73355","","null","","","null","46","","NaN","","","","","","","","","","","","","",""
"","response","","html-keyboard-response","319","621430","0.0-1.0-419.0-0.0","0","0","73355","","393","","","68","46","","","1","46","training","adjacent","DC","4","3","Q.jpg","M.jpg","0","0","1","",""
"","feedback","","html-keyboard-response","320","622436","0.0-1.0-420.0-0.0","0","0","73355","","null","","","null","46","","","","","","","","","","","","","","","",""
"","ITI","","html-keyboard-response","321","623441","0.0-1.0-423.0","0","0","73355","","null","","","null","46","","","","","","","","","","","","","","","NaN",""
"","S1","","html-keyboard-response","322","623698","0.0-1.0-425.0","0","0","73355","","null","","","null","47","","","","","","","","","","","","","","","",""
"","ISI","","html-keyboard-response","323","624204","0.0-1.0-426.0","0","0","73355","","null","","","null","47","NaN","","","","","","","","","","","","","","",""
"","S2","","html-keyboard-response","324","624460","0.0-1.0-427.0","0","0","73355","","null","","","null","47","","NaN","","","","","","","","","","","","","",""
"","response","","html-keyboard-response","325","624740","0.0-1.0-428.0-0.0","0","0","73355","","275","","","68","47","","","1","47","training","adjacent","CB","3","2","M.jpg","O.jpg","0","0","1","",""
"","feedback","","html-keyboard-response","326","625746","0.0-1.0-429.0-0.0","0","0","73355","","null","","","null","47","","","","","","","","","","","","","","","",""
"","ITI","","html-keyboard-response","327","626751","0.0-1.0-432.0","0","0","73355","","null","","","null","47","","","","","","","","","","","","","","","NaN",""
"","block_over","","html-keyboard-response","328","635268","0.0-1.0-433.0-0.0","0","0","73355","","8506","","","32","47","","","","","","","","","","","","","","","",""
"","S1","","html-keyboard-response","329","635523","0.0-1.0-434.0","0","0","73355","","null","","","null","48","","","","","","","","","","","","","","","",""
"","ISI","","html-keyboard-response","330","636029","0.0-1.0-435.0","0","0","73355","","null","","","null","48","NaN","","","","","","","","","","","","","","",""
"","S2","","html-keyboard-response","331","636285","0.0-1.0-436.0","0","0","73355","","null","","","null","48","","NaN","","","","","","","","","","","","","",""
"","response","","html-keyboard-response","332","637232","0.0-1.0-437.0-0.0","0","0","73355","","942","","","68","48","","","2","48","training","adjacent","FE","6","5","N.jpg","L.jpg","0","0","1","",""
"","feedback","","html-keyboard-response","333","638238","0.0-1.0-438.0-0.0","0","0","73355","","null","","","null","48","","","","","","","","","","","","","","","",""
"","ITI","","html-keyboard-response","334","639245","0.0-1.0-441.0","0","0","73355","","null","","","null","48","","","","","","","","","","","","","","","NaN",""
"","S1","","html-keyboard-response","335","639500","0.0-1.0-443.0","0","0","73355","","null","","","null","49","","","","","","","","","","","","","","","",""
"","ISI","","html-keyboard-response","336","640006","0.0-1.0-444.0","0","0","73355","","null","","","null","49","NaN","","","","","","","","","","","","","","",""
"","S2","","html-keyboard-response","337","640268","0.0-1.0-445.0","0","0","73355","","null","","","null","49","","NaN","","","","","","","","","","","","","",""
"","response","","html-keyboard-response","338","640641","0.0-1.0-446.0-0.0","0","0","73355","","369","","","75","49","","","2","49","training","adjacent","BA","2","1","O.jpg","P.jpg","1","0","0","",""
"","feedback","","html-keyboard-response","339","641649","0.0-1.0-447.0-0.0","0","0","73355","","null","","","null","49","","","","","","","","","","","","","","","",""
"","time_out","","html-keyboard-response","340","643655","0.0-1.0-449.0-0.0","0","0","73355","","null","","","null","49","","","","","","","","","","","","","","","",""
"","ITI","","html-keyboard-response","341","644660","0.0-1.0-450.0","0","0","73355","","null","","","null","49","","","","","","","","","","","","","","","NaN",""
"","S1","","html-keyboard-response","342","644912","0.0-1.0-452.0","0","0","73355","","null","","","null","50","","","","","","","","","","","","","","","",""
"","ISI","","html-keyboard-response","343","645418","0.0-1.0-453.0","0","0","73355","","null","","","null","50","NaN","","","","","","","","","","","","","","",""
"","S2","","html-keyboard-response","344","645675","0.0-1.0-454.0","0","0","73355","","null","","","null","50","","NaN","","","","","","","","","","","","","",""
"","response","","html-keyboard-response","345","645984","0.0-1.0-455.0-0.0","0","0","73355","","302","","","75","50","","","2","50","training","adjacent","CD","3","4","M.jpg","Q.jpg","1","1","1","",""
"","feedback","","html-keyboard-response","346","646994","0.0-1.0-456.0-0.0","0","0","73355","","null","","","null","50","","","","","","","","","","","","","","","",""
"","ITI","","html-keyboard-response","347","648002","0.0-1.0-459.0","0","0","73355","","null","","","null","50","","","","","","","","","","","","","","","NaN",""
"","S1","","html-keyboard-response","348","648259","0.0-1.0-461.0","0","0","73355","","null","","","null","51","","","","","","","","","","","","","","","",""
"","ISI","","html-keyboard-response","349","648764","0.0-1.0-462.0","0","0","73355","","null","","","null","51","NaN","","","","","","","","","","","","","","",""
"","S2","","html-keyboard-response","350","649019","0.0-1.0-463.0","0","0","73355","","null","","","null","51","","NaN","","","","","","","","","","","","","",""
"","response","","html-keyboard-response","351","649749","0.0-1.0-464.0-0.0","0","0","73355","","727","","","75","51","","","2","51","training","adjacent","ED","5","4","L.jpg","Q.jpg","1","0","0","",""
"","feedback","","html-keyboard-response","352","650755","0.0-1.0-465.0-0.0","0","0","73355","","null","","","null","51","","","","","","","","","","","","","","","",""
"","time_out","","html-keyboard-response","353","652764","0.0-1.0-467.0-0.0","0","0","73355","","null","","","null","51","","","","","","","","","","","","","","","",""
"","ITI","","html-keyboard-response","354","653772","0.0-1.0-468.0","0","0","73355","","null","","","null","51","","","","","","","","","","","","","","","NaN",""
"","S1","","html-keyboard-response","355","654027","0.0-1.0-470.0","0","0","73355","","null","","","null","52","","","","","","","","","","","","","","","",""
"","ISI","","html-keyboard-response","356","654541","0.0-1.0-471.0","0","0","73355","","null","","","null","52","NaN","","","","","","","","","","","","","","",""
"","S2","","html-keyboard-response","357","654798","0.0-1.0-472.0","0","0","73355","","null","","","null","52","","NaN","","","","","","","","","","","","","",""
"","response","","html-keyboard-response","358","655363","0.0-1.0-473.0-0.0","0","0","73355","","559","","","75","52","","","2","52","training","adjacent","DC","4","3","Q.jpg","M.jpg","1","0","0","",""
"","feedback","","html-keyboard-response","359","656373","0.0-1.0-474.0-0.0","0","0","73355","","null","","","null","52","","","","","","","","","","","","","","","",""
"","time_out","","html-keyboard-response","360","658381","0.0-1.0-476.0-0.0","0","0","73355","","null","","","null","52","","","","","","","","","","","","","","","",""
"","ITI","","html-keyboard-response","361","659389","0.0-1.0-477.0","0","0","73355","","null","","","null","52","","","","","","","","","","","","","","","NaN",""
"","S1","","html-keyboard-response","362","659645","0.0-1.0-479.0","0","0","73355","","null","","","null","53","","","","","","","","","","","","","","","",""
"","ISI","","html-keyboard-response","363","660151","0.0-1.0-480.0","0","0","73355","","null","","","null","53","NaN","","","","","","","","","","","","","","",""
"","S2","","html-keyboard-response","364","660409","0.0-1.0-481.0","0","0","73355","","null","","","null","53","","NaN","","","","","","","","","","","","","",""
"","response","","html-keyboard-response","365","660861","0.0-1.0-482.0-0.0","0","0","73355","","448","","","68","53","","","2","53","training","adjacent","CB","3","2","M.jpg","O.jpg","0","0","1","",""
"","feedback","","html-keyboard-response","366","661865","0.0-1.0-483.0-0.0","0","0","73355","","null","","","null","53","","","","","","","","","","","","","","","",""
"","ITI","","html-keyboard-response","367","662871","0.0-1.0-486.0","0","0","73355","","null","","","null","53","","","","","","","","","","","","","","","NaN",""
"","S1","","html-keyboard-response","368","663126","0.0-1.0-488.0","0","0","73355","","null","","","null","54","","","","","","","","","","","","","","","",""
"","ISI","","html-keyboard-response","369","663631","0.0-1.0-489.0","0","0","73355","","null","","","null","54","NaN","","","","","","","","","","","","","","",""
"","S2","","html-keyboard-response","370","663889","0.0-1.0-490.0","0","0","73355","","null","","","null","54","","NaN","","","","","","","","","","","","","",""
"","response","","html-keyboard-response","371","664520","0.0-1.0-491.0-0.0","0","0","73355","","626","","","68","54","","","2","54","training","adjacent","BA","2","1","O.jpg","P.jpg","0","0","1","",""
"","feedback","","html-keyboard-response","372","665526","0.0-1.0-492.0-0.0","0","0","73355","","null","","","null","54","","","","","","","","","","","","","","","",""
"","ITI","","html-keyboard-response","373","666532","0.0-1.0-495.0","0","0","73355","","null","","","null","54","","","","","","","","","","","","","","","NaN",""
"","S1","","html-keyboard-response","374","666789","0.0-1.0-497.0","0","0","73355","","null","","","null","55","","","","","","","","","","","","","","","",""
"","ISI","","html-keyboard-response","375","667299","0.0-1.0-498.0","0","0","73355","","null","","","null","55","NaN","","","","","","","","","","","","","","",""
"","S2","","html-keyboard-response","376","667557","0.0-1.0-499.0","0","0","73355","","null","","","null","55","","NaN","","","","","","","","","","","","","",""
"","response","","html-keyboard-response","377","668162","0.0-1.0-500.0-0.0","0","0","73355","","600","","","68","55","","","2","55","training","adjacent","ED","5","4","L.jpg","Q.jpg","0","0","1","",""
"","feedback","","html-keyboard-response","378","669166","0.0-1.0-501.0-0.0","0","0","73355","","null","","","null","55","","","","","","","","","","","","","","","",""
"","ITI","","html-keyboard-response","379","670171","0.0-1.0-504.0","0","0","73355","","null","","","null","55","","","","","","","","","","","","","","","NaN",""
"","S1","","html-keyboard-response","380","670426","0.0-1.0-506.0","0","0","73355","","null","","","null","56","","","","","","","","","","","","","","","",""
"","ISI","","html-keyboard-response","381","670930","0.0-1.0-507.0","0","0","73355","","null","","","null","56","NaN","","","","","","","","","","","","","","",""
"","S2","","html-keyboard-response","382","671186","0.0-1.0-508.0","0","0","73355","","null","","","null","56","","NaN","","","","","","","","","","","","","",""
"","response","","html-keyboard-response","383","671924","0.0-1.0-509.0-0.0","0","0","73355","","733","","","68","56","","","2","56","training","adjacent","FG","6","7","N.jpg","R.jpg","0","1","0","",""
"","feedback","","html-keyboard-response","384","672933","0.0-1.0-510.0-0.0","0","0","73355","","null","","","null","56","","","","","","","","","","","","","","","",""
"","time_out","","html-keyboard-response","385","674943","0.0-1.0-512.0-0.0","0","0","73355","","null","","","null","56","","","","","","","","","","","","","","","",""
"","ITI","","html-keyboard-response","386","675947","0.0-1.0-513.0","0","0","73355","","null","","","null","56","","","","","","","","","","","","","","","NaN",""
"","S1","","html-keyboard-response","387","676204","0.0-1.0-515.0","0","0","73355","","null","","","null","57","","","","","","","","","","","","","","","",""
"","ISI","","html-keyboard-response","388","676711","0.0-1.0-516.0","0","0","73355","","null","","","null","57","NaN","","","","","","","","","","","","","","",""
"","S2","","html-keyboard-response","389","676967","0.0-1.0-517.0","0","0","73355","","null","","","null","57","","NaN","","","","","","","","","","","","","",""
"","response","","html-keyboard-response","390","677355","0.0-1.0-518.0-0.0","0","0","73355","","383","","","75","57","","","2","57","training","adjacent","GF","7","6","R.jpg","N.jpg","1","0","0","",""
"","feedback","","html-keyboard-response","391","678363","0.0-1.0-519.0-0.0","0","0","73355","","null","","","null","57","","","","","","","","","","","","","","","",""
"","time_out","","html-keyboard-response","392","680369","0.0-1.0-521.0-0.0","0","0","73355","","null","","","null","57","","","","","","","","","","","","","","","",""
"","ITI","","html-keyboard-response","393","681373","0.0-1.0-522.0","0","0","73355","","null","","","null","57","","","","","","","","","","","","","","","NaN",""
"","S1","","html-keyboard-response","394","681626","0.0-1.0-524.0","0","0","73355","","null","","","null","58","","","","","","","","","","","","","","","",""
"","ISI","","html-keyboard-response","395","682132","0.0-1.0-525.0","0","0","73355","","38","","","75","58","k","","","","","","","","","","","","","","",""
"","S2","","html-keyboard-response","396","682389","0.0-1.0-526.0","0","0","73355","","null","","","null","58","","NaN","","","","","","","","","","","","","",""
"","response","","html-keyboard-response","397","682760","0.0-1.0-527.0-0.0","0","0","73355","","364","","","75","58","","","2","58","training","adjacent","FE","6","5","N.jpg","L.jpg","1","0","0","",""
"","feedback","","html-keyboard-response","398","683768","0.0-1.0-528.0-0.0","0","0","73355","","null","","","null","58","","","","","","","","","","","","","","","",""
"","time_out","","html-keyboard-response","399","685780","0.0-1.0-530.0-0.0","0","0","73355","","null","","","null","58","","","","","","","","","","","","","","","",""
"","ITI","","html-keyboard-response","400","686790","0.0-1.0-531.0","0","0","73355","","null","","","null","58","","","","","","","","","","","","","","","NaN",""
"","S1","","html-keyboard-response","401","687050","0.0-1.0-533.0","0","0","73355","","null","","","null","59","","","","","","","","","","","","","","","",""
"","ISI","","html-keyboard-response","402","687570","0.0-1.0-534.0","0","0","73355","","null","","","null","59","NaN","","","","","","","","","","","","","","",""
"","S2","","html-keyboard-response","403","687828","0.0-1.0-535.0","0","0","73355","","null","","","null","59","","NaN","","","","","","","","","","","","","",""
"","response","","html-keyboard-response","404","688299","0.0-1.0-536.0-0.0","0","0","73355","","463","","","68","59","","","2","59","training","adjacent","BC","2","3","O.jpg","M.jpg","0","1","0","",""
"","feedback","","html-keyboard-response","405","689305","0.0-1.0-537.0-0.0","0","0","73355","","null","","","null","59","","","","","","","","","","","","","","","",""
"","time_out","","html-keyboard-response","406","691308","0.0-1.0-539.0-0.0","0","0","73355","","null","","","null","59","","","","","","","","","","","","","","","",""
"","ITI","","html-keyboard-response","407","692317","0.0-1.0-540.0","0","0","73355","","null","","","null","59","","","","","","","","","","","","","","","NaN",""
"","S1","","html-keyboard-response","408","692573","0.0-1.0-542.0","0","0","73355","","null","","","null","60","","","","","","","","","","","","","","","",""
"","ISI","","html-keyboard-response","409","693077","0.0-1.0-543.0","0","0","73355","","388","","","75","60","k","","","","","","","","","","","","","","",""
"","S2","","html-keyboard-response","410","693355","0.0-1.0-544.0","0","0","73355","","null","","","null","60","","NaN","","","","","","","","","","","","","",""
"","response","","html-keyboard-response","411","693842","0.0-1.0-545.0-0.0","0","0","73355","","468","","","75","60","","","2","60","training","adjacent","AB","1","2","P.jpg","O.jpg","1","1","1","",""
"","feedback","","html-keyboard-response","412","694849","0.0-1.0-546.0-0.0","0","0","73355","","null","","","null","60","","","","","","","","","","","","","","","",""
"","ITI","","html-keyboard-response","413","695857","0.0-1.0-549.0","0","0","73355","","null","","","null","60","","","","","","","","","","","","","","","NaN",""
"","S1","","html-keyboard-response","414","696166","0.0-1.0-551.0","0","0","73355","","null","","","null","61","","","","","","","","","","","","","","","",""
"","ISI","","html-keyboard-response","415","696670","0.0-1.0-552.0","0","0","73355","","null","","","null","61","NaN","","","","","","","","","","","","","","",""
"","S2","","html-keyboard-response","416","696926","0.0-1.0-553.0","0","0","73355","","null","","","null","61","","NaN","","","","","","","","","","","","","",""
"","response","","html-keyboard-response","417","698687","0.0-1.0-554.0-0.0","0","0","73355","","null","","","null","61","","","2","61","training","adjacent","DE","4","5","Q.jpg","L.jpg","NaN","1","0","",""
"","too_slow_prompt","","html-keyboard-response","418","699698","0.0-1.0-556.0-0.0","1","0","73355","","null","","","null","","","","","","","","","","","","","","","","",""
"","time_out","","html-keyboard-response","419","701744","0.0-1.0-557.0-0.0","0","0","73355","","null","","","null","61","","","","","","","","","","","","","","","",""
"","ITI","","html-keyboard-response","420","702752","0.0-1.0-558.0","0","0","73355","","null","","","null","61","","","","","","","","","","","","","","","NaN",""
"","S1","","html-keyboard-response","421","703009","0.0-1.0-560.0","0","0","73355","","null","","","null","62","","","","","","","","","","","","","","","",""
"","ISI","","html-keyboard-response","422","703515","0.0-1.0-561.0","0","0","73355","","null","","","null","62","NaN","","","","","","","","","","","","","","",""
"","S2","","html-keyboard-response","423","703776","0.0-1.0-562.0","0","0","73355","","null","","","null","62","","NaN","","","","","","","","","","","","","",""
"","response","","html-keyboard-response","424","704536","0.0-1.0-563.0-0.0","0","0","73355","","750","","","75","62","","","2","62","training","adjacent","GF","7","6","R.jpg","N.jpg","1","0","0","",""
"","feedback","","html-keyboard-response","425","705539","0.0-1.0-564.0-0.0","0","0","73355","","null","","","null","62","","","","","","","","","","","","","","","",""
"","time_out","","html-keyboard-response","426","707547","0.0-1.0-566.0-0.0","0","0","73355","","null","","","null","62","","","","","","","","","","","","","","","",""
"","ITI","","html-keyboard-response","427","708551","0.0-1.0-567.0","0","0","73355","","null","","","null","62","","","","","","","","","","","","","","","NaN",""
"","S1","","html-keyboard-response","428","708805","0.0-1.0-569.0","0","0","73355","","null","","","null","63","","","","","","","","","","","","","","","",""
"","ISI","","html-keyboard-response","429","709311","0.0-1.0-570.0","0","0","73355","","null","","","null","63","NaN","","","","","","","","","","","","","","",""
"","S2","","html-keyboard-response","430","709567","0.0-1.0-571.0","0","0","73355","","null","","","null","63","","NaN","","","","","","","","","","","","","",""
"","response","","html-keyboard-response","431","709873","0.0-1.0-572.0-0.0","0","0","73355","","300","","","68","63","","","2","63","training","adjacent","BC","2","3","O.jpg","M.jpg","0","1","0","",""
"","feedback","","html-keyboard-response","432","710881","0.0-1.0-573.0-0.0","0","0","73355","","null","","","null","63","","","","","","","","","","","","","","","",""
"","time_out","","html-keyboard-response","433","712889","0.0-1.0-575.0-0.0","0","0","73355","","null","","","null","63","","","","","","","","","","","","","","","",""
"","ITI","","html-keyboard-response","434","713907","0.0-1.0-576.0","0","0","73355","","null","","","null","63","","","","","","","","","","","","","","","NaN",""
"","S1","","html-keyboard-response","435","714162","0.0-1.0-578.0","0","0","73355","","null","","","null","64","","","","","","","","","","","","","","","",""
"","ISI","","html-keyboard-response","436","714668","0.0-1.0-579.0","0","0","73355","","356","","","75","64","k","","","","","","","","","","","","","","",""
"","S2","","html-keyboard-response","437","714924","0.0-1.0-580.0","0","0","73355","","null","","","null","64","","NaN","","","","","","","","","","","","","",""
"","response","","html-keyboard-response","438","715264","0.0-1.0-581.0-0.0","0","0","73355","","325","","","75","64","","","2","64","training","adjacent","FG","6","7","N.jpg","R.jpg","1","1","1","",""
"","feedback","","html-keyboard-response","439","716271","0.0-1.0-582.0-0.0","0","0","73355","","null","","","null","64","","","","","","","","","","","","","","","",""
"","ITI","","html-keyboard-response","440","717278","0.0-1.0-585.0","0","0","73355","","null","","","null","64","","","","","","","","","","","","","","","NaN",""
"","S1","","html-keyboard-response","441","717535","0.0-1.0-587.0","0","0","73355","","null","","","null","65","","","","","","","","","","","","","","","",""
"","ISI","","html-keyboard-response","442","718041","0.0-1.0-588.0","0","0","73355","","null","","","null","65","NaN","","","","","","","","","","","","","","",""
"","S2","","html-keyboard-response","443","718297","0.0-1.0-589.0","0","0","73355","","null","","","null","65","","NaN","","","","","","","","","","","","","",""
"","response","","html-keyboard-response","444","719003","0.0-1.0-590.0-0.0","0","0","73355","","700","","","75","65","","","2","65","training","adjacent","FG","6","7","N.jpg","R.jpg","1","1","1","",""
"","feedback","","html-keyboard-response","445","720009","0.0-1.0-591.0-0.0","0","0","73355","","null","","","null","65","","","","","","","","","","","","","","","",""
"","ITI","","html-keyboard-response","446","721012","0.0-1.0-594.0","0","0","73355","","null","","","null","65","","","","","","","","","","","","","","","NaN",""
"","S1","","html-keyboard-response","447","721265","0.0-1.0-596.0","0","0","73355","","null","","","null","66","","","","","","","","","","","","","","","",""
"","ISI","","html-keyboard-response","448","721771","0.0-1.0-597.0","0","0","73355","","null","","","null","66","NaN","","","","","","","","","","","","","","",""
"","S2","","html-keyboard-response","449","722030","0.0-1.0-598.0","0","0","73355","","null","","","null","66","","NaN","","","","","","","","","","","","","",""
"","response","","html-keyboard-response","450","723121","0.0-1.0-599.0-0.0","0","0","73355","","1086","","","75","66","","","2","66","training","adjacent","AB","1","2","P.jpg","O.jpg","1","1","1","",""
"","feedback","","html-keyboard-response","451","724147","0.0-1.0-600.0-0.0","0","0","73355","","null","","","null","66","","","","","","","","","","","","","","","",""
"","ITI","","html-keyboard-response","452","725155","0.0-1.0-603.0","0","0","73355","","null","","","null","66","","","","","","","","","","","","","","","NaN",""
"","S1","","html-keyboard-response","453","725415","0.0-1.0-605.0","0","0","73355","","null","","","null","67","","","","","","","","","","","","","","","",""
"","ISI","","html-keyboard-response","454","725920","0.0-1.0-606.0","0","0","73355","","null","","","null","67","NaN","","","","","","","","","","","","","","",""
"","S2","","html-keyboard-response","455","726176","0.0-1.0-607.0","0","0","73355","","null","","","null","67","","NaN","","","","","","","","","","","","","",""
"","response","","html-keyboard-response","456","726545","0.0-1.0-608.0-0.0","0","0","73355","","361","","","68","67","","","2","67","training","adjacent","DC","4","3","Q.jpg","M.jpg","0","0","1","",""
"","feedback","","html-keyboard-response","457","727581","0.0-1.0-609.0-0.0","0","0","73355","","null","","","null","67","","","","","","","","","","","","","","","",""
"","ITI","","html-keyboard-response","458","728590","0.0-1.0-612.0","0","0","73355","","null","","","null","67","","","","","","","","","","","","","","","NaN",""
"","S1","","html-keyboard-response","459","728845","0.0-1.0-614.0","0","0","73355","","null","","","null","68","","","","","","","","","","","","","","","",""
"","ISI","","html-keyboard-response","460","729353","0.0-1.0-615.0","0","0","73355","","null","","","null","68","NaN","","","","","","","","","","","","","","",""
"","S2","","html-keyboard-response","461","729610","0.0-1.0-616.0","0","0","73355","","null","","","null","68","","NaN","","","","","","","","","","","","","",""
"","response","","html-keyboard-response","462","730003","0.0-1.0-617.0-0.0","0","0","73355","","388","","","68","68","","","2","68","training","adjacent","BC","2","3","O.jpg","M.jpg","0","1","0","",""
"","feedback","","html-keyboard-response","463","731010","0.0-1.0-618.0-0.0","0","0","73355","","null","","","null","68","","","","","","","","","","","","","","","",""
"","time_out","","html-keyboard-response","464","733018","0.0-1.0-620.0-0.0","0","0","73355","","null","","","null","68","","","","","","","","","","","","","","","",""
"","ITI","","html-keyboard-response","465","734025","0.0-1.0-621.0","0","0","73355","","null","","","null","68","","","","","","","","","","","","","","","NaN",""
"","S1","","html-keyboard-response","466","734280","0.0-1.0-623.0","0","0","73355","","null","","","null","69","","","","","","","","","","","","","","","",""
"","ISI","","html-keyboard-response","467","734785","0.0-1.0-624.0","0","0","73355","","null","","","null","69","NaN","","","","","","","","","","","","","","",""
"","S2","","html-keyboard-response","468","735042","0.0-1.0-625.0","0","0","73355","","null","","","null","69","","NaN","","","","","","","","","","","","","",""
"","response","","html-keyboard-response","469","735414","0.0-1.0-626.0-0.0","0","0","73355","","366","","","68","69","","","2","69","training","adjacent","GF","7","6","R.jpg","N.jpg","0","0","1","",""
"","feedback","","html-keyboard-response","470","736423","0.0-1.0-627.0-0.0","0","0","73355","","null","","","null","69","","","","","","","","","","","","","","","",""
"","ITI","","html-keyboard-response","471","737430","0.0-1.0-630.0","0","0","73355","","null","","","null","69","","","","","","","","","","","","","","","NaN",""
"","S1","","html-keyboard-response","472","737686","0.0-1.0-632.0","0","0","73355","","null","","","null","70","","","","","","","","","","","","","","","",""
"","ISI","","html-keyboard-response","473","738202","0.0-1.0-633.0","0","0","73355","","null","","","null","70","NaN","","","","","","","","","","","","","","",""
"","S2","","html-keyboard-response","474","738461","0.0-1.0-634.0","0","0","73355","","null","","","null","70","","NaN","","","","","","","","","","","","","",""
"","response","","html-keyboard-response","475","739506","0.0-1.0-635.0-0.0","0","0","73355","","1037","","","75","70","","","2","70","training","adjacent","FE","6","5","N.jpg","L.jpg","1","0","0","",""
"","feedback","","html-keyboard-response","476","740514","0.0-1.0-636.0-0.0","0","0","73355","","null","","","null","70","","","","","","","","","","","","","","","",""
"","time_out","","html-keyboard-response","477","742520","0.0-1.0-638.0-0.0","0","0","73355","","null","","","null","70","","","","","","","","","","","","","","","",""
"","ITI","","html-keyboard-response","478","743525","0.0-1.0-639.0","0","0","73355","","null","","","null","70","","","","","","","","","","","","","","","NaN",""
"","S1","","html-keyboard-response","479","743781","0.0-1.0-641.0","0","0","73355","","null","","","null","71","","","","","","","","","","","","","","","",""
"","ISI","","html-keyboard-response","480","744284","0.0-1.0-642.0","0","0","73355","","null","","","null","71","NaN","","","","","","","","","","","","","","",""
"","S2","","html-keyboard-response","481","744539","0.0-1.0-643.0","0","0","73355","","null","","","null","71","","NaN","","","","","","","","","","","","","",""
"","response","","html-keyboard-response","482","745260","0.0-1.0-644.0-0.0","0","0","73355","","715","","","75","71","","","2","71","training","adjacent","ED","5","4","L.jpg","Q.jpg","1","0","0","",""
"","feedback","","html-keyboard-response","483","746266","0.0-1.0-645.0-0.0","0","0","73355","","null","","","null","71","","","","","","","","","","","","","","","",""
"","time_out","","html-keyboard-response","484","748273","0.0-1.0-647.0-0.0","0","0","73355","","null","","","null","71","","","","","","","","","","","","","","","",""
"","ITI","","html-keyboard-response","485","749338","0.0-1.0-648.0","0","0","73355","","null","","","null","71","","","","","","","","","","","","","","","NaN",""
"","S1","","html-keyboard-response","486","749595","0.0-1.0-650.0","0","0","73355","","null","","","null","72","","","","","","","","","","","","","","","",""
"","ISI","","html-keyboard-response","487","750102","0.0-1.0-651.0","0","0","73355","","null","","","null","72","NaN","","","","","","","","","","","","","","",""
"","S2","","html-keyboard-response","488","750362","0.0-1.0-652.0","0","0","73355","","null","","","null","72","","NaN","","","","","","","","","","","","","",""
"","response","","html-keyboard-response","489","751007","0.0-1.0-653.0-0.0","0","0","73355","","639","","","75","72","","","2","72","training","adjacent","CD","3","4","M.jpg","Q.jpg","1","1","1","",""
"","feedback","","html-keyboard-response","490","752014","0.0-1.0-654.0-0.0","0","0","73355","","null","","","null","72","","","","","","","","","","","","","","","",""
"","ITI","","html-keyboard-response","491","753019","0.0-1.0-657.0","0","0","73355","","null","","","null","72","","","","","","","","","","","","","","","NaN",""
"","S1","","html-keyboard-response","492","753274","0.0-1.0-659.0","0","0","73355","","null","","","null","73","","","","","","","","","","","","","","","",""
"","ISI","","html-keyboard-response","493","753778","0.0-1.0-660.0","0","0","73355","","null","","","null","73","NaN","","","","","","","","","","","","","","",""
"","S2","","html-keyboard-response","494","754034","0.0-1.0-661.0","0","0","73355","","null","","","null","73","","NaN","","","","","","","","","","","","","",""
"","response","","html-keyboard-response","495","754720","0.0-1.0-662.0-0.0","0","0","73355","","681","","","68","73","","","2","73","training","adjacent","CB","3","2","M.jpg","O.jpg","0","0","1","",""
"","feedback","","html-keyboard-response","496","755725","0.0-1.0-663.0-0.0","0","0","73355","","null","","","null","73","","","","","","","","","","","","","","","",""
"","ITI","","html-keyboard-response","497","756732","0.0-1.0-666.0","0","0","73355","","null","","","null","73","","","","","","","","","","","","","","","NaN",""
"","S1","","html-keyboard-response","498","756999","0.0-1.0-668.0","0","0","73355","","null","","","null","74","","","","","","","","","","","","","","","",""
"","ISI","","html-keyboard-response","499","757505","0.0-1.0-669.0","0","0","73355","","null","","","null","74","NaN","","","","","","","","","","","","","","",""
"","S2","","html-keyboard-response","500","757761","0.0-1.0-670.0","0","0","73355","","null","","","null","74","","NaN","","","","","","","","","","","","","",""
"","response","","html-keyboard-response","501","758454","0.0-1.0-671.0-0.0","0","0","73355","","685","","","75","74","","","2","74","training","adjacent","CD","3","4","M.jpg","Q.jpg","1","1","1","",""
"","feedback","","html-keyboard-response","502","759463","0.0-1.0-672.0-0.0","0","0","73355","","null","","","null","74","","","","","","","","","","","","","","","",""
"","ITI","","html-keyboard-response","503","760473","0.0-1.0-675.0","0","0","73355","","null","","","null","74","","","","","","","","","","","","","","","NaN",""
"","S1","","html-keyboard-response","504","760730","0.0-1.0-677.0","0","0","73355","","null","","","null","75","","","","","","","","","","","","","","","",""
"","ISI","","html-keyboard-response","505","761289","0.0-1.0-678.0","0","0","73355","","null","","","null","75","NaN","","","","","","","","","","","","","","",""
"","S2","","html-keyboard-response","506","761546","0.0-1.0-679.0","0","0","73355","","null","","","null","75","","NaN","","","","","","","","","","","","","",""
"","response","","html-keyboard-response","507","762319","0.0-1.0-680.0-0.0","0","0","73355","","768","","","75","75","","","2","75","training","adjacent","EF","5","6","L.jpg","N.jpg","1","1","1","",""
"","feedback","","html-keyboard-response","508","763327","0.0-1.0-681.0-0.0","0","0","73355","","null","","","null","75","","","","","","","","","","","","","","","",""
"","ITI","","html-keyboard-response","509","764333","0.0-1.0-684.0","0","0","73355","","null","","","null","75","","","","","","","","","","","","","","","NaN",""
"","S1","","html-keyboard-response","510","764588","0.0-1.0-686.0","0","0","73355","","null","","","null","76","","","","","","","","","","","","","","","",""
"","ISI","","html-keyboard-response","511","765091","0.0-1.0-687.0","0","0","73355","","null","","","null","76","NaN","","","","","","","","","","","","","","",""
"","S2","","html-keyboard-response","512","765348","0.0-1.0-688.0","0","0","73355","","null","","","null","76","","NaN","","","","","","","","","","","","","",""
"","response","","html-keyboard-response","513","765873","0.0-1.0-689.0-0.0","0","0","73355","","518","","","75","76","","","2","76","training","adjacent","DC","4","3","Q.jpg","M.jpg","1","0","0","",""
"","feedback","","html-keyboard-response","514","766880","0.0-1.0-690.0-0.0","0","0","73355","","null","","","null","76","","","","","","","","","","","","","","","",""
"","time_out","","html-keyboard-response","515","768888","0.0-1.0-692.0-0.0","0","0","73355","","null","","","null","76","","","","","","","","","","","","","","","",""
"","ITI","","html-keyboard-response","516","769895","0.0-1.0-693.0","0","0","73355","","null","","","null","76","","","","","","","","","","","","","","","NaN",""
"","S1","","html-keyboard-response","517","770154","0.0-1.0-695.0","0","0","73355","","null","","","null","77","","","","","","","","","","","","","","","",""
"","ISI","","html-keyboard-response","518","770659","0.0-1.0-696.0","0","0","73355","","null","","","null","77","NaN","","","","","","","","","","","","","","",""
"","S2","","html-keyboard-response","519","770921","0.0-1.0-697.0","0","0","73355","","null","","","null","77","","NaN","","","","","","","","","","","","","",""
"","response","","html-keyboard-response","520","771293","0.0-1.0-698.0-0.0","0","0","73355","","367","","","68","77","","","2","77","training","adjacent","BA","2","1","O.jpg","P.jpg","0","0","1","",""
"","feedback","","html-keyboard-response","521","772299","0.0-1.0-699.0-0.0","0","0","73355","","null","","","null","77","","","","","","","","","","","","","","","",""
"","ITI","","html-keyboard-response","522","773303","0.0-1.0-702.0","0","0","73355","","null","","","null","77","","","","","","","","","","","","","","","NaN",""
"","S1","","html-keyboard-response","523","773558","0.0-1.0-704.0","0","0","73355","","null","","","null","78","","","","","","","","","","","","","","","",""
"","ISI","","html-keyboard-response","524","774065","0.0-1.0-705.0","0","0","73355","","null","","","null","78","NaN","","","","","","","","","","","","","","",""
"","S2","","html-keyboard-response","525","774320","0.0-1.0-706.0","0","0","73355","","null","","","null","78","","NaN","","","","","","","","","","","","","",""
"","response","","html-keyboard-response","526","774781","0.0-1.0-707.0-0.0","0","0","73355","","447","","","68","78","","","2","78","training","adjacent","EF","5","6","L.jpg","N.jpg","0","1","0","",""
"","feedback","","html-keyboard-response","527","775787","0.0-1.0-708.0-0.0","0","0","73355","","null","","","null","78","","","","","","","","","","","","","","","",""
"","time_out","","html-keyboard-response","528","777792","0.0-1.0-710.0-0.0","0","0","73355","","null","","","null","78","","","","","","","","","","","","","","","",""
"","ITI","","html-keyboard-response","529","778798","0.0-1.0-711.0","0","0","73355","","null","","","null","78","","","","","","","","","","","","","","","NaN",""
"","S1","","html-keyboard-response","530","779052","0.0-1.0-713.0","0","0","73355","","null","","","null","79","","","","","","","","","","","","","","","",""
"","ISI","","html-keyboard-response","531","779555","0.0-1.0-714.0","0","0","73355","","414","","","75","79","k","","","","","","","","","","","","","","",""
"","S2","","html-keyboard-response","532","779812","0.0-1.0-715.0","0","0","73355","","null","","","null","79","","NaN","","","","","","","","","","","","","",""
"","response","","html-keyboard-response","533","780430","0.0-1.0-716.0-0.0","0","0","73355","","612","","","75","79","","","2","79","training","adjacent","CB","3","2","M.jpg","O.jpg","1","0","0","",""
"","feedback","","html-keyboard-response","534","781438","0.0-1.0-717.0-0.0","0","0","73355","","null","","","null","79","","","","","","","","","","","","","","","",""
"","time_out","","html-keyboard-response","535","783446","0.0-1.0-719.0-0.0","0","0","73355","","null","","","null","79","","","","","","","","","","","","","","","",""
"","ITI","","html-keyboard-response","536","784454","0.0-1.0-720.0","0","0","73355","","null","","","null","79","","","","","","","","","","","","","","","NaN",""
"","S1","","html-keyboard-response","537","784710","0.0-1.0-722.0","0","0","73355","","null","","","null","80","","","","","","","","","","","","","","","",""
"","ISI","","html-keyboard-response","538","785215","0.0-1.0-723.0","0","0","73355","","null","","","null","80","NaN","","","","","","","","","","","","","","",""
"","S2","","html-keyboard-response","539","785474","0.0-1.0-724.0","0","0","73355","","null","","","null","80","","NaN","","","","","","","","","","","","","",""
"","response","","html-keyboard-response","540","786036","0.0-1.0-725.0-0.0","0","0","73355","","556","","","68","80","","","2","80","training","adjacent","CD","3","4","M.jpg","Q.jpg","0","1","0","",""
"","feedback","","html-keyboard-response","541","787048","0.0-1.0-726.0-0.0","0","0","73355","","null","","","null","80","","","","","","","","","","","","","","","",""
"","time_out","","html-keyboard-response","542","789055","0.0-1.0-728.0-0.0","0","0","73355","","null","","","null","80","","","","","","","","","","","","","","","",""
"","ITI","","html-keyboard-response","543","790060","0.0-1.0-729.0","0","0","73355","","null","","","null","80","","","","","","","","","","","","","","","NaN",""
"","S1","","html-keyboard-response","544","790314","0.0-1.0-731.0","0","0","73355","","null","","","null","81","","","","","","","","","","","","","","","",""
"","ISI","","html-keyboard-response","545","790821","0.0-1.0-732.0","0","0","73355","","null","","","null","81","NaN","","","","","","","","","","","","","","",""
"","S2","","html-keyboard-response","546","791079","0.0-1.0-733.0","0","0","73355","","null","","","null","81","","NaN","","","","","","","","","","","","","",""
"","response","","html-keyboard-response","547","791395","0.0-1.0-734.0-0.0","0","0","73355","","310","","","75","81","","","2","81","training","adjacent","FG","6","7","N.jpg","R.jpg","1","1","1","",""
"","feedback","","html-keyboard-response","548","792404","0.0-1.0-735.0-0.0","0","0","73355","","null","","","null","81","","","","","","","","","","","","","","","",""
"","ITI","","html-keyboard-response","549","793412","0.0-1.0-738.0","0","0","73355","","null","","","null","81","","","","","","","","","","","","","","","NaN",""
"","S1","","html-keyboard-response","550","793667","0.0-1.0-740.0","0","0","73355","","null","","","null","82","","","","","","","","","","","","","","","",""
"","ISI","","html-keyboard-response","551","794172","0.0-1.0-741.0","0","0","73355","","null","","","null","82","NaN","","","","","","","","","","","","","","",""
"","S2","","html-keyboard-response","552","794428","0.0-1.0-742.0","0","0","73355","","null","","","null","82","","NaN","","","","","","","","","","","","","",""
"","response","","html-keyboard-response","553","796107","0.0-1.0-743.0-0.0","0","0","73355","","1672","","","75","82","","","2","82","training","adjacent","DE","4","5","Q.jpg","L.jpg","1","1","1","",""
"","feedback","","html-keyboard-response","554","797115","0.0-1.0-744.0-0.0","0","0","73355","","null","","","null","82","","","","","","","","","","","","","","","",""
"","ITI","","html-keyboard-response","555","798121","0.0-1.0-747.0","0","0","73355","","null","","","null","82","","","","","","","","","","","","","","","NaN",""
"","S1","","html-keyboard-response","556","798376","0.0-1.0-749.0","0","0","73355","","null","","","null","83","","","","","","","","","","","","","","","",""
"","ISI","","html-keyboard-response","557","798881","0.0-1.0-750.0","0","0","73355","","null","","","null","83","NaN","","","","","","","","","","","","","","",""
"","S2","","html-keyboard-response","558","799139","0.0-1.0-751.0","0","0","73355","","null","","","null","83","","NaN","","","","","","","","","","","","","",""
"","response","","html-keyboard-response","559","800061","0.0-1.0-752.0-0.0","0","0","73355","","917","","","75","83","","","2","83","training","adjacent","BA","2","1","O.jpg","P.jpg","1","0","0","",""
"","feedback","","html-keyboard-response","560","801067","0.0-1.0-753.0-0.0","0","0","73355","","null","","","null","83","","","","","","","","","","","","","","","",""
"","time_out","","html-keyboard-response","561","803075","0.0-1.0-755.0-0.0","0","0","73355","","null","","","null","83","","","","","","","","","","","","","","","",""
"","ITI","","html-keyboard-response","562","804081","0.0-1.0-756.0","0","0","73355","","null","","","null","83","","","","","","","","","","","","","","","NaN",""
"","S1","","html-keyboard-response","563","804363","0.0-1.0-758.0","0","0","73355","","null","","","null","84","","","","","","","","","","","","","","","",""
"","ISI","","html-keyboard-response","564","804868","0.0-1.0-759.0","0","0","73355","","null","","","null","84","NaN","","","","","","","","","","","","","","",""
"","S2","","html-keyboard-response","565","804924","0.0-1.0-760.0","0","0","73355","","48","","","68","84","","d","2","84","training","adjacent","AB","1","2","P.jpg","O.jpg","0","1","0","",""
"","feedback","","html-keyboard-response","566","805936","0.0-1.0-762.0-0.0","0","0","73355","","null","","","null","84","","","","","","","","","","","","","","","",""
"","time_out","","html-keyboard-response","567","807943","0.0-1.0-764.0-0.0","0","0","73355","","null","","","null","84","","","","","","","","","","","","","","","",""
"","ITI","","html-keyboard-response","568","808947","0.0-1.0-765.0","0","0","73355","","null","","","null","84","","","","","","","","","","","","","","","NaN",""
"","S1","","html-keyboard-response","569","809268","0.0-1.0-767.0","0","0","73355","","null","","","null","85","","","","","","","","","","","","","","","",""
"","ISI","","html-keyboard-response","570","809774","0.0-1.0-768.0","0","0","73355","","null","","","null","85","NaN","","","","","","","","","","","","","","",""
"","S2","","html-keyboard-response","571","810031","0.0-1.0-769.0","0","0","73355","","null","","","null","85","","NaN","","","","","","","","","","","","","",""
"","response","","html-keyboard-response","572","810618","0.0-1.0-770.0-0.0","0","0","73355","","580","","","75","85","","","2","85","training","adjacent","AB","1","2","P.jpg","O.jpg","1","1","1","",""
"","feedback","","html-keyboard-response","573","811625","0.0-1.0-771.0-0.0","0","0","73355","","null","","","null","85","","","","","","","","","","","","","","","",""
"","ITI","","html-keyboard-response","574","812630","0.0-1.0-774.0","0","0","73355","","null","","","null","85","","","","","","","","","","","","","","","NaN",""
"","S1","","html-keyboard-response","575","812888","0.0-1.0-776.0","0","0","73355","","null","","","null","86","","","","","","","","","","","","","","","",""
"","ISI","","html-keyboard-response","576","813391","0.0-1.0-777.0","0","0","73355","","null","","","null","86","NaN","","","","","","","","","","","","","","",""
"","S2","","html-keyboard-response","577","813644","0.0-1.0-778.0","0","0","73355","","null","","","null","86","","NaN","","","","","","","","","","","","","",""
"","response","","html-keyboard-response","578","814048","0.0-1.0-779.0-0.0","0","0","73355","","397","","","75","86","","","2","86","training","adjacent","DE","4","5","Q.jpg","L.jpg","1","1","1","",""
"","feedback","","html-keyboard-response","579","815058","0.0-1.0-780.0-0.0","0","0","73355","","null","","","null","86","","","","","","","","","","","","","","","",""
