"success","ttype","start_time","trial_type","trial_index","time_elapsed","internal_node_id","warning","missed_checkup","PID","view_history","rt","responses","repeat_instructions","key_press","index","keypress_isi","keypress_S2","block","trial_num","phase","group_type","pair_type","S1_stim","S2_stim","S1_img","S2_img","S1_chosen","S1_higher","accuracy","keypress_iti","total_bonus_tally"
"true","full_screen","d03072023hr2004","fullscreen","0","6467","0.0-0.0","0","0","42716","","","","","","","","","","","","","","","","","","","","","",""
"","instructions","","instructions","1","52830","0.0-1.0-0.0-0.0","0","0","42716","[{""page_index"":0,""viewing_time"":6097},{""page_index"":1,""viewing_time"":24114},{""page_index"":2,""viewing_time"":14216},{""page_index"":3,""viewing_time"":1931}]","46358","","","","","","","","","","","","","","","","","","","",""
"","comprehension_check","","survey-multi-choice","2","78608","0.0-1.0-0.0-1.0","0","0","42716","","25770","{""Q0"":""True"",""Q1"":""D"",""Q2"":""Once the second image appears and while the screen 'MAKE A CHOICE' is shown"",""Q3"":""Green mark"",""Q4"":""either D or K""}","0","","","","","","","","","","","","","","","","","",""
"","start_exp","","html-keyboard-response","3","81659","0.0-1.0-1.0","0","0","42716","","3046","","","32","","","","","","","","","","","","","","","","",""
"","S1","","html-keyboard-response","4","81918","0.0-1.0-2.0","0","0","42716","","null","","","null","0","","","","","","","","","","","","","","","",""
"","ISI","","html-keyboard-response","5","82933","0.0-1.0-3.0","0","0","42716","","null","","","null","0","NaN","","","","","","","","","","","","","","",""
"","S2","","html-keyboard-response","6","83198","0.0-1.0-4.0","0","0","42716","","null","","","null","0","","NaN","","","","","","","","","","","","","",""
"","response","","html-keyboard-response","7","84965","0.0-1.0-5.0-0.0","0","0","42716","","null","","","null","0","","","1","0","training","adjacent","DE","4","5","R.jpg","M.jpg","NaN","1","0","",""
"","too_slow_prompt","","html-keyboard-response","8","85983","0.0-1.0-7.0-0.0","1","0","42716","","null","","","null","","","","","","","","","","","","","","","","",""
"","time_out","","html-keyboard-response","9","87989","0.0-1.0-8.0-0.0","0","0","42716","","null","","","null","0","","","","","","","","","","","","","","","",""
"","ITI","","html-keyboard-response","10","89008","0.0-1.0-9.0","0","0","42716","","null","","","null","0","","","","","","","","","","","","","","","NaN",""
"","S1","","html-keyboard-response","11","89270","0.0-1.0-11.0","0","0","42716","","null","","","null","1","","","","","","","","","","","","","","","",""
"","ISI","","html-keyboard-response","12","90273","0.0-1.0-12.0","0","0","42716","","null","","","null","1","NaN","","","","","","","","","","","","","","",""
"","S2","","html-keyboard-response","13","90537","0.0-1.0-13.0","0","0","42716","","null","","","null","1","","NaN","","","","","","","","","","","","","",""
"","response","","html-keyboard-response","14","91899","0.0-1.0-14.0-0.0","0","0","42716","","1358","","","75","1","","","1","1","training","adjacent","BC","2","3","Q.jpg","O.jpg","0","1","0","",""
"","feedback","","html-keyboard-response","15","92904","0.0-1.0-15.0-0.0","0","0","42716","","null","","","null","1","","","","","","","","","","","","","","","",""
"","time_out","","html-keyboard-response","16","94907","0.0-1.0-17.0-0.0","0","0","42716","","null","","","null","1","","","","","","","","","","","","","","","",""
"","ITI","","html-keyboard-response","17","95923","0.0-1.0-18.0","0","0","42716","","null","","","null","1","","","","","","","","","","","","","","","NaN",""
"","S1","","html-keyboard-response","18","96189","0.0-1.0-20.0","0","0","42716","","null","","","null","2","","","","","","","","","","","","","","","",""
"","ISI","","html-keyboard-response","19","97206","0.0-1.0-21.0","0","0","42716","","null","","","null","2","NaN","","","","","","","","","","","","","","",""
"","S2","","html-keyboard-response","20","97470","0.0-1.0-22.0","0","0","42716","","null","","","null","2","","NaN","","","","","","","","","","","","","",""
"","response","","html-keyboard-response","21","97801","0.0-1.0-23.0-0.0","0","0","42716","","329","","","68","2","","","1","2","training","adjacent","DC","4","3","R.jpg","O.jpg","1","0","0","",""
"","feedback","","html-keyboard-response","22","98816","0.0-1.0-24.0-0.0","0","0","42716","","null","","","null","2","","","","","","","","","","","","","","","",""
"","time_out","","html-keyboard-response","23","100823","0.0-1.0-26.0-0.0","0","0","42716","","null","","","null","2","","","","","","","","","","","","","","","",""
"","ITI","","html-keyboard-response","24","101830","0.0-1.0-27.0","0","0","42716","","null","","","null","2","","","","","","","","","","","","","","","NaN",""
"","S1","","html-keyboard-response","25","102095","0.0-1.0-29.0","0","0","42716","","null","","","null","3","","","","","","","","","","","","","","","",""
"","ISI","","html-keyboard-response","26","103112","0.0-1.0-30.0","0","0","42716","","null","","","null","3","NaN","","","","","","","","","","","","","","",""
"","S2","","html-keyboard-response","27","103377","0.0-1.0-31.0","0","0","42716","","null","","","null","3","","NaN","","","","","","","","","","","","","",""
"","response","","html-keyboard-response","28","103650","0.0-1.0-32.0-0.0","0","0","42716","","269","","","75","3","","","1","3","training","adjacent","EF","5","6","M.jpg","L.jpg","0","1","0","",""
"","feedback","","html-keyboard-response","29","104659","0.0-1.0-33.0-0.0","0","0","42716","","null","","","null","3","","","","","","","","","","","","","","","",""
"","time_out","","html-keyboard-response","30","106666","0.0-1.0-35.0-0.0","0","0","42716","","null","","","null","3","","","","","","","","","","","","","","","",""
"","ITI","","html-keyboard-response","31","107671","0.0-1.0-36.0","0","0","42716","","null","","","null","3","","","","","","","","","","","","","","","NaN",""
"","S1","","html-keyboard-response","32","107936","0.0-1.0-38.0","0","0","42716","","null","","","null","4","","","","","","","","","","","","","","","",""
"","ISI","","html-keyboard-response","33","108952","0.0-1.0-39.0","0","0","42716","","null","","","null","4","NaN","","","","","","","","","","","","","","",""
"","S2","","html-keyboard-response","34","109219","0.0-1.0-40.0","0","0","42716","","null","","","null","4","","NaN","","","","","","","","","","","","","",""
"","response","","html-keyboard-response","35","109722","0.0-1.0-41.0-0.0","0","0","42716","","498","","","75","4","","","1","4","training","adjacent","DC","4","3","R.jpg","O.jpg","0","0","1","",""
"","feedback","","html-keyboard-response","36","110741","0.0-1.0-42.0-0.0","0","0","42716","","null","","","null","4","","","","","","","","","","","","","","","",""
"","ITI","","html-keyboard-response","37","111760","0.0-1.0-45.0","0","0","42716","","null","","","null","4","","","","","","","","","","","","","","","NaN",""
"","S1","","html-keyboard-response","38","112025","0.0-1.0-47.0","0","0","42716","","null","","","null","5","","","","","","","","","","","","","","","",""
"","ISI","","html-keyboard-response","39","113042","0.0-1.0-48.0","0","0","42716","","null","","","null","5","NaN","","","","","","","","","","","","","","",""
"","S2","","html-keyboard-response","40","113307","0.0-1.0-49.0","0","0","42716","","null","","","null","5","","NaN","","","","","","","","","","","","","",""
"","response","","html-keyboard-response","41","113354","0.0-1.0-50.0-0.0","0","0","42716","","43","","","75","5","","","1","5","training","adjacent","FE","6","5","L.jpg","M.jpg","0","0","1","",""
"","feedback","","html-keyboard-response","42","114369","0.0-1.0-51.0-0.0","0","0","42716","","null","","","null","5","","","","","","","","","","","","","","","",""
"","ITI","","html-keyboard-response","43","115388","0.0-1.0-54.0","0","0","42716","","null","","","null","5","","","","","","","","","","","","","","","NaN",""
"","S1","","html-keyboard-response","44","115654","0.0-1.0-56.0","0","0","42716","","null","","","null","6","","","","","","","","","","","","","","","",""
"","ISI","","html-keyboard-response","45","116670","0.0-1.0-57.0","0","0","42716","","null","","","null","6","NaN","","","","","","","","","","","","","","",""
"","S2","","html-keyboard-response","46","116935","0.0-1.0-58.0","0","0","42716","","null","","","null","6","","NaN","","","","","","","","","","","","","",""
"","response","","html-keyboard-response","47","117377","0.0-1.0-59.0-0.0","0","0","42716","","439","","","68","6","","","1","6","training","adjacent","GF","7","6","N.jpg","L.jpg","1","0","0","",""
"","feedback","","html-keyboard-response","48","118392","0.0-1.0-60.0-0.0","0","0","42716","","null","","","null","6","","","","","","","","","","","","","","","",""
"","time_out","","html-keyboard-response","49","120399","0.0-1.0-62.0-0.0","0","0","42716","","null","","","null","6","","","","","","","","","","","","","","","",""
"","ITI","","html-keyboard-response","50","121403","0.0-1.0-63.0","0","0","42716","","null","","","null","6","","","","","","","","","","","","","","","NaN",""
"","S1","","html-keyboard-response","51","121670","0.0-1.0-65.0","0","0","42716","","null","","","null","7","","","","","","","","","","","","","","","",""
"","ISI","","html-keyboard-response","52","122686","0.0-1.0-66.0","0","0","42716","","null","","","null","7","NaN","","","","","","","","","","","","","","",""
"","S2","","html-keyboard-response","53","122951","0.0-1.0-67.0","0","0","42716","","null","","","null","7","","NaN","","","","","","","","","","","","","",""
"","response","","html-keyboard-response","54","123178","0.0-1.0-68.0-0.0","0","0","42716","","224","","","68","7","","","1","7","training","adjacent","AB","1","2","P.jpg","Q.jpg","1","1","1","",""
"","feedback","","html-keyboard-response","55","124187","0.0-1.0-69.0-0.0","0","0","42716","","null","","","null","7","","","","","","","","","","","","","","","",""
"","ITI","","html-keyboard-response","56","125204","0.0-1.0-72.0","0","0","42716","","null","","","null","7","","","","","","","","","","","","","","","NaN",""
"","S1","","html-keyboard-response","57","125469","0.0-1.0-74.0","0","0","42716","","null","","","null","8","","","","","","","","","","","","","","","",""
"","ISI","","html-keyboard-response","58","126473","0.0-1.0-75.0","0","0","42716","","null","","","null","8","NaN","","","","","","","","","","","","","","",""
"","S2","","html-keyboard-response","59","126739","0.0-1.0-76.0","0","0","42716","","null","","","null","8","","NaN","","","","","","","","","","","","","",""
"","response","","html-keyboard-response","60","127097","0.0-1.0-77.0-0.0","0","0","42716","","354","","","75","8","","","1","8","training","adjacent","DE","4","5","R.jpg","M.jpg","0","1","0","",""
"","feedback","","html-keyboard-response","61","128116","0.0-1.0-78.0-0.0","0","0","42716","","null","","","null","8","","","","","","","","","","","","","","","",""
"","time_out","","html-keyboard-response","62","130120","0.0-1.0-80.0-0.0","0","0","42716","","null","","","null","8","","","","","","","","","","","","","","","",""
"","ITI","","html-keyboard-response","63","131137","0.0-1.0-81.0","0","0","42716","","null","","","null","8","","","","","","","","","","","","","","","NaN",""
"","S1","","html-keyboard-response","64","131402","0.0-1.0-83.0","0","0","42716","","null","","","null","9","","","","","","","","","","","","","","","",""
"","ISI","","html-keyboard-response","65","132406","0.0-1.0-84.0","0","0","42716","","null","","","null","9","NaN","","","","","","","","","","","","","","",""
"","S2","","html-keyboard-response","66","132669","0.0-1.0-85.0","0","0","42716","","null","","","null","9","","NaN","","","","","","","","","","","","","",""
"","response","","html-keyboard-response","67","132785","0.0-1.0-86.0-0.0","0","0","42716","","113","","","75","9","","","1","9","training","adjacent","BC","2","3","Q.jpg","O.jpg","0","1","0","",""
"","feedback","","html-keyboard-response","68","133795","0.0-1.0-87.0-0.0","0","0","42716","","null","","","null","9","","","","","","","","","","","","","","","",""
"","time_out","","html-keyboard-response","69","135800","0.0-1.0-89.0-0.0","0","0","42716","","null","","","null","9","","","","","","","","","","","","","","","",""
"","ITI","","html-keyboard-response","70","136816","0.0-1.0-90.0","0","0","42716","","null","","","null","9","","","","","","","","","","","","","","","NaN",""
"","S1","","html-keyboard-response","71","137082","0.0-1.0-92.0","0","0","42716","","null","","","null","10","","","","","","","","","","","","","","","",""
"","ISI","","html-keyboard-response","72","138098","0.0-1.0-93.0","0","0","42716","","null","","","null","10","NaN","","","","","","","","","","","","","","",""
"","S2","","html-keyboard-response","73","138363","0.0-1.0-94.0","0","0","42716","","null","","","null","10","","NaN","","","","","","","","","","","","","",""
"","response","","html-keyboard-response","74","138441","0.0-1.0-95.0-0.0","0","0","42716","","75","","","68","10","","","1","10","training","adjacent","FG","6","7","L.jpg","N.jpg","1","1","1","",""
"","feedback","","html-keyboard-response","75","139457","0.0-1.0-96.0-0.0","0","0","42716","","null","","","null","10","","","","","","","","","","","","","","","",""
"","ITI","","html-keyboard-response","76","140473","0.0-1.0-99.0","0","0","42716","","null","","","null","10","","","","","","","","","","","","","","","NaN",""
"","S1","","html-keyboard-response","77","140740","0.0-1.0-101.0","0","0","42716","","null","","","null","11","","","","","","","","","","","","","","","",""
"","ISI","","html-keyboard-response","78","141758","0.0-1.0-102.0","0","0","42716","","null","","","null","11","NaN","","","","","","","","","","","","","","",""
"","S2","","html-keyboard-response","79","142024","0.0-1.0-103.0","0","0","42716","","null","","","null","11","","NaN","","","","","","","","","","","","","",""
"","response","","html-keyboard-response","80","142192","0.0-1.0-104.0-0.0","0","0","42716","","165","","","68","11","","","1","11","training","adjacent","FE","6","5","L.jpg","M.jpg","1","0","0","",""
"","feedback","","html-keyboard-response","81","143210","0.0-1.0-105.0-0.0","0","0","42716","","null","","","null","11","","","","","","","","","","","","","","","",""
"","time_out","","html-keyboard-response","82","145215","0.0-1.0-107.0-0.0","0","0","42716","","null","","","null","11","","","","","","","","","","","","","","","",""
"","ITI","","html-keyboard-response","83","146218","0.0-1.0-108.0","0","0","42716","","null","","","null","11","","","","","","","","","","","","","","","NaN",""
"","S1","","html-keyboard-response","84","146483","0.0-1.0-110.0","0","0","42716","","null","","","null","12","","","","","","","","","","","","","","","",""
"","ISI","","html-keyboard-response","85","147501","0.0-1.0-111.0","0","0","42716","","null","","","null","12","NaN","","","","","","","","","","","","","","",""
"","S2","","html-keyboard-response","86","147767","0.0-1.0-112.0","0","0","42716","","null","","","null","12","","NaN","","","","","","","","","","","","","",""
"","response","","html-keyboard-response","87","147889","0.0-1.0-113.0-0.0","0","0","42716","","120","","","75","12","","","1","12","training","adjacent","BC","2","3","Q.jpg","O.jpg","0","1","0","",""
"","feedback","","html-keyboard-response","88","148907","0.0-1.0-114.0-0.0","0","0","42716","","null","","","null","12","","","","","","","","","","","","","","","",""
"","time_out","","html-keyboard-response","89","150911","0.0-1.0-116.0-0.0","0","0","42716","","null","","","null","12","","","","","","","","","","","","","","","",""
"","ITI","","html-keyboard-response","90","151928","0.0-1.0-117.0","0","0","42716","","null","","","null","12","","","","","","","","","","","","","","","NaN",""
"","S1","","html-keyboard-response","91","152193","0.0-1.0-119.0","0","0","42716","","null","","","null","13","","","","","","","","","","","","","","","",""
"","ISI","","html-keyboard-response","92","153210","0.0-1.0-120.0","0","0","42716","","null","","","null","13","NaN","","","","","","","","","","","","","","",""
"","S2","","html-keyboard-response","93","153475","0.0-1.0-121.0","0","0","42716","","null","","","null","13","","NaN","","","","","","","","","","","","","",""
"","response","","html-keyboard-response","94","153713","0.0-1.0-122.0-0.0","0","0","42716","","235","","","75","13","","","1","13","training","adjacent","DE","4","5","R.jpg","M.jpg","0","1","0","",""
"","feedback","","html-keyboard-response","95","154727","0.0-1.0-123.0-0.0","0","0","42716","","null","","","null","13","","","","","","","","","","","","","","","",""
"","time_out","","html-keyboard-response","96","156732","0.0-1.0-125.0-0.0","0","0","42716","","null","","","null","13","","","","","","","","","","","","","","","",""
"","ITI","","html-keyboard-response","97","157735","0.0-1.0-126.0","0","0","42716","","null","","","null","13","","","","","","","","","","","","","","","NaN",""
"","S1","","html-keyboard-response","98","158000","0.0-1.0-128.0","0","0","42716","","null","","","null","14","","","","","","","","","","","","","","","",""
"","ISI","","html-keyboard-response","99","159015","0.0-1.0-129.0","0","0","42716","","null","","","null","14","NaN","","","","","","","","","","","","","","",""
"","S2","","html-keyboard-response","100","159280","0.0-1.0-130.0","0","0","42716","","null","","","null","14","","NaN","","","","","","","","","","","","","",""
"","response","","html-keyboard-response","101","159537","0.0-1.0-131.0-0.0","0","0","42716","","254","","","68","14","","","1","14","training","adjacent","ED","5","4","M.jpg","R.jpg","1","0","0","",""
"","feedback","","html-keyboard-response","102","160546","0.0-1.0-132.0-0.0","0","0","42716","","null","","","null","14","","","","","","","","","","","","","","","",""
"","time_out","","html-keyboard-response","103","162552","0.0-1.0-134.0-0.0","0","0","42716","","null","","","null","14","","","","","","","","","","","","","","","",""
"","ITI","","html-keyboard-response","104","163568","0.0-1.0-135.0","0","0","42716","","null","","","null","14","","","","","","","","","","","","","","","NaN",""
"","S1","","html-keyboard-response","105","163833","0.0-1.0-137.0","0","0","42716","","null","","","null","15","","","","","","","","","","","","","","","",""
"","ISI","","html-keyboard-response","106","164851","0.0-1.0-138.0","0","0","42716","","null","","","null","15","NaN","","","","","","","","","","","","","","",""
"","S2","","html-keyboard-response","107","165116","0.0-1.0-139.0","0","0","42716","","null","","","null","15","","NaN","","","","","","","","","","","","","",""
"","response","","html-keyboard-response","108","165321","0.0-1.0-140.0-0.0","0","0","42716","","202","","","68","15","","","1","15","training","adjacent","AB","1","2","P.jpg","Q.jpg","1","1","1","",""
"","feedback","","html-keyboard-response","109","166337","0.0-1.0-141.0-0.0","0","0","42716","","null","","","null","15","","","","","","","","","","","","","","","",""
"","ITI","","html-keyboard-response","110","167341","0.0-1.0-144.0","0","0","42716","","null","","","null","15","","","","","","","","","","","","","","","NaN",""
"","S1","","html-keyboard-response","111","167607","0.0-1.0-146.0","0","0","42716","","null","","","null","16","","","","","","","","","","","","","","","",""
"","ISI","","html-keyboard-response","112","168624","0.0-1.0-147.0","0","0","42716","","null","","","null","16","NaN","","","","","","","","","","","","","","",""
"","S2","","html-keyboard-response","113","168888","0.0-1.0-148.0","0","0","42716","","null","","","null","16","","NaN","","","","","","","","","","","","","",""
"","response","","html-keyboard-response","114","169121","0.0-1.0-149.0-0.0","0","0","42716","","230","","","68","16","","","1","16","training","adjacent","ED","5","4","M.jpg","R.jpg","1","0","0","",""
"","feedback","","html-keyboard-response","115","170138","0.0-1.0-150.0-0.0","0","0","42716","","null","","","null","16","","","","","","","","","","","","","","","",""
"","time_out","","html-keyboard-response","116","172154","0.0-1.0-152.0-0.0","0","0","42716","","null","","","null","16","","","","","","","","","","","","","","","",""
"","ITI","","html-keyboard-response","117","173158","0.0-1.0-153.0","0","0","42716","","null","","","null","16","","","","","","","","","","","","","","","NaN",""
"","S1","","html-keyboard-response","118","173423","0.0-1.0-155.0","0","0","42716","","null","","","null","17","","","","","","","","","","","","","","","",""
"","ISI","","html-keyboard-response","119","174439","0.0-1.0-156.0","0","0","42716","","null","","","null","17","NaN","","","","","","","","","","","","","","",""
"","S2","","html-keyboard-response","120","174704","0.0-1.0-157.0","0","0","42716","","null","","","null","17","","NaN","","","","","","","","","","","","","",""
"","response","","html-keyboard-response","121","174960","0.0-1.0-158.0-0.0","0","0","42716","","254","","","75","17","","","1","17","training","adjacent","GF","7","6","N.jpg","L.jpg","0","0","1","",""
"","feedback","","html-keyboard-response","122","175973","0.0-1.0-159.0-0.0","0","0","42716","","null","","","null","17","","","","","","","","","","","","","","","",""
"","ITI","","html-keyboard-response","123","176990","0.0-1.0-162.0","0","0","42716","","null","","","null","17","","","","","","","","","","","","","","","NaN",""
"","S1","","html-keyboard-response","124","177257","0.0-1.0-164.0","0","0","42716","","null","","","null","18","","","","","","","","","","","","","","","",""
"","ISI","","html-keyboard-response","125","178260","0.0-1.0-165.0","0","0","42716","","null","","","null","18","NaN","","","","","","","","","","","","","","",""
"","S2","","html-keyboard-response","126","178526","0.0-1.0-166.0","0","0","42716","","null","","","null","18","","NaN","","","","","","","","","","","","","",""
"","response","","html-keyboard-response","127","178681","0.0-1.0-167.0-0.0","0","0","42716","","152","","","68","18","","","1","18","training","adjacent","CD","3","4","O.jpg","R.jpg","1","1","1","",""
"","feedback","","html-keyboard-response","128","179684","0.0-1.0-168.0-0.0","0","0","42716","","null","","","null","18","","","","","","","","","","","","","","","",""
"","ITI","","html-keyboard-response","129","180702","0.0-1.0-171.0","0","0","42716","","null","","","null","18","","","","","","","","","","","","","","","NaN",""
"","S1","","html-keyboard-response","130","180967","0.0-1.0-173.0","0","0","42716","","null","","","null","19","","","","","","","","","","","","","","","",""
"","ISI","","html-keyboard-response","131","181972","0.0-1.0-174.0","0","0","42716","","null","","","null","19","NaN","","","","","","","","","","","","","","",""
"","S2","","html-keyboard-response","132","182238","0.0-1.0-175.0","0","0","42716","","null","","","null","19","","NaN","","","","","","","","","","","","","",""
"","response","","html-keyboard-response","133","182455","0.0-1.0-176.0-0.0","0","0","42716","","216","","","68","19","","","1","19","training","adjacent","FG","6","7","L.jpg","N.jpg","1","1","1","",""
"","feedback","","html-keyboard-response","134","183463","0.0-1.0-177.0-0.0","0","0","42716","","null","","","null","19","","","","","","","","","","","","","","","",""
"","ITI","","html-keyboard-response","135","184480","0.0-1.0-180.0","0","0","42716","","null","","","null","19","","","","","","","","","","","","","","","NaN",""
"","S1","","html-keyboard-response","136","184746","0.0-1.0-182.0","0","0","42716","","null","","","null","20","","","","","","","","","","","","","","","",""
"","ISI","","html-keyboard-response","137","185751","0.0-1.0-183.0","0","0","42716","","null","","","null","20","NaN","","","","","","","","","","","","","","",""
"","S2","","html-keyboard-response","138","186017","0.0-1.0-184.0","0","0","42716","","null","","","null","20","","NaN","","","","","","","","","","","","","",""
"","response","","html-keyboard-response","139","186201","0.0-1.0-185.0-0.0","0","0","42716","","181","","","68","20","","","1","20","training","adjacent","CB","3","2","O.jpg","Q.jpg","1","0","0","",""
"","feedback","","html-keyboard-response","140","187206","0.0-1.0-186.0-0.0","0","0","42716","","null","","","null","20","","","","","","","","","","","","","","","",""
"","time_out","","html-keyboard-response","141","189211","0.0-1.0-188.0-0.0","0","0","42716","","null","","","null","20","","","","","","","","","","","","","","","",""
"","ITI","","html-keyboard-response","142","190228","0.0-1.0-189.0","0","0","42716","","null","","","null","20","","","","","","","","","","","","","","","NaN",""
"","S1","","html-keyboard-response","143","190492","0.0-1.0-191.0","0","0","42716","","null","","","null","21","","","","","","","","","","","","","","","",""
"","ISI","","html-keyboard-response","144","191495","0.0-1.0-192.0","0","0","42716","","null","","","null","21","NaN","","","","","","","","","","","","","","",""
"","S2","","html-keyboard-response","145","191762","0.0-1.0-193.0","0","0","42716","","null","","","null","21","","NaN","","","","","","","","","","","","","",""
"","response","","html-keyboard-response","146","192025","0.0-1.0-194.0-0.0","0","0","42716","","259","","","68","21","","","1","21","training","adjacent","CB","3","2","O.jpg","Q.jpg","1","0","0","",""
"","feedback","","html-keyboard-response","147","193030","0.0-1.0-195.0-0.0","0","0","42716","","null","","","null","21","","","","","","","","","","","","","","","",""
"","time_out","","html-keyboard-response","148","195047","0.0-1.0-197.0-0.0","0","0","42716","","null","","","null","21","","","","","","","","","","","","","","","",""
"","ITI","","html-keyboard-response","149","196064","0.0-1.0-198.0","0","0","42716","","null","","","null","21","","","","","","","","","","","","","","","NaN",""
"","S1","","html-keyboard-response","150","196329","0.0-1.0-200.0","0","0","42716","","null","","","null","22","","","","","","","","","","","","","","","",""
"","ISI","","html-keyboard-response","151","197347","0.0-1.0-201.0","0","0","42716","","null","","","null","22","NaN","","","","","","","","","","","","","","",""
"","S2","","html-keyboard-response","152","197612","0.0-1.0-202.0","0","0","42716","","null","","","null","22","","NaN","","","","","","","","","","","","","",""
"","response","","html-keyboard-response","153","198208","0.0-1.0-203.0-0.0","0","0","42716","","593","","","68","22","","","1","22","training","adjacent","BA","2","1","Q.jpg","P.jpg","1","0","0","",""
"","feedback","","html-keyboard-response","154","199214","0.0-1.0-204.0-0.0","0","0","42716","","null","","","null","22","","","","","","","","","","","","","","","",""
"","time_out","","html-keyboard-response","155","201220","0.0-1.0-206.0-0.0","0","0","42716","","null","","","null","22","","","","","","","","","","","","","","","",""
"","ITI","","html-keyboard-response","156","202224","0.0-1.0-207.0","0","0","42716","","null","","","null","22","","","","","","","","","","","","","","","NaN",""
"","S1","","html-keyboard-response","157","202489","0.0-1.0-209.0","0","0","42716","","null","","","null","23","","","","","","","","","","","","","","","",""
"","ISI","","html-keyboard-response","158","203506","0.0-1.0-210.0","0","0","42716","","null","","","null","23","NaN","","","","","","","","","","","","","","",""
"","S2","","html-keyboard-response","159","203771","0.0-1.0-211.0","0","0","42716","","null","","","null","23","","NaN","","","","","","","","","","","","","",""
"","response","","html-keyboard-response","160","203937","0.0-1.0-212.0-0.0","0","0","42716","","163","","","75","23","","","1","23","training","adjacent","GF","7","6","N.jpg","L.jpg","0","0","1","",""
"","feedback","","html-keyboard-response","161","204948","0.0-1.0-213.0-0.0","0","0","42716","","null","","","null","23","","","","","","","","","","","","","","","",""
"","ITI","","html-keyboard-response","162","205965","0.0-1.0-216.0","0","0","42716","","null","","","null","23","","","","","","","","","","","","","","","NaN",""
"","S1","","html-keyboard-response","163","206233","0.0-1.0-218.0","0","0","42716","","null","","","null","24","","","","","","","","","","","","","","","",""
"","ISI","","html-keyboard-response","164","207251","0.0-1.0-219.0","0","0","42716","","null","","","null","24","NaN","","","","","","","","","","","","","","",""
"","S2","","html-keyboard-response","165","207515","0.0-1.0-220.0","0","0","42716","","null","","","null","24","","NaN","","","","","","","","","","","","","",""
"","response","","html-keyboard-response","166","207808","0.0-1.0-221.0-0.0","0","0","42716","","289","","","68","24","","","1","24","training","adjacent","BA","2","1","Q.jpg","P.jpg","1","0","0","",""
"","feedback","","html-keyboard-response","167","208812","0.0-1.0-222.0-0.0","0","0","42716","","null","","","null","24","","","","","","","","","","","","","","","",""
"","time_out","","html-keyboard-response","168","210829","0.0-1.0-224.0-0.0","0","0","42716","","null","","","null","24","","","","","","","","","","","","","","","",""
"","ITI","","html-keyboard-response","169","211831","0.0-1.0-225.0","0","0","42716","","null","","","null","24","","","","","","","","","","","","","","","NaN",""
"","S1","","html-keyboard-response","170","212097","0.0-1.0-227.0","0","0","42716","","null","","","null","25","","","","","","","","","","","","","","","",""
"","ISI","","html-keyboard-response","171","213115","0.0-1.0-228.0","0","0","42716","","null","","","null","25","NaN","","","","","","","","","","","","","","",""
"","S2","","html-keyboard-response","172","213381","0.0-1.0-229.0","0","0","42716","","null","","","null","25","","NaN","","","","","","","","","","","","","",""
"","response","","html-keyboard-response","173","213760","0.0-1.0-230.0-0.0","0","0","42716","","377","","","75","25","","","1","25","training","adjacent","ED","5","4","M.jpg","R.jpg","0","0","1","",""
"","feedback","","html-keyboard-response","174","214773","0.0-1.0-231.0-0.0","0","0","42716","","null","","","null","25","","","","","","","","","","","","","","","",""
"","ITI","","html-keyboard-response","175","215790","0.0-1.0-234.0","0","0","42716","","null","","","null","25","","","","","","","","","","","","","","","NaN",""
"","S1","","html-keyboard-response","176","216057","0.0-1.0-236.0","0","0","42716","","null","","","null","26","","","","","","","","","","","","","","","",""
"","ISI","","html-keyboard-response","177","217060","0.0-1.0-237.0","0","0","42716","","null","","","null","26","NaN","","","","","","","","","","","","","","",""
"","S2","","html-keyboard-response","178","217326","0.0-1.0-238.0","0","0","42716","","null","","","null","26","","NaN","","","","","","","","","","","","","",""
"","response","","html-keyboard-response","179","217528","0.0-1.0-239.0-0.0","0","0","42716","","199","","","68","26","","","1","26","training","adjacent","AB","1","2","P.jpg","Q.jpg","1","1","1","",""
"","feedback","","html-keyboard-response","180","218545","0.0-1.0-240.0-0.0","0","0","42716","","null","","","null","26","","","","","","","","","","","","","","","",""
"","ITI","","html-keyboard-response","181","219562","0.0-1.0-243.0","0","0","42716","","null","","","null","26","","","","","","","","","","","","","","","NaN",""
"","S1","","html-keyboard-response","182","219827","0.0-1.0-245.0","0","0","42716","","null","","","null","27","","","","","","","","","","","","","","","",""
"","ISI","","html-keyboard-response","183","220844","0.0-1.0-246.0","0","0","42716","","null","","","null","27","NaN","","","","","","","","","","","","","","",""
"","S2","","html-keyboard-response","184","221109","0.0-1.0-247.0","0","0","42716","","null","","","null","27","","NaN","","","","","","","","","","","","","",""
"","response","","html-keyboard-response","185","221496","0.0-1.0-248.0-0.0","0","0","42716","","384","","","68","27","","","1","27","training","adjacent","BC","2","3","Q.jpg","O.jpg","1","1","1","",""
"","feedback","","html-keyboard-response","186","222501","0.0-1.0-249.0-0.0","0","0","42716","","null","","","null","27","","","","","","","","","","","","","","","",""
"","ITI","","html-keyboard-response","187","223518","0.0-1.0-252.0","0","0","42716","","null","","","null","27","","","","","","","","","","","","","","","NaN",""
"","S1","","html-keyboard-response","188","223783","0.0-1.0-254.0","0","0","42716","","null","","","null","28","","","","","","","","","","","","","","","",""
"","ISI","","html-keyboard-response","189","224800","0.0-1.0-255.0","0","0","42716","","null","","","null","28","NaN","","","","","","","","","","","","","","",""
"","S2","","html-keyboard-response","190","225065","0.0-1.0-256.0","0","0","42716","","null","","","null","28","","NaN","","","","","","","","","","","","","",""
"","response","","html-keyboard-response","191","225312","0.0-1.0-257.0-0.0","0","0","42716","","243","","","68","28","","","1","28","training","adjacent","FE","6","5","L.jpg","M.jpg","1","0","0","",""
"","feedback","","html-keyboard-response","192","226316","0.0-1.0-258.0-0.0","0","0","42716","","null","","","null","28","","","","","","","","","","","","","","","",""
"","time_out","","html-keyboard-response","193","228321","0.0-1.0-260.0-0.0","0","0","42716","","null","","","null","28","","","","","","","","","","","","","","","",""
"","ITI","","html-keyboard-response","194","229336","0.0-1.0-261.0","0","0","42716","","null","","","null","28","","","","","","","","","","","","","","","NaN",""
"","S1","","html-keyboard-response","195","229604","0.0-1.0-263.0","0","0","42716","","null","","","null","29","","","","","","","","","","","","","","","",""
"","ISI","","html-keyboard-response","196","230620","0.0-1.0-264.0","0","0","42716","","null","","","null","29","NaN","","","","","","","","","","","","","","",""
"","S2","","html-keyboard-response","197","230885","0.0-1.0-265.0","0","0","42716","","null","","","null","29","","NaN","","","","","","","","","","","","","",""
"","response","","html-keyboard-response","198","231088","0.0-1.0-266.0-0.0","0","0","42716","","199","","","68","29","","","1","29","training","adjacent","EF","5","6","M.jpg","L.jpg","1","1","1","",""
"","feedback","","html-keyboard-response","199","232092","0.0-1.0-267.0-0.0","0","0","42716","","null","","","null","29","","","","","","","","","","","","","","","",""
"","ITI","","html-keyboard-response","200","233110","0.0-1.0-270.0","0","0","42716","","null","","","null","29","","","","","","","","","","","","","","","NaN",""
"","S1","","html-keyboard-response","201","233375","0.0-1.0-272.0","0","0","42716","","null","","","null","30","","","","","","","","","","","","","","","",""
"","ISI","","html-keyboard-response","202","234378","0.0-1.0-273.0","0","0","42716","","null","","","null","30","NaN","","","","","","","","","","","","","","",""
"","S2","","html-keyboard-response","203","234643","0.0-1.0-274.0","0","0","42716","","null","","","null","30","","NaN","","","","","","","","","","","","","",""
"","response","","html-keyboard-response","204","235080","0.0-1.0-275.0-0.0","0","0","42716","","434","","","75","30","","","1","30","training","adjacent","ED","5","4","M.jpg","R.jpg","0","0","1","",""
"","feedback","","html-keyboard-response","205","236086","0.0-1.0-276.0-0.0","0","0","42716","","null","","","null","30","","","","","","","","","","","","","","","",""
"","ITI","","html-keyboard-response","206","237088","0.0-1.0-279.0","0","0","42716","","null","","","null","30","","","","","","","","","","","","","","","NaN",""
"","S1","","html-keyboard-response","207","237354","0.0-1.0-281.0","0","0","42716","","null","","","null","31","","","","","","","","","","","","","","","",""
"","ISI","","html-keyboard-response","208","238358","0.0-1.0-282.0","0","0","42716","","null","","","null","31","NaN","","","","","","","","","","","","","","",""
"","S2","","html-keyboard-response","209","238622","0.0-1.0-283.0","0","0","42716","","null","","","null","31","","NaN","","","","","","","","","","","","","",""
"","response","","html-keyboard-response","210","239112","0.0-1.0-284.0-0.0","0","0","42716","","487","","","75","31","","","1","31","training","adjacent","FE","6","5","L.jpg","M.jpg","0","0","1","",""
"","feedback","","html-keyboard-response","211","240123","0.0-1.0-285.0-0.0","0","0","42716","","null","","","null","31","","","","","","","","","","","","","","","",""
"","ITI","","html-keyboard-response","212","241129","0.0-1.0-288.0","0","0","42716","","null","","","null","31","","","","","","","","","","","","","","","NaN",""
"","S1","","html-keyboard-response","213","241394","0.0-1.0-290.0","0","0","42716","","null","","","null","32","","","","","","","","","","","","","","","",""
"","ISI","","html-keyboard-response","214","242396","0.0-1.0-291.0","0","0","42716","","null","","","null","32","NaN","","","","","","","","","","","","","","",""
"","S2","","html-keyboard-response","215","242658","0.0-1.0-292.0","0","0","42716","","null","","","null","32","","NaN","","","","","","","","","","","","","",""
"","response","","html-keyboard-response","216","242888","0.0-1.0-293.0-0.0","0","0","42716","","227","","","75","32","","","1","32","training","adjacent","BA","2","1","Q.jpg","P.jpg","0","0","1","",""
"","feedback","","html-keyboard-response","217","243895","0.0-1.0-294.0-0.0","0","0","42716","","null","","","null","32","","","","","","","","","","","","","","","",""
"","ITI","","html-keyboard-response","218","244913","0.0-1.0-297.0","0","0","42716","","null","","","null","32","","","","","","","","","","","","","","","NaN",""
"","S1","","html-keyboard-response","219","245179","0.0-1.0-299.0","0","0","42716","","null","","","null","33","","","","","","","","","","","","","","","",""
"","ISI","","html-keyboard-response","220","246196","0.0-1.0-300.0","0","0","42716","","null","","","null","33","NaN","","","","","","","","","","","","","","",""
"","S2","","html-keyboard-response","221","246461","0.0-1.0-301.0","0","0","42716","","null","","","null","33","","NaN","","","","","","","","","","","","","",""
"","response","","html-keyboard-response","222","247216","0.0-1.0-302.0-0.0","0","0","42716","","753","","","75","33","","","1","33","training","adjacent","CD","3","4","O.jpg","R.jpg","0","1","0","",""
"","feedback","","html-keyboard-response","223","248231","0.0-1.0-303.0-0.0","0","0","42716","","null","","","null","33","","","","","","","","","","","","","","","",""
"","time_out","","html-keyboard-response","224","250235","0.0-1.0-305.0-0.0","0","0","42716","","null","","","null","33","","","","","","","","","","","","","","","",""
"","ITI","","html-keyboard-response","225","251238","0.0-1.0-306.0","0","0","42716","","null","","","null","33","","","","","","","","","","","","","","","NaN",""
"","S1","","html-keyboard-response","226","251504","0.0-1.0-308.0","0","0","42716","","null","","","null","34","","","","","","","","","","","","","","","",""
"","ISI","","html-keyboard-response","227","252520","0.0-1.0-309.0","0","0","42716","","null","","","null","34","NaN","","","","","","","","","","","","","","",""
"","S2","","html-keyboard-response","228","252785","0.0-1.0-310.0","0","0","42716","","null","","","null","34","","NaN","","","","","","","","","","","","","",""
"","response","","html-keyboard-response","229","253272","0.0-1.0-311.0-0.0","0","0","42716","","484","","","68","34","","","1","34","training","adjacent","CD","3","4","O.jpg","R.jpg","1","1","1","",""
"","feedback","","html-keyboard-response","230","254288","0.0-1.0-312.0-0.0","0","0","42716","","null","","","null","34","","","","","","","","","","","","","","","",""
"","ITI","","html-keyboard-response","231","255304","0.0-1.0-315.0","0","0","42716","","null","","","null","34","","","","","","","","","","","","","","","NaN",""
"","S1","","html-keyboard-response","232","255569","0.0-1.0-317.0","0","0","42716","","null","","","null","35","","","","","","","","","","","","","","","",""
"","ISI","","html-keyboard-response","233","256585","0.0-1.0-318.0","0","0","42716","","null","","","null","35","NaN","","","","","","","","","","","","","","",""
"","S2","","html-keyboard-response","234","256850","0.0-1.0-319.0","0","0","42716","","null","","","null","35","","NaN","","","","","","","","","","","","","",""
"","response","","html-keyboard-response","235","257184","0.0-1.0-320.0-0.0","0","0","42716","","330","","","68","35","","","1","35","training","adjacent","FG","6","7","L.jpg","N.jpg","1","1","1","",""
"","feedback","","html-keyboard-response","236","258197","0.0-1.0-321.0-0.0","0","0","42716","","null","","","null","35","","","","","","","","","","","","","","","",""
"","ITI","","html-keyboard-response","237","259215","0.0-1.0-324.0","0","0","42716","","null","","","null","35","","","","","","","","","","","","","","","NaN",""
"","S1","","html-keyboard-response","238","259480","0.0-1.0-326.0","0","0","42716","","null","","","null","36","","","","","","","","","","","","","","","",""
"","ISI","","html-keyboard-response","239","260483","0.0-1.0-327.0","0","0","42716","","null","","","null","36","NaN","","","","","","","","","","","","","","",""
"","S2","","html-keyboard-response","240","260749","0.0-1.0-328.0","0","0","42716","","null","","","null","36","","NaN","","","","","","","","","","","","","",""
"","response","","html-keyboard-response","241","261136","0.0-1.0-329.0-0.0","0","0","42716","","385","","","68","36","","","1","36","training","adjacent","DE","4","5","R.jpg","M.jpg","1","1","1","",""
"","feedback","","html-keyboard-response","242","262143","0.0-1.0-330.0-0.0","0","0","42716","","null","","","null","36","","","","","","","","","","","","","","","",""
"","ITI","","html-keyboard-response","243","263159","0.0-1.0-333.0","0","0","42716","","null","","","null","36","","","","","","","","","","","","","","","NaN",""
"","S1","","html-keyboard-response","244","263425","0.0-1.0-335.0","0","0","42716","","null","","","null","37","","","","","","","","","","","","","","","",""
"","ISI","","html-keyboard-response","245","264441","0.0-1.0-336.0","0","0","42716","","null","","","null","37","NaN","","","","","","","","","","","","","","",""
"","S2","","html-keyboard-response","246","264707","0.0-1.0-337.0","0","0","42716","","null","","","null","37","","NaN","","","","","","","","","","","","","",""
"","response","","html-keyboard-response","247","265448","0.0-1.0-338.0-0.0","0","0","42716","","737","","","75","37","","","1","37","training","adjacent","GF","7","6","N.jpg","L.jpg","0","0","1","",""
"","feedback","","html-keyboard-response","248","266458","0.0-1.0-339.0-0.0","0","0","42716","","null","","","null","37","","","","","","","","","","","","","","","",""
"","ITI","","html-keyboard-response","249","267475","0.0-1.0-342.0","0","0","42716","","null","","","null","37","","","","","","","","","","","","","","","NaN",""
"","S1","","html-keyboard-response","250","267741","0.0-1.0-344.0","0","0","42716","","null","","","null","38","","","","","","","","","","","","","","","",""
"","ISI","","html-keyboard-response","251","268758","0.0-1.0-345.0","0","0","42716","","null","","","null","38","NaN","","","","","","","","","","","","","","",""
"","S2","","html-keyboard-response","252","269024","0.0-1.0-346.0","0","0","42716","","null","","","null","38","","NaN","","","","","","","","","","","","","",""
"","response","","html-keyboard-response","253","269224","0.0-1.0-347.0-0.0","0","0","42716","","197","","","68","38","","","1","38","training","adjacent","BA","2","1","Q.jpg","P.jpg","1","0","0","",""
"","feedback","","html-keyboard-response","254","270243","0.0-1.0-348.0-0.0","0","0","42716","","null","","","null","38","","","","","","","","","","","","","","","",""
"","time_out","","html-keyboard-response","255","272248","0.0-1.0-350.0-0.0","0","0","42716","","null","","","null","38","","","","","","","","","","","","","","","",""
"","ITI","","html-keyboard-response","256","273265","0.0-1.0-351.0","0","0","42716","","null","","","null","38","","","","","","","","","","","","","","","NaN",""
"","S1","","html-keyboard-response","257","273528","0.0-1.0-353.0","0","0","42716","","null","","","null","39","","","","","","","","","","","","","","","",""
"","ISI","","html-keyboard-response","258","274532","0.0-1.0-354.0","0","0","42716","","null","","","null","39","NaN","","","","","","","","","","","","","","",""
"","S2","","html-keyboard-response","259","274798","0.0-1.0-355.0","0","0","42716","","null","","","null","39","","NaN","","","","","","","","","","","","","",""
"","response","","html-keyboard-response","260","275376","0.0-1.0-356.0-0.0","0","0","42716","","575","","","68","39","","","1","39","training","adjacent","FG","6","7","L.jpg","N.jpg","1","1","1","",""
"","feedback","","html-keyboard-response","261","276393","0.0-1.0-357.0-0.0","0","0","42716","","null","","","null","39","","","","","","","","","","","","","","","",""
"","ITI","","html-keyboard-response","262","277409","0.0-1.0-360.0","0","0","42716","","null","","","null","39","","","","","","","","","","","","","","","NaN",""
"","S1","","html-keyboard-response","263","277674","0.0-1.0-362.0","0","0","42716","","null","","","null","40","","","","","","","","","","","","","","","",""
"","ISI","","html-keyboard-response","264","278682","0.0-1.0-363.0","0","0","42716","","null","","","null","40","NaN","","","","","","","","","","","","","","",""
"","S2","","html-keyboard-response","265","278949","0.0-1.0-364.0","0","0","42716","","null","","","null","40","","NaN","","","","","","","","","","","","","",""
"","response","","html-keyboard-response","266","279207","0.0-1.0-365.0-0.0","0","0","42716","","256","","","68","40","","","1","40","training","adjacent","AB","1","2","P.jpg","Q.jpg","1","1","1","",""
"","feedback","","html-keyboard-response","267","280218","0.0-1.0-366.0-0.0","0","0","42716","","null","","","null","40","","","","","","","","","","","","","","","",""
"","ITI","","html-keyboard-response","268","281222","0.0-1.0-369.0","0","0","42716","","null","","","null","40","","","","","","","","","","","","","","","NaN",""
"","S1","","html-keyboard-response","269","281489","0.0-1.0-371.0","0","0","42716","","null","","","null","41","","","","","","","","","","","","","","","",""
"","ISI","","html-keyboard-response","270","282493","0.0-1.0-372.0","0","0","42716","","null","","","null","41","NaN","","","","","","","","","","","","","","",""
"","S2","","html-keyboard-response","271","282759","0.0-1.0-373.0","0","0","42716","","null","","","null","41","","NaN","","","","","","","","","","","","","",""
"","response","","html-keyboard-response","272","283464","0.0-1.0-374.0-0.0","0","0","42716","","702","","","75","41","","","1","41","training","adjacent","DC","4","3","R.jpg","O.jpg","0","0","1","",""
"","feedback","","html-keyboard-response","273","284481","0.0-1.0-375.0-0.0","0","0","42716","","null","","","null","41","","","","","","","","","","","","","","","",""
"","ITI","","html-keyboard-response","274","285484","0.0-1.0-378.0","0","0","42716","","null","","","null","41","","","","","","","","","","","","","","","NaN",""
"","S1","","html-keyboard-response","275","285739","0.0-1.0-380.0","0","0","42716","","null","","","null","42","","","","","","","","","","","","","","","",""
"","ISI","","html-keyboard-response","276","286753","0.0-1.0-381.0","0","0","42716","","null","","","null","42","NaN","","","","","","","","","","","","","","",""
"","S2","","html-keyboard-response","277","287007","0.0-1.0-382.0","0","0","42716","","null","","","null","42","","NaN","","","","","","","","","","","","","",""
"","response","","html-keyboard-response","278","287608","0.0-1.0-383.0-0.0","0","0","42716","","597","","","75","42","","","1","42","training","adjacent","EF","5","6","M.jpg","L.jpg","0","1","0","",""
"","feedback","","html-keyboard-response","279","288626","0.0-1.0-384.0-0.0","0","0","42716","","null","","","null","42","","","","","","","","","","","","","","","",""
"","time_out","","html-keyboard-response","280","290643","0.0-1.0-386.0-0.0","0","0","42716","","null","","","null","42","","","","","","","","","","","","","","","",""
"","ITI","","html-keyboard-response","281","291660","0.0-1.0-387.0","0","0","42716","","null","","","null","42","","","","","","","","","","","","","","","NaN",""
"","S1","","html-keyboard-response","282","291925","0.0-1.0-389.0","0","0","42716","","null","","","null","43","","","","","","","","","","","","","","","",""
"","ISI","","html-keyboard-response","283","292928","0.0-1.0-390.0","0","0","42716","","null","","","null","43","NaN","","","","","","","","","","","","","","",""
"","S2","","html-keyboard-response","284","293194","0.0-1.0-391.0","0","0","42716","","null","","","null","43","","NaN","","","","","","","","","","","","","",""
"","response","","html-keyboard-response","285","293888","0.0-1.0-392.0-0.0","0","0","42716","","690","","","68","43","","","1","43","training","adjacent","CD","3","4","O.jpg","R.jpg","1","1","1","",""
"","feedback","","html-keyboard-response","286","294904","0.0-1.0-393.0-0.0","0","0","42716","","null","","","null","43","","","","","","","","","","","","","","","",""
"","ITI","","html-keyboard-response","287","295918","0.0-1.0-396.0","0","0","42716","","null","","","null","43","","","","","","","","","","","","","","","NaN",""
"","S1","","html-keyboard-response","288","296182","0.0-1.0-398.0","0","0","42716","","null","","","null","44","","","","","","","","","","","","","","","",""
"","ISI","","html-keyboard-response","289","297199","0.0-1.0-399.0","0","0","42716","","null","","","null","44","NaN","","","","","","","","","","","","","","",""
"","S2","","html-keyboard-response","290","297465","0.0-1.0-400.0","0","0","42716","","null","","","null","44","","NaN","","","","","","","","","","","","","",""
"","response","","html-keyboard-response","291","297975","0.0-1.0-401.0-0.0","0","0","42716","","508","","","75","44","","","1","44","training","adjacent","CB","3","2","O.jpg","Q.jpg","0","0","1","",""
"","feedback","","html-keyboard-response","292","298983","0.0-1.0-402.0-0.0","0","0","42716","","null","","","null","44","","","","","","","","","","","","","","","",""
"","ITI","","html-keyboard-response","293","300001","0.0-1.0-405.0","0","0","42716","","null","","","null","44","","","","","","","","","","","","","","","NaN",""
"","S1","","html-keyboard-response","294","300267","0.0-1.0-407.0","0","0","42716","","null","","","null","45","","","","","","","","","","","","","","","",""
"","ISI","","html-keyboard-response","295","301274","0.0-1.0-408.0","0","0","42716","","null","","","null","45","NaN","","","","","","","","","","","","","","",""
"","S2","","html-keyboard-response","296","301527","0.0-1.0-409.0","0","0","42716","","null","","","null","45","","NaN","","","","","","","","","","","","","",""
"","response","","html-keyboard-response","297","302183","0.0-1.0-410.0-0.0","0","0","42716","","654","","","68","45","","","1","45","training","adjacent","EF","5","6","M.jpg","L.jpg","1","1","1","",""
"","feedback","","html-keyboard-response","298","303186","0.0-1.0-411.0-0.0","0","0","42716","","null","","","null","45","","","","","","","","","","","","","","","",""
"","ITI","","html-keyboard-response","299","304203","0.0-1.0-414.0","0","0","42716","","null","","","null","45","","","","","","","","","","","","","","","NaN",""
"","S1","","html-keyboard-response","300","304467","0.0-1.0-416.0","0","0","42716","","null","","","null","46","","","","","","","","","","","","","","","",""
"","ISI","","html-keyboard-response","301","305484","0.0-1.0-417.0","0","0","42716","","null","","","null","46","NaN","","","","","","","","","","","","","","",""
"","S2","","html-keyboard-response","302","305747","0.0-1.0-418.0","0","0","42716","","null","","","null","46","","NaN","","","","","","","","","","","","","",""
"","response","","html-keyboard-response","303","306159","0.0-1.0-419.0-0.0","0","0","42716","","408","","","75","46","","","1","46","training","adjacent","CB","3","2","O.jpg","Q.jpg","0","0","1","",""
"","feedback","","html-keyboard-response","304","307169","0.0-1.0-420.0-0.0","0","0","42716","","null","","","null","46","","","","","","","","","","","","","","","",""
"","ITI","","html-keyboard-response","305","308186","0.0-1.0-423.0","0","0","42716","","null","","","null","46","","","","","","","","","","","","","","","NaN",""
"","S1","","html-keyboard-response","306","308453","0.0-1.0-425.0","0","0","42716","","null","","","null","47","","","","","","","","","","","","","","","",""
"","ISI","","html-keyboard-response","307","309456","0.0-1.0-426.0","0","0","42716","","null","","","null","47","NaN","","","","","","","","","","","","","","",""
"","S2","","html-keyboard-response","308","309722","0.0-1.0-427.0","0","0","42716","","null","","","null","47","","NaN","","","","","","","","","","","","","",""
"","response","","html-keyboard-response","309","310687","0.0-1.0-428.0-0.0","0","0","42716","","962","","","75","47","","","1","47","training","adjacent","DC","4","3","R.jpg","O.jpg","0","0","1","",""
"","feedback","","html-keyboard-response","310","311696","0.0-1.0-429.0-0.0","0","0","42716","","null","","","null","47","","","","","","","","","","","","","","","",""
"","ITI","","html-keyboard-response","311","312714","0.0-1.0-432.0","0","0","42716","","null","","","null","47","","","","","","","","","","","","","","","NaN",""
"","block_over","","html-keyboard-response","312","316847","0.0-1.0-433.0-0.0","0","0","42716","","4127","","","32","47","","","","","","","","","","","","","","","",""
"","S1","","html-keyboard-response","313","317115","0.0-1.0-434.0","0","0","42716","","null","","","null","48","","","","","","","","","","","","","","","",""
"","ISI","","html-keyboard-response","314","318133","0.0-1.0-435.0","0","0","42716","","null","","","null","48","NaN","","","","","","","","","","","","","","",""
"","S2","","html-keyboard-response","315","318399","0.0-1.0-436.0","0","0","42716","","null","","","null","48","","NaN","","","","","","","","","","","","","",""
"","response","","html-keyboard-response","316","319455","0.0-1.0-437.0-0.0","0","0","42716","","1052","","","75","48","","","2","48","training","adjacent","BA","2","1","Q.jpg","P.jpg","0","0","1","",""
"","feedback","","html-keyboard-response","317","320469","0.0-1.0-438.0-0.0","0","0","42716","","null","","","null","48","","","","","","","","","","","","","","","",""
"","ITI","","html-keyboard-response","318","321485","0.0-1.0-441.0","0","0","42716","","null","","","null","48","","","","","","","","","","","","","","","NaN",""
"","S1","","html-keyboard-response","319","321748","0.0-1.0-443.0","0","0","42716","","null","","","null","49","","","","","","","","","","","","","","","",""
"","ISI","","html-keyboard-response","320","322766","0.0-1.0-444.0","0","0","42716","","null","","","null","49","NaN","","","","","","","","","","","","","","",""
"","S2","","html-keyboard-response","321","323031","0.0-1.0-445.0","0","0","42716","","null","","","null","49","","NaN","","","","","","","","","","","","","",""
"","response","","html-keyboard-response","322","324111","0.0-1.0-446.0-0.0","0","0","42716","","1078","","","75","49","","","2","49","training","adjacent","DE","4","5","R.jpg","M.jpg","0","1","0","",""
"","feedback","","html-keyboard-response","323","325129","0.0-1.0-447.0-0.0","0","0","42716","","null","","","null","49","","","","","","","","","","","","","","","",""
"","time_out","","html-keyboard-response","324","327132","0.0-1.0-449.0-0.0","0","0","42716","","null","","","null","49","","","","","","","","","","","","","","","",""
"","ITI","","html-keyboard-response","325","328135","0.0-1.0-450.0","0","0","42716","","null","","","null","49","","","","","","","","","","","","","","","NaN",""
"","S1","","html-keyboard-response","326","328400","0.0-1.0-452.0","0","0","42716","","null","","","null","50","","","","","","","","","","","","","","","",""
"","ISI","","html-keyboard-response","327","329418","0.0-1.0-453.0","0","0","42716","","null","","","null","50","NaN","","","","","","","","","","","","","","",""
"","S2","","html-keyboard-response","328","329683","0.0-1.0-454.0","0","0","42716","","null","","","null","50","","NaN","","","","","","","","","","","","","",""
"","response","","html-keyboard-response","329","330302","0.0-1.0-455.0-0.0","0","0","42716","","616","","","75","50","","","2","50","training","adjacent","CB","3","2","O.jpg","Q.jpg","0","0","1","",""
"","feedback","","html-keyboard-response","330","331311","0.0-1.0-456.0-0.0","0","0","42716","","null","","","null","50","","","","","","","","","","","","","","","",""
"","ITI","","html-keyboard-response","331","332327","0.0-1.0-459.0","0","0","42716","","null","","","null","50","","","","","","","","","","","","","","","NaN",""
"","S1","","html-keyboard-response","332","332591","0.0-1.0-461.0","0","0","42716","","null","","","null","51","","","","","","","","","","","","","","","",""
"","ISI","","html-keyboard-response","333","333608","0.0-1.0-462.0","0","0","42716","","null","","","null","51","NaN","","","","","","","","","","","","","","",""
"","S2","","html-keyboard-response","334","333874","0.0-1.0-463.0","0","0","42716","","null","","","null","51","","NaN","","","","","","","","","","","","","",""
"","response","","html-keyboard-response","335","334127","0.0-1.0-464.0-0.0","0","0","42716","","250","","","75","51","","","2","51","training","adjacent","GF","7","6","N.jpg","L.jpg","0","0","1","",""
"","feedback","","html-keyboard-response","336","335138","0.0-1.0-465.0-0.0","0","0","42716","","null","","","null","51","","","","","","","","","","","","","","","",""
"","ITI","","html-keyboard-response","337","336157","0.0-1.0-468.0","0","0","42716","","null","","","null","51","","","","","","","","","","","","","","","NaN",""
"","S1","","html-keyboard-response","338","336422","0.0-1.0-470.0","0","0","42716","","null","","","null","52","","","","","","","","","","","","","","","",""
"","ISI","","html-keyboard-response","339","337437","0.0-1.0-471.0","0","0","42716","","null","","","null","52","NaN","","","","","","","","","","","","","","",""
"","S2","","html-keyboard-response","340","337703","0.0-1.0-472.0","0","0","42716","","null","","","null","52","","NaN","","","","","","","","","","","","","",""
"","response","","html-keyboard-response","341","337934","0.0-1.0-473.0-0.0","0","0","42716","","229","","","68","52","","","2","52","training","adjacent","EF","5","6","M.jpg","L.jpg","1","1","1","",""
"","feedback","","html-keyboard-response","342","338938","0.0-1.0-474.0-0.0","0","0","42716","","null","","","null","52","","","","","","","","","","","","","","","",""
"","ITI","","html-keyboard-response","343","339954","0.0-1.0-477.0","0","0","42716","","null","","","null","52","","","","","","","","","","","","","","","NaN",""
"","S1","","html-keyboard-response","344","340219","0.0-1.0-479.0","0","0","42716","","null","","","null","53","","","","","","","","","","","","","","","",""
"","ISI","","html-keyboard-response","345","341223","0.0-1.0-480.0","0","0","42716","","null","","","null","53","NaN","","","","","","","","","","","","","","",""
"","S2","","html-keyboard-response","346","341488","0.0-1.0-481.0","0","0","42716","","null","","","null","53","","NaN","","","","","","","","","","","","","",""
"","response","","html-keyboard-response","347","342030","0.0-1.0-482.0-0.0","0","0","42716","","540","","","68","53","","","2","53","training","adjacent","FG","6","7","L.jpg","N.jpg","1","1","1","",""
"","feedback","","html-keyboard-response","348","343041","0.0-1.0-483.0-0.0","0","0","42716","","null","","","null","53","","","","","","","","","","","","","","","",""
"","ITI","","html-keyboard-response","349","344058","0.0-1.0-486.0","0","0","42716","","null","","","null","53","","","","","","","","","","","","","","","NaN",""
"","S1","","html-keyboard-response","350","344323","0.0-1.0-488.0","0","0","42716","","null","","","null","54","","","","","","","","","","","","","","","",""
"","ISI","","html-keyboard-response","351","345325","0.0-1.0-489.0","0","0","42716","","null","","","null","54","NaN","","","","","","","","","","","","","","",""
"","S2","","html-keyboard-response","352","345590","0.0-1.0-490.0","0","0","42716","","null","","","null","54","","NaN","","","","","","","","","","","","","",""
"","response","","html-keyboard-response","353","346031","0.0-1.0-491.0-0.0","0","0","42716","","438","","","68","54","","","2","54","training","adjacent","FG","6","7","L.jpg","N.jpg","1","1","1","",""
"","feedback","","html-keyboard-response","354","347043","0.0-1.0-492.0-0.0","0","0","42716","","null","","","null","54","","","","","","","","","","","","","","","",""
"","ITI","","html-keyboard-response","355","348058","0.0-1.0-495.0","0","0","42716","","null","","","null","54","","","","","","","","","","","","","","","NaN",""
"","S1","","html-keyboard-response","356","348324","0.0-1.0-497.0","0","0","42716","","null","","","null","55","","","","","","","","","","","","","","","",""
"","ISI","","html-keyboard-response","357","349340","0.0-1.0-498.0","0","0","42716","","null","","","null","55","NaN","","","","","","","","","","","","","","",""
"","S2","","html-keyboard-response","358","349605","0.0-1.0-499.0","0","0","42716","","null","","","null","55","","NaN","","","","","","","","","","","","","",""
"","response","","html-keyboard-response","359","349951","0.0-1.0-500.0-0.0","0","0","42716","","344","","","68","55","","","2","55","training","adjacent","FG","6","7","L.jpg","N.jpg","1","1","1","",""
"","feedback","","html-keyboard-response","360","350965","0.0-1.0-501.0-0.0","0","0","42716","","null","","","null","55","","","","","","","","","","","","","","","",""
"","ITI","","html-keyboard-response","361","351982","0.0-1.0-504.0","0","0","42716","","null","","","null","55","","","","","","","","","","","","","","","NaN",""
"","S1","","html-keyboard-response","362","352248","0.0-1.0-506.0","0","0","42716","","null","","","null","56","","","","","","","","","","","","","","","",""
"","ISI","","html-keyboard-response","363","353264","0.0-1.0-507.0","0","0","42716","","null","","","null","56","NaN","","","","","","","","","","","","","","",""
"","S2","","html-keyboard-response","364","353529","0.0-1.0-508.0","0","0","42716","","null","","","null","56","","NaN","","","","","","","","","","","","","",""
"","response","","html-keyboard-response","365","353702","0.0-1.0-509.0-0.0","0","0","42716","","171","","","75","56","","","2","56","training","adjacent","GF","7","6","N.jpg","L.jpg","0","0","1","",""
"","feedback","","html-keyboard-response","366","354716","0.0-1.0-510.0-0.0","0","0","42716","","null","","","null","56","","","","","","","","","","","","","","","",""
"","ITI","","html-keyboard-response","367","355734","0.0-1.0-513.0","0","0","42716","","null","","","null","56","","","","","","","","","","","","","","","NaN",""
"","S1","","html-keyboard-response","368","356000","0.0-1.0-515.0","0","0","42716","","null","","","null","57","","","","","","","","","","","","","","","",""
"","ISI","","html-keyboard-response","369","357017","0.0-1.0-516.0","0","0","42716","","null","","","null","57","NaN","","","","","","","","","","","","","","",""
"","S2","","html-keyboard-response","370","357282","0.0-1.0-517.0","0","0","42716","","null","","","null","57","","NaN","","","","","","","","","","","","","",""
"","response","","html-keyboard-response","371","357527","0.0-1.0-518.0-0.0","0","0","42716","","241","","","68","57","","","2","57","training","adjacent","BC","2","3","Q.jpg","O.jpg","1","1","1","",""
"","feedback","","html-keyboard-response","372","358532","0.0-1.0-519.0-0.0","0","0","42716","","null","","","null","57","","","","","","","","","","","","","","","",""
"","ITI","","html-keyboard-response","373","359550","0.0-1.0-522.0","0","0","42716","","null","","","null","57","","","","","","","","","","","","","","","NaN",""
"","S1","","html-keyboard-response","374","359814","0.0-1.0-524.0","0","0","42716","","null","","","null","58","","","","","","","","","","","","","","","",""
"","ISI","","html-keyboard-response","375","360818","0.0-1.0-525.0","0","0","42716","","null","","","null","58","NaN","","","","","","","","","","","","","","",""
"","S2","","html-keyboard-response","376","361082","0.0-1.0-526.0","0","0","42716","","null","","","null","58","","NaN","","","","","","","","","","","","","",""
"","response","","html-keyboard-response","377","361231","0.0-1.0-527.0-0.0","0","0","42716","","145","","","75","58","","","2","58","training","adjacent","FE","6","5","L.jpg","M.jpg","0","0","1","",""
"","feedback","","html-keyboard-response","378","362239","0.0-1.0-528.0-0.0","0","0","42716","","null","","","null","58","","","","","","","","","","","","","","","",""
"","ITI","","html-keyboard-response","379","363255","0.0-1.0-531.0","0","0","42716","","null","","","null","58","","","","","","","","","","","","","","","NaN",""
"","S1","","html-keyboard-response","380","363521","0.0-1.0-533.0","0","0","42716","","null","","","null","59","","","","","","","","","","","","","","","",""
"","ISI","","html-keyboard-response","381","364524","0.0-1.0-534.0","0","0","42716","","null","","","null","59","NaN","","","","","","","","","","","","","","",""
"","S2","","html-keyboard-response","382","364791","0.0-1.0-535.0","0","0","42716","","null","","","null","59","","NaN","","","","","","","","","","","","","",""
"","response","","html-keyboard-response","383","365006","0.0-1.0-536.0-0.0","0","0","42716","","212","","","68","59","","","2","59","training","adjacent","DE","4","5","R.jpg","M.jpg","1","1","1","",""
"","feedback","","html-keyboard-response","384","366011","0.0-1.0-537.0-0.0","0","0","42716","","null","","","null","59","","","","","","","","","","","","","","","",""
"","ITI","","html-keyboard-response","385","367030","0.0-1.0-540.0","0","0","42716","","null","","","null","59","","","","","","","","","","","","","","","NaN",""
"","S1","","html-keyboard-response","386","367295","0.0-1.0-542.0","0","0","42716","","null","","","null","60","","","","","","","","","","","","","","","",""
"","ISI","","html-keyboard-response","387","368298","0.0-1.0-543.0","0","0","42716","","null","","","null","60","NaN","","","","","","","","","","","","","","",""
"","S2","","html-keyboard-response","388","368563","0.0-1.0-544.0","0","0","42716","","null","","","null","60","","NaN","","","","","","","","","","","","","",""
"","response","","html-keyboard-response","389","369167","0.0-1.0-545.0-0.0","0","0","42716","","600","","","75","60","","","2","60","training","adjacent","DC","4","3","R.jpg","O.jpg","0","0","1","",""
"","feedback","","html-keyboard-response","390","370174","0.0-1.0-546.0-0.0","0","0","42716","","null","","","null","60","","","","","","","","","","","","","","","",""
"","ITI","","html-keyboard-response","391","371191","0.0-1.0-549.0","0","0","42716","","null","","","null","60","","","","","","","","","","","","","","","NaN",""
"","S1","","html-keyboard-response","392","371456","0.0-1.0-551.0","0","0","42716","","null","","","null","61","","","","","","","","","","","","","","","",""
"","ISI","","html-keyboard-response","393","372473","0.0-1.0-552.0","0","0","42716","","null","","","null","61","NaN","","","","","","","","","","","","","","",""
"","S2","","html-keyboard-response","394","372739","0.0-1.0-553.0","0","0","42716","","null","","","null","61","","NaN","","","","","","","","","","","","","",""
"","response","","html-keyboard-response","395","373214","0.0-1.0-554.0-0.0","0","0","42716","","473","","","75","61","","","2","61","training","adjacent","DC","4","3","R.jpg","O.jpg","0","0","1","",""
"","feedback","","html-keyboard-response","396","374226","0.0-1.0-555.0-0.0","0","0","42716","","null","","","null","61","","","","","","","","","","","","","","","",""
"","ITI","","html-keyboard-response","397","375244","0.0-1.0-558.0","0","0","42716","","null","","","null","61","","","","","","","","","","","","","","","NaN",""
"","S1","","html-keyboard-response","398","375509","0.0-1.0-560.0","0","0","42716","","null","","","null","62","","","","","","","","","","","","","","","",""
"","ISI","","html-keyboard-response","399","376525","0.0-1.0-561.0","0","0","42716","","null","","","null","62","NaN","","","","","","","","","","","","","","",""
"","S2","","html-keyboard-response","400","376792","0.0-1.0-562.0","0","0","42716","","null","","","null","62","","NaN","","","","","","","","","","","","","",""
"","response","","html-keyboard-response","401","377374","0.0-1.0-563.0-0.0","0","0","42716","","578","","","75","62","","","2","62","training","adjacent","AB","1","2","P.jpg","Q.jpg","0","1","0","",""
"","feedback","","html-keyboard-response","402","378389","0.0-1.0-564.0-0.0","0","0","42716","","null","","","null","62","","","","","","","","","","","","","","","",""
"","time_out","","html-keyboard-response","403","380407","0.0-1.0-566.0-0.0","0","0","42716","","null","","","null","62","","","","","","","","","","","","","","","",""
"","ITI","","html-keyboard-response","404","381424","0.0-1.0-567.0","0","0","42716","","null","","","null","62","","","","","","","","","","","","","","","NaN",""
"","S1","","html-keyboard-response","405","381689","0.0-1.0-569.0","0","0","42716","","null","","","null","63","","","","","","","","","","","","","","","",""
"","ISI","","html-keyboard-response","406","382705","0.0-1.0-570.0","0","0","42716","","null","","","null","63","NaN","","","","","","","","","","","","","","",""
"","S2","","html-keyboard-response","407","382970","0.0-1.0-571.0","0","0","42716","","null","","","null","63","","NaN","","","","","","","","","","","","","",""
"","response","","html-keyboard-response","408","383599","0.0-1.0-572.0-0.0","0","0","42716","","626","","","75","63","","","2","63","training","adjacent","ED","5","4","M.jpg","R.jpg","0","0","1","",""
"","feedback","","html-keyboard-response","409","384610","0.0-1.0-573.0-0.0","0","0","42716","","null","","","null","63","","","","","","","","","","","","","","","",""
"","ITI","","html-keyboard-response","410","385629","0.0-1.0-576.0","0","0","42716","","null","","","null","63","","","","","","","","","","","","","","","NaN",""
"","S1","","html-keyboard-response","411","385895","0.0-1.0-578.0","0","0","42716","","null","","","null","64","","","","","","","","","","","","","","","",""
"","ISI","","html-keyboard-response","412","386912","0.0-1.0-579.0","0","0","42716","","null","","","null","64","NaN","","","","","","","","","","","","","","",""
"","S2","","html-keyboard-response","413","387177","0.0-1.0-580.0","0","0","42716","","null","","","null","64","","NaN","","","","","","","","","","","","","",""
"","response","","html-keyboard-response","414","387278","0.0-1.0-581.0-0.0","0","0","42716","","96","","","75","64","","","2","64","training","adjacent","GF","7","6","N.jpg","L.jpg","0","0","1","",""
"","feedback","","html-keyboard-response","415","388290","0.0-1.0-582.0-0.0","0","0","42716","","null","","","null","64","","","","","","","","","","","","","","","",""
"","ITI","","html-keyboard-response","416","389307","0.0-1.0-585.0","0","0","42716","","177","","","20","64","","","","","","","","","","","","","","","capslock",""
"","S1","","html-keyboard-response","417","389572","0.0-1.0-587.0","0","0","42716","","null","","","null","65","","","","","","","","","","","","","","","",""
"","ISI","","html-keyboard-response","418","390591","0.0-1.0-588.0","0","0","42716","","null","","","null","65","NaN","","","","","","","","","","","","","","",""
"","S2","","html-keyboard-response","419","390857","0.0-1.0-589.0","0","0","42716","","null","","","null","65","","NaN","","","","","","","","","","","","","",""
"","response","","html-keyboard-response","420","391662","0.0-1.0-590.0-0.0","0","0","42716","","802","","","75","65","","","2","65","training","adjacent","ED","5","4","M.jpg","R.jpg","0","0","1","",""
"","feedback","","html-keyboard-response","421","392671","0.0-1.0-591.0-0.0","0","0","42716","","null","","","null","65","","","","","","","","","","","","","","","",""
"","ITI","","html-keyboard-response","422","393689","0.0-1.0-594.0","0","0","42716","","null","","","null","65","","","","","","","","","","","","","","","NaN",""
"","S1","","html-keyboard-response","423","393955","0.0-1.0-596.0","0","0","42716","","null","","","null","66","","","","","","","","","","","","","","","",""
"","ISI","","html-keyboard-response","424","394958","0.0-1.0-597.0","0","0","42716","","null","","","null","66","NaN","","","","","","","","","","","","","","",""
"","S2","","html-keyboard-response","425","395222","0.0-1.0-598.0","0","0","42716","","null","","","null","66","","NaN","","","","","","","","","","","","","",""
"","response","","html-keyboard-response","426","396238","0.0-1.0-599.0-0.0","0","0","42716","","1014","","","75","66","","","2","66","training","adjacent","CB","3","2","O.jpg","Q.jpg","0","0","1","",""
"","feedback","","html-keyboard-response","427","397255","0.0-1.0-600.0-0.0","0","0","42716","","null","","","null","66","","","","","","","","","","","","","","","",""
"","ITI","","html-keyboard-response","428","398272","0.0-1.0-603.0","0","0","42716","","null","","","null","66","","","","","","","","","","","","","","","NaN",""
"","S1","","html-keyboard-response","429","398538","0.0-1.0-605.0","0","0","42716","","null","","","null","67","","","","","","","","","","","","","","","",""
"","ISI","","html-keyboard-response","430","399541","0.0-1.0-606.0","0","0","42716","","null","","","null","67","NaN","","","","","","","","","","","","","","",""
"","S2","","html-keyboard-response","431","399806","0.0-1.0-607.0","0","0","42716","","null","","","null","67","","NaN","","","","","","","","","","","","","",""
"","response","","html-keyboard-response","432","400214","0.0-1.0-608.0-0.0","0","0","42716","","404","","","75","67","","","2","67","training","adjacent","FE","6","5","L.jpg","M.jpg","0","0","1","",""
"","feedback","","html-keyboard-response","433","401229","0.0-1.0-609.0-0.0","0","0","42716","","null","","","null","67","","","","","","","","","","","","","","","",""
"","ITI","","html-keyboard-response","434","402244","0.0-1.0-612.0","0","0","42716","","null","","","null","67","","","","","","","","","","","","","","","NaN",""
"","S1","","html-keyboard-response","435","402510","0.0-1.0-614.0","0","0","42716","","null","","","null","68","","","","","","","","","","","","","","","",""
"","ISI","","html-keyboard-response","436","403528","0.0-1.0-615.0","0","0","42716","","null","","","null","68","NaN","","","","","","","","","","","","","","",""
"","S2","","html-keyboard-response","437","403793","0.0-1.0-616.0","0","0","42716","","null","","","null","68","","NaN","","","","","","","","","","","","","",""
"","response","","html-keyboard-response","438","404494","0.0-1.0-617.0-0.0","0","0","42716","","697","","","75","68","","","2","68","training","adjacent","CD","3","4","O.jpg","R.jpg","0","1","0","",""
"","feedback","","html-keyboard-response","439","405512","0.0-1.0-618.0-0.0","0","0","42716","","null","","","null","68","","","","","","","","","","","","","","","",""
"","time_out","","html-keyboard-response","440","407528","0.0-1.0-620.0-0.0","0","0","42716","","null","","","null","68","","","","","","","","","","","","","","","",""
"","ITI","","html-keyboard-response","441","408546","0.0-1.0-621.0","0","0","42716","","null","","","null","68","","","","","","","","","","","","","","","NaN",""
"","S1","","html-keyboard-response","442","408811","0.0-1.0-623.0","0","0","42716","","null","","","null","69","","","","","","","","","","","","","","","",""
"","ISI","","html-keyboard-response","443","409829","0.0-1.0-624.0","0","0","42716","","null","","","null","69","NaN","","","","","","","","","","","","","","",""
"","S2","","html-keyboard-response","444","410095","0.0-1.0-625.0","0","0","42716","","null","","","null","69","","NaN","","","","","","","","","","","","","",""
"","response","","html-keyboard-response","445","410358","0.0-1.0-626.0-0.0","0","0","42716","","259","","","68","69","","","2","69","training","adjacent","EF","5","6","M.jpg","L.jpg","1","1","1","",""
"","feedback","","html-keyboard-response","446","411362","0.0-1.0-627.0-0.0","0","0","42716","","null","","","null","69","","","","","","","","","","","","","","","",""
"","ITI","","html-keyboard-response","447","412376","0.0-1.0-630.0","0","0","42716","","null","","","null","69","","","","","","","","","","","","","","","NaN",""
"","S1","","html-keyboard-response","448","412641","0.0-1.0-632.0","0","0","42716","","null","","","null","70","","","","","","","","","","","","","","","",""
"","ISI","","html-keyboard-response","449","413658","0.0-1.0-633.0","0","0","42716","","null","","","null","70","NaN","","","","","","","","","","","","","","",""
"","S2","","html-keyboard-response","450","413922","0.0-1.0-634.0","0","0","42716","","null","","","null","70","","NaN","","","","","","","","","","","","","",""
"","response","","html-keyboard-response","451","415174","0.0-1.0-635.0-0.0","0","0","42716","","1248","","","75","70","","","2","70","training","adjacent","DE","4","5","R.jpg","M.jpg","0","1","0","",""
"","feedback","","html-keyboard-response","452","416189","0.0-1.0-636.0-0.0","0","0","42716","","null","","","null","70","","","","","","","","","","","","","","","",""
"","time_out","","html-keyboard-response","453","418207","0.0-1.0-638.0-0.0","0","0","42716","","null","","","null","70","","","","","","","","","","","","","","","",""
"","ITI","","html-keyboard-response","454","419223","0.0-1.0-639.0","0","0","42716","","null","","","null","70","","","","","","","","","","","","","","","NaN",""
"","S1","","html-keyboard-response","455","419488","0.0-1.0-641.0","0","0","42716","","null","","","null","71","","","","","","","","","","","","","","","",""
"","ISI","","html-keyboard-response","456","420490","0.0-1.0-642.0","0","0","42716","","null","","","null","71","NaN","","","","","","","","","","","","","","",""
"","S2","","html-keyboard-response","457","420757","0.0-1.0-643.0","0","0","42716","","null","","","null","71","","NaN","","","","","","","","","","","","","",""
"","response","","html-keyboard-response","458","421006","0.0-1.0-644.0-0.0","0","0","42716","","246","","","68","71","","","2","71","training","adjacent","EF","5","6","M.jpg","L.jpg","1","1","1","",""
"","feedback","","html-keyboard-response","459","422013","0.0-1.0-645.0-0.0","0","0","42716","","null","","","null","71","","","","","","","","","","","","","","","",""
"","ITI","","html-keyboard-response","460","423016","0.0-1.0-648.0","0","0","42716","","null","","","null","71","","","","","","","","","","","","","","","NaN",""
"","S1","","html-keyboard-response","461","423281","0.0-1.0-650.0","0","0","42716","","null","","","null","72","","","","","","","","","","","","","","","",""
"","ISI","","html-keyboard-response","462","424288","0.0-1.0-651.0","0","0","42716","","null","","","null","72","NaN","","","","","","","","","","","","","","",""
"","S2","","html-keyboard-response","463","424553","0.0-1.0-652.0","0","0","42716","","null","","","null","72","","NaN","","","","","","","","","","","","","",""
"","response","","html-keyboard-response","464","424910","0.0-1.0-653.0-0.0","0","0","42716","","353","","","75","72","","","2","72","training","adjacent","CB","3","2","O.jpg","Q.jpg","0","0","1","",""
"","feedback","","html-keyboard-response","465","425916","0.0-1.0-654.0-0.0","0","0","42716","","null","","","null","72","","","","","","","","","","","","","","","",""
"","ITI","","html-keyboard-response","466","426932","0.0-1.0-657.0","0","0","42716","","null","","","null","72","","","","","","","","","","","","","","","NaN",""
"","S1","","html-keyboard-response","467","427198","0.0-1.0-659.0","0","0","42716","","null","","","null","73","","","","","","","","","","","","","","","",""
"","ISI","","html-keyboard-response","468","428214","0.0-1.0-660.0","0","0","42716","","null","","","null","73","NaN","","","","","","","","","","","","","","",""
"","S2","","html-keyboard-response","469","428481","0.0-1.0-661.0","0","0","42716","","null","","","null","73","","NaN","","","","","","","","","","","","","",""
"","response","","html-keyboard-response","470","428669","0.0-1.0-662.0-0.0","0","0","42716","","185","","","75","73","","","2","73","training","adjacent","GF","7","6","N.jpg","L.jpg","0","0","1","",""
"","feedback","","html-keyboard-response","471","429685","0.0-1.0-663.0-0.0","0","0","42716","","null","","","null","73","","","","","","","","","","","","","","","",""
"","ITI","","html-keyboard-response","472","430701","0.0-1.0-666.0","0","0","42716","","null","","","null","73","","","","","","","","","","","","","","","NaN",""
"","S1","","html-keyboard-response","473","430966","0.0-1.0-668.0","0","0","42716","","null","","","null","74","","","","","","","","","","","","","","","",""
"","ISI","","html-keyboard-response","474","431969","0.0-1.0-669.0","0","0","42716","","null","","","null","74","NaN","","","","","","","","","","","","","","",""
"","S2","","html-keyboard-response","475","432234","0.0-1.0-670.0","0","0","42716","","null","","","null","74","","NaN","","","","","","","","","","","","","",""
"","response","","html-keyboard-response","476","433061","0.0-1.0-671.0-0.0","0","0","42716","","824","","","68","74","","","2","74","training","adjacent","DC","4","3","R.jpg","O.jpg","1","0","0","",""
"","feedback","","html-keyboard-response","477","434078","0.0-1.0-672.0-0.0","0","0","42716","","null","","","null","74","","","","","","","","","","","","","","","",""
"","time_out","","html-keyboard-response","478","436096","0.0-1.0-674.0-0.0","0","0","42716","","null","","","null","74","","","","","","","","","","","","","","","",""
"","ITI","","html-keyboard-response","479","437098","0.0-1.0-675.0","0","0","42716","","null","","","null","74","","","","","","","","","","","","","","","NaN",""
"","S1","","html-keyboard-response","480","437365","0.0-1.0-677.0","0","0","42716","","null","","","null","75","","","","","","","","","","","","","","","",""
"","ISI","","html-keyboard-response","481","438376","0.0-1.0-678.0","0","0","42716","","null","","","null","75","NaN","","","","","","","","","","","","","","",""
"","S2","","html-keyboard-response","482","438630","0.0-1.0-679.0","0","0","42716","","null","","","null","75","","NaN","","","","","","","","","","","","","",""
"","response","","html-keyboard-response","483","439204","0.0-1.0-680.0-0.0","0","0","42716","","572","","","68","75","","","2","75","training","adjacent","AB","1","2","P.jpg","Q.jpg","1","1","1","",""
"","feedback","","html-keyboard-response","484","440213","0.0-1.0-681.0-0.0","0","0","42716","","null","","","null","75","","","","","","","","","","","","","","","",""
"","ITI","","html-keyboard-response","485","441230","0.0-1.0-684.0","0","0","42716","","null","","","null","75","","","","","","","","","","","","","","","NaN",""
"","S1","","html-keyboard-response","486","441497","0.0-1.0-686.0","0","0","42716","","null","","","null","76","","","","","","","","","","","","","","","",""
"","ISI","","html-keyboard-response","487","442514","0.0-1.0-687.0","0","0","42716","","null","","","null","76","NaN","","","","","","","","","","","","","","",""
"","S2","","html-keyboard-response","488","442779","0.0-1.0-688.0","0","0","42716","","null","","","null","76","","NaN","","","","","","","","","","","","","",""
"","response","","html-keyboard-response","489","443029","0.0-1.0-689.0-0.0","0","0","42716","","248","","","68","76","","","2","76","training","adjacent","EF","5","6","M.jpg","L.jpg","1","1","1","",""
"","feedback","","html-keyboard-response","490","444046","0.0-1.0-690.0-0.0","0","0","42716","","null","","","null","76","","","","","","","","","","","","","","","",""
"","ITI","","html-keyboard-response","491","445063","0.0-1.0-693.0","0","0","42716","","null","","","null","76","","","","","","","","","","","","","","","NaN",""
"","S1","","html-keyboard-response","492","445329","0.0-1.0-695.0","0","0","42716","","null","","","null","77","","","","","","","","","","","","","","","",""
"","ISI","","html-keyboard-response","493","446345","0.0-1.0-696.0","0","0","42716","","null","","","null","77","NaN","","","","","","","","","","","","","","",""
"","S2","","html-keyboard-response","494","446611","0.0-1.0-697.0","0","0","42716","","null","","","null","77","","NaN","","","","","","","","","","","","","",""
"","response","","html-keyboard-response","495","447102","0.0-1.0-698.0-0.0","0","0","42716","","488","","","75","77","","","2","77","training","adjacent","DC","4","3","R.jpg","O.jpg","0","0","1","",""
"","feedback","","html-keyboard-response","496","448117","0.0-1.0-699.0-0.0","0","0","42716","","null","","","null","77","","","","","","","","","","","","","","","",""
"","ITI","","html-keyboard-response","497","449134","0.0-1.0-702.0","0","0","42716","","null","","","null","77","","","","","","","","","","","","","","","NaN",""
"","S1","","html-keyboard-response","498","449399","0.0-1.0-704.0","0","0","42716","","null","","","null","78","","","","","","","","","","","","","","","",""
"","ISI","","html-keyboard-response","499","450416","0.0-1.0-705.0","0","0","42716","","null","","","null","78","NaN","","","","","","","","","","","","","","",""
"","S2","","html-keyboard-response","500","450681","0.0-1.0-706.0","0","0","42716","","null","","","null","78","","NaN","","","","","","","","","","","","","",""
"","response","","html-keyboard-response","501","451454","0.0-1.0-707.0-0.0","0","0","42716","","770","","","68","78","","","2","78","training","adjacent","BA","2","1","Q.jpg","P.jpg","1","0","0","",""
"","feedback","","html-keyboard-response","502","452465","0.0-1.0-708.0-0.0","0","0","42716","","null","","","null","78","","","","","","","","","","","","","","","",""
"","time_out","","html-keyboard-response","503","454470","0.0-1.0-710.0-0.0","0","0","42716","","null","","","null","78","","","","","","","","","","","","","","","",""
"","ITI","","html-keyboard-response","504","455486","0.0-1.0-711.0","0","0","42716","","null","","","null","78","","","","","","","","","","","","","","","NaN",""
"","S1","","html-keyboard-response","505","455752","0.0-1.0-713.0","0","0","42716","","null","","","null","79","","","","","","","","","","","","","","","",""
"","ISI","","html-keyboard-response","506","456770","0.0-1.0-714.0","0","0","42716","","null","","","null","79","NaN","","","","","","","","","","","","","","",""
"","S2","","html-keyboard-response","507","457035","0.0-1.0-715.0","0","0","42716","","null","","","null","79","","NaN","","","","","","","","","","","","","",""
"","response","","html-keyboard-response","508","457517","0.0-1.0-716.0-0.0","0","0","42716","","480","","","68","79","","","2","79","training","adjacent","BC","2","3","Q.jpg","O.jpg","1","1","1","",""
"","feedback","","html-keyboard-response","509","458537","0.0-1.0-717.0-0.0","0","0","42716","","null","","","null","79","","","","","","","","","","","","","","","",""
"","ITI","","html-keyboard-response","510","459553","0.0-1.0-720.0","0","0","42716","","null","","","null","79","","","","","","","","","","","","","","","NaN",""
"","S1","","html-keyboard-response","511","459818","0.0-1.0-722.0","0","0","42716","","null","","","null","80","","","","","","","","","","","","","","","",""
"","ISI","","html-keyboard-response","512","460835","0.0-1.0-723.0","0","0","42716","","null","","","null","80","NaN","","","","","","","","","","","","","","",""
"","S2","","html-keyboard-response","513","461100","0.0-1.0-724.0","0","0","42716","","null","","","null","80","","NaN","","","","","","","","","","","","","",""
"","response","","html-keyboard-response","514","461357","0.0-1.0-725.0-0.0","0","0","42716","","254","","","75","80","","","2","80","training","adjacent","BA","2","1","Q.jpg","P.jpg","0","0","1","",""
"","feedback","","html-keyboard-response","515","462367","0.0-1.0-726.0-0.0","0","0","42716","","null","","","null","80","","","","","","","","","","","","","","","",""
"","ITI","","html-keyboard-response","516","463382","0.0-1.0-729.0","0","0","42716","","null","","","null","80","","","","","","","","","","","","","","","NaN",""
"","S1","","html-keyboard-response","517","463647","0.0-1.0-731.0","0","0","42716","","null","","","null","81","","","","","","","","","","","","","","","",""
"","ISI","","html-keyboard-response","518","464662","0.0-1.0-732.0","0","0","42716","","null","","","null","81","NaN","","","","","","","","","","","","","","",""
"","S2","","html-keyboard-response","519","464928","0.0-1.0-733.0","0","0","42716","","null","","","null","81","","NaN","","","","","","","","","","","","","",""
"","response","","html-keyboard-response","520","465669","0.0-1.0-734.0-0.0","0","0","42716","","737","","","75","81","","","2","81","training","adjacent","FE","6","5","L.jpg","M.jpg","0","0","1","",""
"","feedback","","html-keyboard-response","521","466681","0.0-1.0-735.0-0.0","0","0","42716","","null","","","null","81","","","","","","","","","","","","","","","",""
"","ITI","","html-keyboard-response","522","467698","0.0-1.0-738.0","0","0","42716","","null","","","null","81","","","","","","","","","","","","","","","NaN",""
"","S1","","html-keyboard-response","523","467965","0.0-1.0-740.0","0","0","42716","","null","","","null","82","","","","","","","","","","","","","","","",""
"","ISI","","html-keyboard-response","524","468980","0.0-1.0-741.0","0","0","42716","","null","","","null","82","NaN","","","","","","","","","","","","","","",""
"","S2","","html-keyboard-response","525","469246","0.0-1.0-742.0","0","0","42716","","null","","","null","82","","NaN","","","","","","","","","","","","","",""
"","response","","html-keyboard-response","526","469861","0.0-1.0-743.0-0.0","0","0","42716","","612","","","75","82","","","2","82","training","adjacent","CD","3","4","O.jpg","R.jpg","0","1","0","",""
"","feedback","","html-keyboard-response","527","470873","0.0-1.0-744.0-0.0","0","0","42716","","null","","","null","82","","","","","","","","","","","","","","","",""
"","time_out","","html-keyboard-response","528","472890","0.0-1.0-746.0-0.0","0","0","42716","","null","","","null","82","","","","","","","","","","","","","","","",""
"","ITI","","html-keyboard-response","529","473908","0.0-1.0-747.0","0","0","42716","","null","","","null","82","","","","","","","","","","","","","","","NaN",""
"","S1","","html-keyboard-response","530","474173","0.0-1.0-749.0","0","0","42716","","null","","","null","83","","","","","","","","","","","","","","","",""
"","ISI","","html-keyboard-response","531","475190","0.0-1.0-750.0","0","0","42716","","null","","","null","83","NaN","","","","","","","","","","","","","","",""
"","S2","","html-keyboard-response","532","475456","0.0-1.0-751.0","0","0","42716","","null","","","null","83","","NaN","","","","","","","","","","","","","",""
"","response","","html-keyboard-response","533","476213","0.0-1.0-752.0-0.0","0","0","42716","","754","","","68","83","","","2","83","training","adjacent","CD","3","4","O.jpg","R.jpg","1","1","1","",""
"","feedback","","html-keyboard-response","534","477223","0.0-1.0-753.0-0.0","0","0","42716","","null","","","null","83","","","","","","","","","","","","","","","",""
"","ITI","","html-keyboard-response","535","478239","0.0-1.0-756.0","0","0","42716","","null","","","null","83","","","","","","","","","","","","","","","NaN",""
"","S1","","html-keyboard-response","536","478505","0.0-1.0-758.0","0","0","42716","","null","","","null","84","","","","","","","","","","","","","","","",""
"","ISI","","html-keyboard-response","537","479520","0.0-1.0-759.0","0","0","42716","","null","","","null","84","NaN","","","","","","","","","","","","","","",""
"","S2","","html-keyboard-response","538","479784","0.0-1.0-760.0","0","0","42716","","null","","","null","84","","NaN","","","","","","","","","","","","","",""
"","response","","html-keyboard-response","539","480397","0.0-1.0-761.0-0.0","0","0","42716","","610","","","75","84","","","2","84","training","adjacent","ED","5","4","M.jpg","R.jpg","0","0","1","",""
"","feedback","","html-keyboard-response","540","481414","0.0-1.0-762.0-0.0","0","0","42716","","null","","","null","84","","","","","","","","","","","","","","","",""
"","ITI","","html-keyboard-response","541","482432","0.0-1.0-765.0","0","0","42716","","null","","","null","84","","","","","","","","","","","","","","","NaN",""
"","S1","","html-keyboard-response","542","482694","0.0-1.0-767.0","0","0","42716","","null","","","null","85","","","","","","","","","","","","","","","",""
"","ISI","","html-keyboard-response","543","483711","0.0-1.0-768.0","0","0","42716","","null","","","null","85","NaN","","","","","","","","","","","","","","",""
"","S2","","html-keyboard-response","544","483975","0.0-1.0-769.0","0","0","42716","","null","","","null","85","","NaN","","","","","","","","","","","","","",""
"","response","","html-keyboard-response","545","484205","0.0-1.0-770.0-0.0","0","0","42716","","227","","","68","85","","","2","85","training","adjacent","BC","2","3","Q.jpg","O.jpg","1","1","1","",""
"","feedback","","html-keyboard-response","546","485211","0.0-1.0-771.0-0.0","0","0","42716","","null","","","null","85","","","","","","","","","","","","","","","",""
"","ITI","","html-keyboard-response","547","486227","0.0-1.0-774.0","0","0","42716","","null","","","null","85","","","","","","","","","","","","","","","NaN",""
"","S1","","html-keyboard-response","548","486492","0.0-1.0-776.0","0","0","42716","","null","","","null","86","","","","","","","","","","","","","","","",""
"","ISI","","html-keyboard-response","549","487510","0.0-1.0-777.0","0","0","42716","","null","","","null","86","NaN","","","","","","","","","","","","","","",""
"","S2","","html-keyboard-response","550","487775","0.0-1.0-778.0","0","0","42716","","null","","","null","86","","NaN","","","","","","","","","","","","","",""
"","response","","html-keyboard-response","551","488652","0.0-1.0-779.0-0.0","0","0","42716","","874","","","68","86","","","2","86","training","adjacent","CD","3","4","O.jpg","R.jpg","1","1","1","",""
"","feedback","","html-keyboard-response","552","489657","0.0-1.0-780.0-0.0","0","0","42716","","null","","","null","86","","","","","","","","","","","","","","","",""
"","ITI","","html-keyboard-response","553","490676","0.0-1.0-783.0","0","0","42716","","null","","","null","86","","","","","","","","","","","","","","","NaN",""
"","S1","","html-keyboard-response","554","490943","0.0-1.0-785.0","0","0","42716","","null","","","null","87","","","","","","","","","","","","","","","",""
"","ISI","","html-keyboard-response","555","491960","0.0-1.0-786.0","0","0","42716","","null","","","null","87","NaN","","","","","","","","","","","","","","",""
"","S2","","html-keyboard-response","556","492226","0.0-1.0-787.0","0","0","42716","","null","","","null","87","","NaN","","","","","","","","","","","","","",""
"","response","","html-keyboard-response","557","492580","0.0-1.0-788.0-0.0","0","0","42716","","351","","","68","87","","","2","87","training","adjacent","BA","2","1","Q.jpg","P.jpg","1","0","0","",""
"","feedback","","html-keyboard-response","558","493587","0.0-1.0-789.0-0.0","0","0","42716","","null","","","null","87","","","","","","","","","","","","","","","",""
"","time_out","","html-keyboard-response","559","495590","0.0-1.0-791.0-0.0","0","0","42716","","null","","","null","87","","","","","","","","","","","","","","","",""
"","ITI","","html-keyboard-response","560","496608","0.0-1.0-792.0","0","0","42716","","null","","","null","87","","","","","","","","","","","","","","","NaN",""
"","S1","","html-keyboard-response","561","496872","0.0-1.0-794.0","0","0","42716","","null","","","null","88","","","","","","","","","","","","","","","",""
"","ISI","","html-keyboard-response","562","497889","0.0-1.0-795.0","0","0","42716","","null","","","null","88","NaN","","","","","","","","","","","","","","",""
"","S2","","html-keyboard-response","563","498154","0.0-1.0-796.0","0","0","42716","","null","","","null","88","","NaN","","","","","","","","","","","","","",""
"","response","","html-keyboard-response","564","498477","0.0-1.0-797.0-0.0","0","0","42716","","320","","","75","88","","","2","88","training","adjacent","FE","6","5","L.jpg","M.jpg","0","0","1","",""
"","feedback","","html-keyboard-response","565","499482","0.0-1.0-798.0-0.0","0","0","42716","","null","","","null","88","","","","","","","","","","","","","","","",""
"","ITI","","html-keyboard-response","566","500497","0.0-1.0-801.0","0","0","42716","","null","","","null","88","","","","","","","","","","","","","","","NaN",""
"","S1","","html-keyboard-response","567","500764","0.0-1.0-803.0","0","0","42716","","null","","","null","89","","","","","","","","","","","","","","","",""
"","ISI","","html-keyboard-response","568","501780","0.0-1.0-804.0","0","0","42716","","null","","","null","89","NaN","","","","","","","","","","","","","","",""
"","S2","","html-keyboard-response","569","502045","0.0-1.0-805.0","0","0","42716","","null","","","null","89","","NaN","","","","","","","","","","","","","",""
"","response","","html-keyboard-response","570","502429","0.0-1.0-806.0-0.0","0","0","42716","","381","","","68","89","","","2","89","training","adjacent","FG","6","7","L.jpg","N.jpg","1","1","1","",""
"","feedback","","html-keyboard-response","571","503437","0.0-1.0-807.0-0.0","0","0","42716","","null","","","null","89","","","","","","","","","","","","","","","",""
"","ITI","","html-keyboard-response","572","504454","0.0-1.0-810.0","0","0","42716","","null","","","null","89","","","","","","","","","","","","","","","NaN",""
"","S1","","html-keyboard-response","573","504718","0.0-1.0-812.0","0","0","42716","","null","","","null","90","","","","","","","","","","","","","","","",""
"","ISI","","html-keyboard-response","574","505734","0.0-1.0-813.0","0","0","42716","","null","","","null","90","NaN","","","","","","","","","","","","","","",""
"","S2","","html-keyboard-response","575","506000","0.0-1.0-814.0","0","0","42716","","null","","","null","90","","NaN","","","","","","","","","","","","","",""
"","response","","html-keyboard-response","576","506741","0.0-1.0-815.0-0.0","0","0","42716","","737","","","75","90","","","2","90","training","adjacent","DE","4","5","R.jpg","M.jpg","0","1","0","",""
"","feedback","","html-keyboard-response","577","507752","0.0-1.0-816.0-0.0","0","0","42716","","null","","","null","90","","","","","","","","","","","","","","","",""
"","time_out","","html-keyboard-response","578","509770","0.0-1.0-818.0-0.0","0","0","42716","","null","","","null","90","","","","","","","","","","","","","","","",""
"","ITI","","html-keyboard-response","579","510785","0.0-1.0-819.0","0","0","42716","","null","","","null","90","","","","","","","","","","","","","","","NaN",""
"","S1","","html-keyboard-response","580","511051","0.0-1.0-821.0","0","0","42716","","null","","","null","91","","","","","","","","","","","","","","","",""
"","ISI","","html-keyboard-response","581","512067","0.0-1.0-822.0","0","0","42716","","null","","","null","91","NaN","","","","","","","","","","","","","","",""
"","S2","","html-keyboard-response","582","512331","0.0-1.0-823.0","0","0","42716","","null","","","null","91","","NaN","","","","","","","","","","","","","",""
