"success","ttype","start_time","trial_type","trial_index","time_elapsed","internal_node_id","warning","missed_checkup","PID","view_history","rt","responses","repeat_instructions","key_press","index","keypress_isi","keypress_S2","block","trial_num","phase","group_type","pair_type","S1_stim","S2_stim","S1_img","S2_img","S1_chosen","S1_higher","accuracy","keypress_iti","total_bonus_tally"
"true","full_screen","d03032023hr1939","fullscreen","0","18122","0.0-0.0","0","0","72057","","","","","","","","","","","","","","","","","","","","","",""
"","instructions","","instructions","1","63892","0.0-1.0-0.0-0.0","0","0","72057","[{""page_index"":0,""viewing_time"":4391},{""page_index"":1,""viewing_time"":31840},{""page_index"":2,""viewing_time"":8360},{""page_index"":3,""viewing_time"":1176}]","45768","","","","","","","","","","","","","","","","","","","",""
"","comprehension_check","","survey-multi-choice","2","80436","0.0-1.0-0.0-1.0","0","0","72057","","16540","{""Q0"":""True"",""Q1"":""K"",""Q2"":""Once the second image appears and while the screen 'MAKE A CHOICE' is shown"",""Q3"":""Green mark"",""Q4"":""either D or K""}","0","","","","","","","","","","","","","","","","","",""
"","start_exp","","html-keyboard-response","3","82093","0.0-1.0-1.0","0","0","72057","","1654","","","32","","","","","","","","","","","","","","","","",""
"","S1","","html-keyboard-response","4","82347","0.0-1.0-2.0","0","0","72057","","null","","","null","0","","","","","","","","","","","","","","","",""
"","ISI","","html-keyboard-response","5","82850","0.0-1.0-3.0","0","0","72057","","null","","","null","0","NaN","","","","","","","","","","","","","","",""
"","S2","","html-keyboard-response","6","83105","0.0-1.0-4.0","0","0","72057","","null","","","null","0","","NaN","","","","","","","","","","","","","",""
"","response","","html-keyboard-response","7","83514","0.0-1.0-5.0-0.0","0","0","72057","","407","","","75","0","","","1","0","training","adjacent","DC","4","3","M.jpg","N.jpg","1","0","0","",""
"","feedback","","html-keyboard-response","8","84518","0.0-1.0-6.0-0.0","0","0","72057","","null","","","null","0","","","","","","","","","","","","","","","",""
"","time_out","","html-keyboard-response","9","86523","0.0-1.0-8.0-0.0","0","0","72057","","null","","","null","0","","","","","","","","","","","","","","","",""
"","ITI","","html-keyboard-response","10","87524","0.0-1.0-9.0","0","0","72057","","null","","","null","0","","","","","","","","","","","","","","","NaN",""
"","S1","","html-keyboard-response","11","87777","0.0-1.0-11.0","0","0","72057","","null","","","null","1","","","","","","","","","","","","","","","",""
"","ISI","","html-keyboard-response","12","88280","0.0-1.0-12.0","0","0","72057","","null","","","null","1","NaN","","","","","","","","","","","","","","",""
"","S2","","html-keyboard-response","13","88534","0.0-1.0-13.0","0","0","72057","","null","","","null","1","","NaN","","","","","","","","","","","","","",""
"","response","","html-keyboard-response","14","89048","0.0-1.0-14.0-0.0","0","0","72057","","512","","","68","1","","","1","1","training","adjacent","EF","5","6","L.jpg","O.jpg","0","1","0","",""
"","feedback","","html-keyboard-response","15","90052","0.0-1.0-15.0-0.0","0","0","72057","","null","","","null","1","","","","","","","","","","","","","","","",""
"","time_out","","html-keyboard-response","16","92055","0.0-1.0-17.0-0.0","0","0","72057","","null","","","null","1","","","","","","","","","","","","","","","",""
"","ITI","","html-keyboard-response","17","93057","0.0-1.0-18.0","0","0","72057","","null","","","null","1","","","","","","","","","","","","","","","NaN",""
"","S1","","html-keyboard-response","18","93309","0.0-1.0-20.0","0","0","72057","","null","","","null","2","","","","","","","","","","","","","","","",""
"","ISI","","html-keyboard-response","19","93813","0.0-1.0-21.0","0","0","72057","","null","","","null","2","NaN","","","","","","","","","","","","","","",""
"","S2","","html-keyboard-response","20","94066","0.0-1.0-22.0","0","0","72057","","null","","","null","2","","NaN","","","","","","","","","","","","","",""
"","response","","html-keyboard-response","21","94643","0.0-1.0-23.0-0.0","0","0","72057","","576","","","68","2","","","1","2","training","adjacent","DE","4","5","M.jpg","L.jpg","0","1","0","",""
"","feedback","","html-keyboard-response","22","95645","0.0-1.0-24.0-0.0","0","0","72057","","null","","","null","2","","","","","","","","","","","","","","","",""
"","time_out","","html-keyboard-response","23","97647","0.0-1.0-26.0-0.0","0","0","72057","","null","","","null","2","","","","","","","","","","","","","","","",""
"","ITI","","html-keyboard-response","24","98650","0.0-1.0-27.0","0","0","72057","","null","","","null","2","","","","","","","","","","","","","","","NaN",""
"","S1","","html-keyboard-response","25","98903","0.0-1.0-29.0","0","0","72057","","null","","","null","3","","","","","","","","","","","","","","","",""
"","ISI","","html-keyboard-response","26","99406","0.0-1.0-30.0","0","0","72057","","null","","","null","3","NaN","","","","","","","","","","","","","","",""
"","S2","","html-keyboard-response","27","99659","0.0-1.0-31.0","0","0","72057","","null","","","null","3","","NaN","","","","","","","","","","","","","",""
"","response","","html-keyboard-response","28","100192","0.0-1.0-32.0-0.0","0","0","72057","","531","","","75","3","","","1","3","training","adjacent","GF","7","6","P.jpg","O.jpg","1","0","0","",""
"","feedback","","html-keyboard-response","29","101194","0.0-1.0-33.0-0.0","0","0","72057","","null","","","null","3","","","","","","","","","","","","","","","",""
"","time_out","","html-keyboard-response","30","103197","0.0-1.0-35.0-0.0","0","0","72057","","null","","","null","3","","","","","","","","","","","","","","","",""
"","ITI","","html-keyboard-response","31","104199","0.0-1.0-36.0","0","0","72057","","null","","","null","3","","","","","","","","","","","","","","","NaN",""
"","S1","","html-keyboard-response","32","104453","0.0-1.0-38.0","0","0","72057","","null","","","null","4","","","","","","","","","","","","","","","",""
"","ISI","","html-keyboard-response","33","104956","0.0-1.0-39.0","0","0","72057","","null","","","null","4","NaN","","","","","","","","","","","","","","",""
"","S2","","html-keyboard-response","34","105209","0.0-1.0-40.0","0","0","72057","","null","","","null","4","","NaN","","","","","","","","","","","","","",""
"","response","","html-keyboard-response","35","105684","0.0-1.0-41.0-0.0","0","0","72057","","473","","","75","4","","","1","4","training","adjacent","BC","2","3","R.jpg","N.jpg","1","1","1","",""
"","feedback","","html-keyboard-response","36","106686","0.0-1.0-42.0-0.0","0","0","72057","","null","","","null","4","","","","","","","","","","","","","","","",""
"","ITI","","html-keyboard-response","37","107690","0.0-1.0-45.0","0","0","72057","","null","","","null","4","","","","","","","","","","","","","","","NaN",""
"","S1","","html-keyboard-response","38","107943","0.0-1.0-47.0","0","0","72057","","null","","","null","5","","","","","","","","","","","","","","","",""
"","ISI","","html-keyboard-response","39","108445","0.0-1.0-48.0","0","0","72057","","null","","","null","5","NaN","","","","","","","","","","","","","","",""
"","S2","","html-keyboard-response","40","108698","0.0-1.0-49.0","0","0","72057","","null","","","null","5","","NaN","","","","","","","","","","","","","",""
"","response","","html-keyboard-response","41","108982","0.0-1.0-50.0-0.0","0","0","72057","","282","","","75","5","","","1","5","training","adjacent","FG","6","7","O.jpg","P.jpg","1","1","1","",""
"","feedback","","html-keyboard-response","42","109985","0.0-1.0-51.0-0.0","0","0","72057","","null","","","null","5","","","","","","","","","","","","","","","",""
"","ITI","","html-keyboard-response","43","110988","0.0-1.0-54.0","0","0","72057","","null","","","null","5","","","","","","","","","","","","","","","NaN",""
"","S1","","html-keyboard-response","44","111241","0.0-1.0-56.0","0","0","72057","","null","","","null","6","","","","","","","","","","","","","","","",""
"","ISI","","html-keyboard-response","45","111744","0.0-1.0-57.0","0","0","72057","","null","","","null","6","NaN","","","","","","","","","","","","","","",""
"","S2","","html-keyboard-response","46","111997","0.0-1.0-58.0","0","0","72057","","null","","","null","6","","NaN","","","","","","","","","","","","","",""
"","response","","html-keyboard-response","47","112468","0.0-1.0-59.0-0.0","0","0","72057","","468","","","75","6","","","1","6","training","adjacent","FE","6","5","O.jpg","L.jpg","1","0","0","",""
"","feedback","","html-keyboard-response","48","113470","0.0-1.0-60.0-0.0","0","0","72057","","null","","","null","6","","","","","","","","","","","","","","","",""
"","time_out","","html-keyboard-response","49","115473","0.0-1.0-62.0-0.0","0","0","72057","","null","","","null","6","","","","","","","","","","","","","","","",""
"","ITI","","html-keyboard-response","50","116475","0.0-1.0-63.0","0","0","72057","","null","","","null","6","","","","","","","","","","","","","","","NaN",""
"","S1","","html-keyboard-response","51","116727","0.0-1.0-65.0","0","0","72057","","null","","","null","7","","","","","","","","","","","","","","","",""
"","ISI","","html-keyboard-response","52","117230","0.0-1.0-66.0","0","0","72057","","null","","","null","7","NaN","","","","","","","","","","","","","","",""
"","S2","","html-keyboard-response","53","117483","0.0-1.0-67.0","0","0","72057","","null","","","null","7","","NaN","","","","","","","","","","","","","",""
"","response","","html-keyboard-response","54","118011","0.0-1.0-68.0-0.0","0","0","72057","","526","","","68","7","","","1","7","training","adjacent","ED","5","4","L.jpg","M.jpg","0","0","1","",""
"","feedback","","html-keyboard-response","55","119014","0.0-1.0-69.0-0.0","0","0","72057","","null","","","null","7","","","","","","","","","","","","","","","",""
"","ITI","","html-keyboard-response","56","120016","0.0-1.0-72.0","0","0","72057","","null","","","null","7","","","","","","","","","","","","","","","NaN",""
"","S1","","html-keyboard-response","57","120269","0.0-1.0-74.0","0","0","72057","","null","","","null","8","","","","","","","","","","","","","","","",""
"","ISI","","html-keyboard-response","58","120772","0.0-1.0-75.0","0","0","72057","","null","","","null","8","NaN","","","","","","","","","","","","","","",""
"","S2","","html-keyboard-response","59","121024","0.0-1.0-76.0","0","0","72057","","null","","","null","8","","NaN","","","","","","","","","","","","","",""
"","response","","html-keyboard-response","60","121427","0.0-1.0-77.0-0.0","0","0","72057","","401","","","75","8","","","1","8","training","adjacent","BA","2","1","R.jpg","Q.jpg","1","0","0","",""
"","feedback","","html-keyboard-response","61","122430","0.0-1.0-78.0-0.0","0","0","72057","","null","","","null","8","","","","","","","","","","","","","","","",""
"","time_out","","html-keyboard-response","62","124433","0.0-1.0-80.0-0.0","0","0","72057","","null","","","null","8","","","","","","","","","","","","","","","",""
"","ITI","","html-keyboard-response","63","125436","0.0-1.0-81.0","0","0","72057","","null","","","null","8","","","","","","","","","","","","","","","NaN",""
"","S1","","html-keyboard-response","64","125689","0.0-1.0-83.0","0","0","72057","","null","","","null","9","","","","","","","","","","","","","","","",""
"","ISI","","html-keyboard-response","65","126191","0.0-1.0-84.0","0","0","72057","","null","","","null","9","NaN","","","","","","","","","","","","","","",""
"","S2","","html-keyboard-response","66","126444","0.0-1.0-85.0","0","0","72057","","null","","","null","9","","NaN","","","","","","","","","","","","","",""
"","response","","html-keyboard-response","67","126834","0.0-1.0-86.0-0.0","0","0","72057","","389","","","75","9","","","1","9","training","adjacent","BC","2","3","R.jpg","N.jpg","1","1","1","",""
"","feedback","","html-keyboard-response","68","127838","0.0-1.0-87.0-0.0","0","0","72057","","null","","","null","9","","","","","","","","","","","","","","","",""
"","ITI","","html-keyboard-response","69","128841","0.0-1.0-90.0","0","0","72057","","null","","","null","9","","","","","","","","","","","","","","","NaN",""
"","S1","","html-keyboard-response","70","129094","0.0-1.0-92.0","0","0","72057","","null","","","null","10","","","","","","","","","","","","","","","",""
"","ISI","","html-keyboard-response","71","129602","0.0-1.0-93.0","0","0","72057","","null","","","null","10","NaN","","","","","","","","","","","","","","",""
"","S2","","html-keyboard-response","72","129856","0.0-1.0-94.0","0","0","72057","","null","","","null","10","","NaN","","","","","","","","","","","","","",""
"","response","","html-keyboard-response","73","130186","0.0-1.0-95.0-0.0","0","0","72057","","329","","","75","10","","","1","10","training","adjacent","FE","6","5","O.jpg","L.jpg","1","0","0","",""
"","feedback","","html-keyboard-response","74","131189","0.0-1.0-96.0-0.0","0","0","72057","","null","","","null","10","","","","","","","","","","","","","","","",""
"","time_out","","html-keyboard-response","75","133192","0.0-1.0-98.0-0.0","0","0","72057","","null","","","null","10","","","","","","","","","","","","","","","",""
"","ITI","","html-keyboard-response","76","134194","0.0-1.0-99.0","0","0","72057","","null","","","null","10","","","","","","","","","","","","","","","NaN",""
"","S1","","html-keyboard-response","77","134447","0.0-1.0-101.0","0","0","72057","","null","","","null","11","","","","","","","","","","","","","","","",""
"","ISI","","html-keyboard-response","78","134950","0.0-1.0-102.0","0","0","72057","","null","","","null","11","NaN","","","","","","","","","","","","","","",""
"","S2","","html-keyboard-response","79","135203","0.0-1.0-103.0","0","0","72057","","null","","","null","11","","NaN","","","","","","","","","","","","","",""
"","response","","html-keyboard-response","80","135493","0.0-1.0-104.0-0.0","0","0","72057","","288","","","68","11","","","1","11","training","adjacent","CB","3","2","N.jpg","R.jpg","0","0","1","",""
"","feedback","","html-keyboard-response","81","136497","0.0-1.0-105.0-0.0","0","0","72057","","null","","","null","11","","","","","","","","","","","","","","","",""
"","ITI","","html-keyboard-response","82","137500","0.0-1.0-108.0","0","0","72057","","null","","","null","11","","","","","","","","","","","","","","","NaN",""
"","S1","","html-keyboard-response","83","137753","0.0-1.0-110.0","0","0","72057","","null","","","null","12","","","","","","","","","","","","","","","",""
"","ISI","","html-keyboard-response","84","138254","0.0-1.0-111.0","0","0","72057","","null","","","null","12","NaN","","","","","","","","","","","","","","",""
"","S2","","html-keyboard-response","85","138507","0.0-1.0-112.0","0","0","72057","","null","","","null","12","","NaN","","","","","","","","","","","","","",""
"","response","","html-keyboard-response","86","138753","0.0-1.0-113.0-0.0","0","0","72057","","244","","","75","12","","","1","12","training","adjacent","AB","1","2","Q.jpg","R.jpg","1","1","1","",""
"","feedback","","html-keyboard-response","87","139756","0.0-1.0-114.0-0.0","0","0","72057","","null","","","null","12","","","","","","","","","","","","","","","",""
"","ITI","","html-keyboard-response","88","140759","0.0-1.0-117.0","0","0","72057","","null","","","null","12","","","","","","","","","","","","","","","NaN",""
"","S1","","html-keyboard-response","89","141011","0.0-1.0-119.0","0","0","72057","","null","","","null","13","","","","","","","","","","","","","","","",""
"","ISI","","html-keyboard-response","90","141514","0.0-1.0-120.0","0","0","72057","","null","","","null","13","NaN","","","","","","","","","","","","","","",""
"","S2","","html-keyboard-response","91","141767","0.0-1.0-121.0","0","0","72057","","null","","","null","13","","NaN","","","","","","","","","","","","","",""
"","response","","html-keyboard-response","92","142036","0.0-1.0-122.0-0.0","0","0","72057","","268","","","68","13","","","1","13","training","adjacent","EF","5","6","L.jpg","O.jpg","0","1","0","",""
"","feedback","","html-keyboard-response","93","143040","0.0-1.0-123.0-0.0","0","0","72057","","null","","","null","13","","","","","","","","","","","","","","","",""
"","time_out","","html-keyboard-response","94","145043","0.0-1.0-125.0-0.0","0","0","72057","","null","","","null","13","","","","","","","","","","","","","","","",""
"","ITI","","html-keyboard-response","95","146046","0.0-1.0-126.0","0","0","72057","","null","","","null","13","","","","","","","","","","","","","","","NaN",""
"","S1","","html-keyboard-response","96","146300","0.0-1.0-128.0","0","0","72057","","null","","","null","14","","","","","","","","","","","","","","","",""
"","ISI","","html-keyboard-response","97","146803","0.0-1.0-129.0","0","0","72057","","null","","","null","14","NaN","","","","","","","","","","","","","","",""
"","S2","","html-keyboard-response","98","147055","0.0-1.0-130.0","0","0","72057","","null","","","null","14","","NaN","","","","","","","","","","","","","",""
"","response","","html-keyboard-response","99","147309","0.0-1.0-131.0-0.0","0","0","72057","","252","","","68","14","","","1","14","training","adjacent","CD","3","4","N.jpg","M.jpg","0","1","0","",""
"","feedback","","html-keyboard-response","100","148314","0.0-1.0-132.0-0.0","0","0","72057","","null","","","null","14","","","","","","","","","","","","","","","",""
"","time_out","","html-keyboard-response","101","150318","0.0-1.0-134.0-0.0","0","0","72057","","null","","","null","14","","","","","","","","","","","","","","","",""
"","ITI","","html-keyboard-response","102","151321","0.0-1.0-135.0","0","0","72057","","null","","","null","14","","","","","","","","","","","","","","","NaN",""
"","S1","","html-keyboard-response","103","151574","0.0-1.0-137.0","0","0","72057","","null","","","null","15","","","","","","","","","","","","","","","",""
"","ISI","","html-keyboard-response","104","152076","0.0-1.0-138.0","0","0","72057","","null","","","null","15","NaN","","","","","","","","","","","","","","",""
"","S2","","html-keyboard-response","105","152328","0.0-1.0-139.0","0","0","72057","","null","","","null","15","","NaN","","","","","","","","","","","","","",""
"","response","","html-keyboard-response","106","152636","0.0-1.0-140.0-0.0","0","0","72057","","306","","","75","15","","","1","15","training","adjacent","DE","4","5","M.jpg","L.jpg","1","1","1","",""
"","feedback","","html-keyboard-response","107","153640","0.0-1.0-141.0-0.0","0","0","72057","","null","","","null","15","","","","","","","","","","","","","","","",""
"","ITI","","html-keyboard-response","108","154643","0.0-1.0-144.0","0","0","72057","","null","","","null","15","","","","","","","","","","","","","","","NaN",""
"","S1","","html-keyboard-response","109","154896","0.0-1.0-146.0","0","0","72057","","null","","","null","16","","","","","","","","","","","","","","","",""
"","ISI","","html-keyboard-response","110","155398","0.0-1.0-147.0","0","0","72057","","null","","","null","16","NaN","","","","","","","","","","","","","","",""
"","S2","","html-keyboard-response","111","155663","0.0-1.0-148.0","0","0","72057","","null","","","null","16","","NaN","","","","","","","","","","","","","",""
"","response","","html-keyboard-response","112","156065","0.0-1.0-149.0-0.0","0","0","72057","","399","","","68","16","","","1","16","training","adjacent","BA","2","1","R.jpg","Q.jpg","0","0","1","",""
"","feedback","","html-keyboard-response","113","157069","0.0-1.0-150.0-0.0","0","0","72057","","null","","","null","16","","","","","","","","","","","","","","","",""
"","ITI","","html-keyboard-response","114","158072","0.0-1.0-153.0","0","0","72057","","null","","","null","16","","","","","","","","","","","","","","","NaN",""
"","S1","","html-keyboard-response","115","158326","0.0-1.0-155.0","0","0","72057","","null","","","null","17","","","","","","","","","","","","","","","",""
"","ISI","","html-keyboard-response","116","158827","0.0-1.0-156.0","0","0","72057","","null","","","null","17","NaN","","","","","","","","","","","","","","",""
"","S2","","html-keyboard-response","117","159080","0.0-1.0-157.0","0","0","72057","","null","","","null","17","","NaN","","","","","","","","","","","","","",""
"","response","","html-keyboard-response","118","159329","0.0-1.0-158.0-0.0","0","0","72057","","247","","","75","17","","","1","17","training","adjacent","AB","1","2","Q.jpg","R.jpg","1","1","1","",""
"","feedback","","html-keyboard-response","119","160333","0.0-1.0-159.0-0.0","0","0","72057","","null","","","null","17","","","","","","","","","","","","","","","",""
"","ITI","","html-keyboard-response","120","161337","0.0-1.0-162.0","0","0","72057","","null","","","null","17","","","","","","","","","","","","","","","NaN",""
"","S1","","html-keyboard-response","121","161590","0.0-1.0-164.0","0","0","72057","","null","","","null","18","","","","","","","","","","","","","","","",""
"","ISI","","html-keyboard-response","122","162093","0.0-1.0-165.0","0","0","72057","","null","","","null","18","NaN","","","","","","","","","","","","","","",""
"","S2","","html-keyboard-response","123","162346","0.0-1.0-166.0","0","0","72057","","null","","","null","18","","NaN","","","","","","","","","","","","","",""
"","response","","html-keyboard-response","124","162657","0.0-1.0-167.0-0.0","0","0","72057","","309","","","75","18","","","1","18","training","adjacent","DC","4","3","M.jpg","N.jpg","1","0","0","",""
"","feedback","","html-keyboard-response","125","163661","0.0-1.0-168.0-0.0","0","0","72057","","null","","","null","18","","","","","","","","","","","","","","","",""
"","time_out","","html-keyboard-response","126","165663","0.0-1.0-170.0-0.0","0","0","72057","","null","","","null","18","","","","","","","","","","","","","","","",""
"","ITI","","html-keyboard-response","127","166665","0.0-1.0-171.0","0","0","72057","","null","","","null","18","","","","","","","","","","","","","","","NaN",""
"","S1","","html-keyboard-response","128","166918","0.0-1.0-173.0","0","0","72057","","null","","","null","19","","","","","","","","","","","","","","","",""
"","ISI","","html-keyboard-response","129","167421","0.0-1.0-174.0","0","0","72057","","null","","","null","19","NaN","","","","","","","","","","","","","","",""
"","S2","","html-keyboard-response","130","167674","0.0-1.0-175.0","0","0","72057","","null","","","null","19","","NaN","","","","","","","","","","","","","",""
"","response","","html-keyboard-response","131","168615","0.0-1.0-176.0-0.0","0","0","72057","","938","","","68","19","","","1","19","training","adjacent","AB","1","2","Q.jpg","R.jpg","0","1","0","",""
"","feedback","","html-keyboard-response","132","169618","0.0-1.0-177.0-0.0","0","0","72057","","null","","","null","19","","","","","","","","","","","","","","","",""
"","time_out","","html-keyboard-response","133","171621","0.0-1.0-179.0-0.0","0","0","72057","","null","","","null","19","","","","","","","","","","","","","","","",""
"","ITI","","html-keyboard-response","134","172625","0.0-1.0-180.0","0","0","72057","","null","","","null","19","","","","","","","","","","","","","","","NaN",""
"","S1","","html-keyboard-response","135","172877","0.0-1.0-182.0","0","0","72057","","null","","","null","20","","","","","","","","","","","","","","","",""
"","ISI","","html-keyboard-response","136","173380","0.0-1.0-183.0","0","0","72057","","null","","","null","20","NaN","","","","","","","","","","","","","","",""
"","S2","","html-keyboard-response","137","173634","0.0-1.0-184.0","0","0","72057","","null","","","null","20","","NaN","","","","","","","","","","","","","",""
"","response","","html-keyboard-response","138","174274","0.0-1.0-185.0-0.0","0","0","72057","","639","","","75","20","","","1","20","training","adjacent","CD","3","4","N.jpg","M.jpg","1","1","1","",""
"","feedback","","html-keyboard-response","139","175276","0.0-1.0-186.0-0.0","0","0","72057","","null","","","null","20","","","","","","","","","","","","","","","",""
"","ITI","","html-keyboard-response","140","176278","0.0-1.0-189.0","0","0","72057","","null","","","null","20","","","","","","","","","","","","","","","NaN",""
"","S1","","html-keyboard-response","141","176531","0.0-1.0-191.0","0","0","72057","","null","","","null","21","","","","","","","","","","","","","","","",""
"","ISI","","html-keyboard-response","142","177033","0.0-1.0-192.0","0","0","72057","","null","","","null","21","NaN","","","","","","","","","","","","","","",""
"","S2","","html-keyboard-response","143","177285","0.0-1.0-193.0","0","0","72057","","null","","","null","21","","NaN","","","","","","","","","","","","","",""
"","response","","html-keyboard-response","144","177847","0.0-1.0-194.0-0.0","0","0","72057","","560","","","68","21","","","1","21","training","adjacent","EF","5","6","L.jpg","O.jpg","0","1","0","",""
"","feedback","","html-keyboard-response","145","178850","0.0-1.0-195.0-0.0","0","0","72057","","null","","","null","21","","","","","","","","","","","","","","","",""
"","time_out","","html-keyboard-response","146","180853","0.0-1.0-197.0-0.0","0","0","72057","","null","","","null","21","","","","","","","","","","","","","","","",""
"","ITI","","html-keyboard-response","147","181855","0.0-1.0-198.0","0","0","72057","","null","","","null","21","","","","","","","","","","","","","","","NaN",""
"","S1","","html-keyboard-response","148","182107","0.0-1.0-200.0","0","0","72057","","null","","","null","22","","","","","","","","","","","","","","","",""
"","ISI","","html-keyboard-response","149","182610","0.0-1.0-201.0","0","0","72057","","null","","","null","22","NaN","","","","","","","","","","","","","","",""
"","S2","","html-keyboard-response","150","182864","0.0-1.0-202.0","0","0","72057","","null","","","null","22","","NaN","","","","","","","","","","","","","",""
"","response","","html-keyboard-response","151","183786","0.0-1.0-203.0-0.0","0","0","72057","","919","","","68","22","","","1","22","training","adjacent","DC","4","3","M.jpg","N.jpg","0","0","1","",""
"","feedback","","html-keyboard-response","152","184788","0.0-1.0-204.0-0.0","0","0","72057","","null","","","null","22","","","","","","","","","","","","","","","",""
"","ITI","","html-keyboard-response","153","185792","0.0-1.0-207.0","0","0","72057","","null","","","null","22","","","","","","","","","","","","","","","NaN",""
"","S1","","html-keyboard-response","154","186044","0.0-1.0-209.0","0","0","72057","","null","","","null","23","","","","","","","","","","","","","","","",""
"","ISI","","html-keyboard-response","155","186547","0.0-1.0-210.0","0","0","72057","","null","","","null","23","NaN","","","","","","","","","","","","","","",""
"","S2","","html-keyboard-response","156","186801","0.0-1.0-211.0","0","0","72057","","null","","","null","23","","NaN","","","","","","","","","","","","","",""
"","response","","html-keyboard-response","157","187408","0.0-1.0-212.0-0.0","0","0","72057","","605","","","68","23","","","1","23","training","adjacent","FG","6","7","O.jpg","P.jpg","0","1","0","",""
"","feedback","","html-keyboard-response","158","188411","0.0-1.0-213.0-0.0","0","0","72057","","null","","","null","23","","","","","","","","","","","","","","","",""
"","time_out","","html-keyboard-response","159","190415","0.0-1.0-215.0-0.0","0","0","72057","","null","","","null","23","","","","","","","","","","","","","","","",""
"","ITI","","html-keyboard-response","160","191418","0.0-1.0-216.0","0","0","72057","","null","","","null","23","","","","","","","","","","","","","","","NaN",""
"","S1","","html-keyboard-response","161","191672","0.0-1.0-218.0","0","0","72057","","null","","","null","24","","","","","","","","","","","","","","","",""
"","ISI","","html-keyboard-response","162","192175","0.0-1.0-219.0","0","0","72057","","null","","","null","24","NaN","","","","","","","","","","","","","","",""
"","S2","","html-keyboard-response","163","192428","0.0-1.0-220.0","0","0","72057","","null","","","null","24","","NaN","","","","","","","","","","","","","",""
"","response","","html-keyboard-response","164","193230","0.0-1.0-221.0-0.0","0","0","72057","","801","","","75","24","","","1","24","training","adjacent","BA","2","1","R.jpg","Q.jpg","1","0","0","",""
"","feedback","","html-keyboard-response","165","194234","0.0-1.0-222.0-0.0","0","0","72057","","null","","","null","24","","","","","","","","","","","","","","","",""
"","time_out","","html-keyboard-response","166","196236","0.0-1.0-224.0-0.0","0","0","72057","","null","","","null","24","","","","","","","","","","","","","","","",""
"","ITI","","html-keyboard-response","167","197240","0.0-1.0-225.0","0","0","72057","","null","","","null","24","","","","","","","","","","","","","","","NaN",""
"","S1","","html-keyboard-response","168","197493","0.0-1.0-227.0","0","0","72057","","null","","","null","25","","","","","","","","","","","","","","","",""
"","ISI","","html-keyboard-response","169","197995","0.0-1.0-228.0","0","0","72057","","null","","","null","25","NaN","","","","","","","","","","","","","","",""
"","S2","","html-keyboard-response","170","198249","0.0-1.0-229.0","0","0","72057","","null","","","null","25","","NaN","","","","","","","","","","","","","",""
"","response","","html-keyboard-response","171","198516","0.0-1.0-230.0-0.0","0","0","72057","","264","","","75","25","","","1","25","training","adjacent","CD","3","4","N.jpg","M.jpg","1","1","1","",""
"","feedback","","html-keyboard-response","172","199519","0.0-1.0-231.0-0.0","0","0","72057","","null","","","null","25","","","","","","","","","","","","","","","",""
"","ITI","","html-keyboard-response","173","200523","0.0-1.0-234.0","0","0","72057","","null","","","null","25","","","","","","","","","","","","","","","NaN",""
"","S1","","html-keyboard-response","174","200775","0.0-1.0-236.0","0","0","72057","","null","","","null","26","","","","","","","","","","","","","","","",""
"","ISI","","html-keyboard-response","175","201278","0.0-1.0-237.0","0","0","72057","","null","","","null","26","NaN","","","","","","","","","","","","","","",""
"","S2","","html-keyboard-response","176","201531","0.0-1.0-238.0","0","0","72057","","null","","","null","26","","NaN","","","","","","","","","","","","","",""
"","response","","html-keyboard-response","177","202224","0.0-1.0-239.0-0.0","0","0","72057","","690","","","68","26","","","1","26","training","adjacent","BA","2","1","R.jpg","Q.jpg","0","0","1","",""
"","feedback","","html-keyboard-response","178","203227","0.0-1.0-240.0-0.0","0","0","72057","","null","","","null","26","","","","","","","","","","","","","","","",""
"","ITI","","html-keyboard-response","179","204230","0.0-1.0-243.0","0","0","72057","","null","","","null","26","","","","","","","","","","","","","","","NaN",""
"","S1","","html-keyboard-response","180","204483","0.0-1.0-245.0","0","0","72057","","null","","","null","27","","","","","","","","","","","","","","","",""
"","ISI","","html-keyboard-response","181","204985","0.0-1.0-246.0","0","0","72057","","null","","","null","27","NaN","","","","","","","","","","","","","","",""
"","S2","","html-keyboard-response","182","205238","0.0-1.0-247.0","0","0","72057","","null","","","null","27","","NaN","","","","","","","","","","","","","",""
"","response","","html-keyboard-response","183","205502","0.0-1.0-248.0-0.0","0","0","72057","","262","","","75","27","","","1","27","training","adjacent","CB","3","2","N.jpg","R.jpg","1","0","0","",""
"","feedback","","html-keyboard-response","184","206504","0.0-1.0-249.0-0.0","0","0","72057","","null","","","null","27","","","","","","","","","","","","","","","",""
"","time_out","","html-keyboard-response","185","208507","0.0-1.0-251.0-0.0","0","0","72057","","null","","","null","27","","","","","","","","","","","","","","","",""
"","ITI","","html-keyboard-response","186","209510","0.0-1.0-252.0","0","0","72057","","null","","","null","27","","","","","","","","","","","","","","","NaN",""
"","S1","","html-keyboard-response","187","209764","0.0-1.0-254.0","0","0","72057","","null","","","null","28","","","","","","","","","","","","","","","",""
"","ISI","","html-keyboard-response","188","210267","0.0-1.0-255.0","0","0","72057","","null","","","null","28","NaN","","","","","","","","","","","","","","",""
"","S2","","html-keyboard-response","189","210520","0.0-1.0-256.0","0","0","72057","","null","","","null","28","","NaN","","","","","","","","","","","","","",""
"","response","","html-keyboard-response","190","210942","0.0-1.0-257.0-0.0","0","0","72057","","420","","","68","28","","","1","28","training","adjacent","CB","3","2","N.jpg","R.jpg","0","0","1","",""
"","feedback","","html-keyboard-response","191","211946","0.0-1.0-258.0-0.0","0","0","72057","","null","","","null","28","","","","","","","","","","","","","","","",""
"","ITI","","html-keyboard-response","192","212948","0.0-1.0-261.0","0","0","72057","","null","","","null","28","","","","","","","","","","","","","","","NaN",""
"","S1","","html-keyboard-response","193","213202","0.0-1.0-263.0","0","0","72057","","null","","","null","29","","","","","","","","","","","","","","","",""
"","ISI","","html-keyboard-response","194","213704","0.0-1.0-264.0","0","0","72057","","null","","","null","29","NaN","","","","","","","","","","","","","","",""
"","S2","","html-keyboard-response","195","213958","0.0-1.0-265.0","0","0","72057","","null","","","null","29","","NaN","","","","","","","","","","","","","",""
"","response","","html-keyboard-response","196","214322","0.0-1.0-266.0-0.0","0","0","72057","","361","","","68","29","","","1","29","training","adjacent","DE","4","5","M.jpg","L.jpg","0","1","0","",""
"","feedback","","html-keyboard-response","197","215325","0.0-1.0-267.0-0.0","0","0","72057","","null","","","null","29","","","","","","","","","","","","","","","",""
"","time_out","","html-keyboard-response","198","217328","0.0-1.0-269.0-0.0","0","0","72057","","null","","","null","29","","","","","","","","","","","","","","","",""
"","ITI","","html-keyboard-response","199","218331","0.0-1.0-270.0","0","0","72057","","null","","","null","29","","","","","","","","","","","","","","","NaN",""
"","S1","","html-keyboard-response","200","218584","0.0-1.0-272.0","0","0","72057","","null","","","null","30","","","","","","","","","","","","","","","",""
"","ISI","","html-keyboard-response","201","219086","0.0-1.0-273.0","0","0","72057","","null","","","null","30","NaN","","","","","","","","","","","","","","",""
"","S2","","html-keyboard-response","202","219339","0.0-1.0-274.0","0","0","72057","","null","","","null","30","","NaN","","","","","","","","","","","","","",""
"","response","","html-keyboard-response","203","219770","0.0-1.0-275.0-0.0","0","0","72057","","429","","","75","30","","","1","30","training","adjacent","ED","5","4","L.jpg","M.jpg","1","0","0","",""
"","feedback","","html-keyboard-response","204","220772","0.0-1.0-276.0-0.0","0","0","72057","","null","","","null","30","","","","","","","","","","","","","","","",""
"","time_out","","html-keyboard-response","205","222777","0.0-1.0-278.0-0.0","0","0","72057","","null","","","null","30","","","","","","","","","","","","","","","",""
"","ITI","","html-keyboard-response","206","223780","0.0-1.0-279.0","0","0","72057","","null","","","null","30","","","","","","","","","","","","","","","NaN",""
"","S1","","html-keyboard-response","207","224034","0.0-1.0-281.0","0","0","72057","","null","","","null","31","","","","","","","","","","","","","","","",""
"","ISI","","html-keyboard-response","208","224536","0.0-1.0-282.0","0","0","72057","","null","","","null","31","NaN","","","","","","","","","","","","","","",""
"","S2","","html-keyboard-response","209","224790","0.0-1.0-283.0","0","0","72057","","null","","","null","31","","NaN","","","","","","","","","","","","","",""
"","response","","html-keyboard-response","210","225315","0.0-1.0-284.0-0.0","0","0","72057","","523","","","68","31","","","1","31","training","adjacent","BC","2","3","R.jpg","N.jpg","0","1","0","",""
"","feedback","","html-keyboard-response","211","226318","0.0-1.0-285.0-0.0","0","0","72057","","null","","","null","31","","","","","","","","","","","","","","","",""
"","time_out","","html-keyboard-response","212","228321","0.0-1.0-287.0-0.0","0","0","72057","","null","","","null","31","","","","","","","","","","","","","","","",""
"","ITI","","html-keyboard-response","213","229324","0.0-1.0-288.0","0","0","72057","","null","","","null","31","","","","","","","","","","","","","","","NaN",""
"","S1","","html-keyboard-response","214","229576","0.0-1.0-290.0","0","0","72057","","null","","","null","32","","","","","","","","","","","","","","","",""
"","ISI","","html-keyboard-response","215","230079","0.0-1.0-291.0","0","0","72057","","null","","","null","32","NaN","","","","","","","","","","","","","","",""
"","S2","","html-keyboard-response","216","230332","0.0-1.0-292.0","0","0","72057","","null","","","null","32","","NaN","","","","","","","","","","","","","",""
"","response","","html-keyboard-response","217","230914","0.0-1.0-293.0-0.0","0","0","72057","","579","","","75","32","","","1","32","training","adjacent","FE","6","5","O.jpg","L.jpg","1","0","0","",""
"","feedback","","html-keyboard-response","218","231916","0.0-1.0-294.0-0.0","0","0","72057","","null","","","null","32","","","","","","","","","","","","","","","",""
"","time_out","","html-keyboard-response","219","233919","0.0-1.0-296.0-0.0","0","0","72057","","null","","","null","32","","","","","","","","","","","","","","","",""
"","ITI","","html-keyboard-response","220","234920","0.0-1.0-297.0","0","0","72057","","null","","","null","32","","","","","","","","","","","","","","","NaN",""
"","S1","","html-keyboard-response","221","235187","0.0-1.0-299.0","0","0","72057","","null","","","null","33","","","","","","","","","","","","","","","",""
"","ISI","","html-keyboard-response","222","235690","0.0-1.0-300.0","0","0","72057","","null","","","null","33","NaN","","","","","","","","","","","","","","",""
"","S2","","html-keyboard-response","223","235944","0.0-1.0-301.0","0","0","72057","","null","","","null","33","","NaN","","","","","","","","","","","","","",""
"","response","","html-keyboard-response","224","236291","0.0-1.0-302.0-0.0","0","0","72057","","344","","","68","33","","","1","33","training","adjacent","CD","3","4","N.jpg","M.jpg","0","1","0","",""
"","feedback","","html-keyboard-response","225","237294","0.0-1.0-303.0-0.0","0","0","72057","","null","","","null","33","","","","","","","","","","","","","","","",""
"","time_out","","html-keyboard-response","226","239296","0.0-1.0-305.0-0.0","0","0","72057","","null","","","null","33","","","","","","","","","","","","","","","",""
"","ITI","","html-keyboard-response","227","240299","0.0-1.0-306.0","0","0","72057","","null","","","null","33","","","","","","","","","","","","","","","NaN",""
"","S1","","html-keyboard-response","228","240553","0.0-1.0-308.0","0","0","72057","","null","","","null","34","","","","","","","","","","","","","","","",""
"","ISI","","html-keyboard-response","229","241055","0.0-1.0-309.0","0","0","72057","","null","","","null","34","NaN","","","","","","","","","","","","","","",""
"","S2","","html-keyboard-response","230","241308","0.0-1.0-310.0","0","0","72057","","null","","","null","34","","NaN","","","","","","","","","","","","","",""
"","response","","html-keyboard-response","231","241649","0.0-1.0-311.0-0.0","0","0","72057","","339","","","68","34","","","1","34","training","adjacent","DE","4","5","M.jpg","L.jpg","0","1","0","",""
"","feedback","","html-keyboard-response","232","242653","0.0-1.0-312.0-0.0","0","0","72057","","null","","","null","34","","","","","","","","","","","","","","","",""
"","time_out","","html-keyboard-response","233","244655","0.0-1.0-314.0-0.0","0","0","72057","","null","","","null","34","","","","","","","","","","","","","","","",""
"","ITI","","html-keyboard-response","234","245659","0.0-1.0-315.0","0","0","72057","","null","","","null","34","","","","","","","","","","","","","","","NaN",""
"","S1","","html-keyboard-response","235","245913","0.0-1.0-317.0","0","0","72057","","null","","","null","35","","","","","","","","","","","","","","","",""
"","ISI","","html-keyboard-response","236","246416","0.0-1.0-318.0","0","0","72057","","null","","","null","35","NaN","","","","","","","","","","","","","","",""
"","S2","","html-keyboard-response","237","246668","0.0-1.0-319.0","0","0","72057","","null","","","null","35","","NaN","","","","","","","","","","","","","",""
"","response","","html-keyboard-response","238","247130","0.0-1.0-320.0-0.0","0","0","72057","","460","","","75","35","","","1","35","training","adjacent","FG","6","7","O.jpg","P.jpg","1","1","1","",""
"","feedback","","html-keyboard-response","239","248133","0.0-1.0-321.0-0.0","0","0","72057","","null","","","null","35","","","","","","","","","","","","","","","",""
"","ITI","","html-keyboard-response","240","249135","0.0-1.0-324.0","0","0","72057","","null","","","null","35","","","","","","","","","","","","","","","NaN",""
"","S1","","html-keyboard-response","241","249388","0.0-1.0-326.0","0","0","72057","","null","","","null","36","","","","","","","","","","","","","","","",""
"","ISI","","html-keyboard-response","242","249891","0.0-1.0-327.0","0","0","72057","","null","","","null","36","NaN","","","","","","","","","","","","","","",""
"","S2","","html-keyboard-response","243","250144","0.0-1.0-328.0","0","0","72057","","null","","","null","36","","NaN","","","","","","","","","","","","","",""
"","response","","html-keyboard-response","244","250553","0.0-1.0-329.0-0.0","0","0","72057","","407","","","68","36","","","1","36","training","adjacent","ED","5","4","L.jpg","M.jpg","0","0","1","",""
"","feedback","","html-keyboard-response","245","251555","0.0-1.0-330.0-0.0","0","0","72057","","null","","","null","36","","","","","","","","","","","","","","","",""
"","ITI","","html-keyboard-response","246","252559","0.0-1.0-333.0","0","0","72057","","null","","","null","36","","","","","","","","","","","","","","","NaN",""
"","S1","","html-keyboard-response","247","252813","0.0-1.0-335.0","0","0","72057","","null","","","null","37","","","","","","","","","","","","","","","",""
"","ISI","","html-keyboard-response","248","253315","0.0-1.0-336.0","0","0","72057","","null","","","null","37","NaN","","","","","","","","","","","","","","",""
"","S2","","html-keyboard-response","249","253569","0.0-1.0-337.0","0","0","72057","","null","","","null","37","","NaN","","","","","","","","","","","","","",""
"","response","","html-keyboard-response","250","253936","0.0-1.0-338.0-0.0","0","0","72057","","365","","","68","37","","","1","37","training","adjacent","GF","7","6","P.jpg","O.jpg","0","0","1","",""
"","feedback","","html-keyboard-response","251","254940","0.0-1.0-339.0-0.0","0","0","72057","","null","","","null","37","","","","","","","","","","","","","","","",""
"","ITI","","html-keyboard-response","252","255943","0.0-1.0-342.0","0","0","72057","","null","","","null","37","","","","","","","","","","","","","","","NaN",""
"","S1","","html-keyboard-response","253","256195","0.0-1.0-344.0","0","0","72057","","null","","","null","38","","","","","","","","","","","","","","","",""
"","ISI","","html-keyboard-response","254","256697","0.0-1.0-345.0","0","0","72057","","null","","","null","38","NaN","","","","","","","","","","","","","","",""
"","S2","","html-keyboard-response","255","256950","0.0-1.0-346.0","0","0","72057","","null","","","null","38","","NaN","","","","","","","","","","","","","",""
"","response","","html-keyboard-response","256","257331","0.0-1.0-347.0-0.0","0","0","72057","","379","","","68","38","","","1","38","training","adjacent","EF","5","6","L.jpg","O.jpg","0","1","0","",""
"","feedback","","html-keyboard-response","257","258335","0.0-1.0-348.0-0.0","0","0","72057","","null","","","null","38","","","","","","","","","","","","","","","",""
"","time_out","","html-keyboard-response","258","260337","0.0-1.0-350.0-0.0","0","0","72057","","null","","","null","38","","","","","","","","","","","","","","","",""
"","ITI","","html-keyboard-response","259","261340","0.0-1.0-351.0","0","0","72057","","null","","","null","38","","","","","","","","","","","","","","","NaN",""
"","S1","","html-keyboard-response","260","261594","0.0-1.0-353.0","0","0","72057","","null","","","null","39","","","","","","","","","","","","","","","",""
"","ISI","","html-keyboard-response","261","262096","0.0-1.0-354.0","0","0","72057","","null","","","null","39","NaN","","","","","","","","","","","","","","",""
"","S2","","html-keyboard-response","262","262349","0.0-1.0-355.0","0","0","72057","","null","","","null","39","","NaN","","","","","","","","","","","","","",""
"","response","","html-keyboard-response","263","262639","0.0-1.0-356.0-0.0","0","0","72057","","289","","","68","39","","","1","39","training","adjacent","CB","3","2","N.jpg","R.jpg","0","0","1","",""
"","feedback","","html-keyboard-response","264","263642","0.0-1.0-357.0-0.0","0","0","72057","","null","","","null","39","","","","","","","","","","","","","","","",""
"","ITI","","html-keyboard-response","265","264644","0.0-1.0-360.0","0","0","72057","","null","","","null","39","","","","","","","","","","","","","","","NaN",""
"","S1","","html-keyboard-response","266","264897","0.0-1.0-362.0","0","0","72057","","null","","","null","40","","","","","","","","","","","","","","","",""
"","ISI","","html-keyboard-response","267","265399","0.0-1.0-363.0","0","0","72057","","null","","","null","40","NaN","","","","","","","","","","","","","","",""
"","S2","","html-keyboard-response","268","265660","0.0-1.0-364.0","0","0","72057","","null","","","null","40","","NaN","","","","","","","","","","","","","",""
"","response","","html-keyboard-response","269","265951","0.0-1.0-365.0-0.0","0","0","72057","","288","","","75","40","","","1","40","training","adjacent","AB","1","2","Q.jpg","R.jpg","1","1","1","",""
"","feedback","","html-keyboard-response","270","266954","0.0-1.0-366.0-0.0","0","0","72057","","null","","","null","40","","","","","","","","","","","","","","","",""
"","ITI","","html-keyboard-response","271","267958","0.0-1.0-369.0","0","0","72057","","null","","","null","40","","","","","","","","","","","","","","","NaN",""
"","S1","","html-keyboard-response","272","268211","0.0-1.0-371.0","0","0","72057","","null","","","null","41","","","","","","","","","","","","","","","",""
"","ISI","","html-keyboard-response","273","268714","0.0-1.0-372.0","0","0","72057","","null","","","null","41","NaN","","","","","","","","","","","","","","",""
"","S2","","html-keyboard-response","274","268968","0.0-1.0-373.0","0","0","72057","","null","","","null","41","","NaN","","","","","","","","","","","","","",""
"","response","","html-keyboard-response","275","269404","0.0-1.0-374.0-0.0","0","0","72057","","435","","","68","41","","","1","41","training","adjacent","DC","4","3","M.jpg","N.jpg","0","0","1","",""
"","feedback","","html-keyboard-response","276","270407","0.0-1.0-375.0-0.0","0","0","72057","","null","","","null","41","","","","","","","","","","","","","","","",""
"","ITI","","html-keyboard-response","277","271410","0.0-1.0-378.0","0","0","72057","","null","","","null","41","","","","","","","","","","","","","","","NaN",""
"","S1","","html-keyboard-response","278","271676","0.0-1.0-380.0","0","0","72057","","null","","","null","42","","","","","","","","","","","","","","","",""
"","ISI","","html-keyboard-response","279","272179","0.0-1.0-381.0","0","0","72057","","null","","","null","42","NaN","","","","","","","","","","","","","","",""
"","S2","","html-keyboard-response","280","272432","0.0-1.0-382.0","0","0","72057","","null","","","null","42","","NaN","","","","","","","","","","","","","",""
"","response","","html-keyboard-response","281","272700","0.0-1.0-383.0-0.0","0","0","72057","","267","","","75","42","","","1","42","training","adjacent","ED","5","4","L.jpg","M.jpg","1","0","0","",""
"","feedback","","html-keyboard-response","282","273704","0.0-1.0-384.0-0.0","0","0","72057","","null","","","null","42","","","","","","","","","","","","","","","",""
"","time_out","","html-keyboard-response","283","275707","0.0-1.0-386.0-0.0","0","0","72057","","null","","","null","42","","","","","","","","","","","","","","","",""
"","ITI","","html-keyboard-response","284","276709","0.0-1.0-387.0","0","0","72057","","null","","","null","42","","","","","","","","","","","","","","","NaN",""
"","S1","","html-keyboard-response","285","276962","0.0-1.0-389.0","0","0","72057","","null","","","null","43","","","","","","","","","","","","","","","",""
"","ISI","","html-keyboard-response","286","277464","0.0-1.0-390.0","0","0","72057","","null","","","null","43","NaN","","","","","","","","","","","","","","",""
"","S2","","html-keyboard-response","287","277717","0.0-1.0-391.0","0","0","72057","","null","","","null","43","","NaN","","","","","","","","","","","","","",""
"","response","","html-keyboard-response","288","278147","0.0-1.0-392.0-0.0","0","0","72057","","428","","","68","43","","","1","43","training","adjacent","GF","7","6","P.jpg","O.jpg","0","0","1","",""
"","feedback","","html-keyboard-response","289","279151","0.0-1.0-393.0-0.0","0","0","72057","","null","","","null","43","","","","","","","","","","","","","","","",""
"","ITI","","html-keyboard-response","290","280154","0.0-1.0-396.0","0","0","72057","","null","","","null","43","","","","","","","","","","","","","","","NaN",""
"","S1","","html-keyboard-response","291","280407","0.0-1.0-398.0","0","0","72057","","null","","","null","44","","","","","","","","","","","","","","","",""
"","ISI","","html-keyboard-response","292","280910","0.0-1.0-399.0","0","0","72057","","null","","","null","44","NaN","","","","","","","","","","","","","","",""
"","S2","","html-keyboard-response","293","281163","0.0-1.0-400.0","0","0","72057","","null","","","null","44","","NaN","","","","","","","","","","","","","",""
"","response","","html-keyboard-response","294","281663","0.0-1.0-401.0-0.0","0","0","72057","","499","","","68","44","","","1","44","training","adjacent","BC","2","3","R.jpg","N.jpg","0","1","0","",""
"","feedback","","html-keyboard-response","295","282666","0.0-1.0-402.0-0.0","0","0","72057","","null","","","null","44","","","","","","","","","","","","","","","",""
"","time_out","","html-keyboard-response","296","284669","0.0-1.0-404.0-0.0","0","0","72057","","null","","","null","44","","","","","","","","","","","","","","","",""
"","ITI","","html-keyboard-response","297","285673","0.0-1.0-405.0","0","0","72057","","null","","","null","44","","","","","","","","","","","","","","","NaN",""
"","S1","","html-keyboard-response","298","285926","0.0-1.0-407.0","0","0","72057","","null","","","null","45","","","","","","","","","","","","","","","",""
"","ISI","","html-keyboard-response","299","286429","0.0-1.0-408.0","0","0","72057","","null","","","null","45","NaN","","","","","","","","","","","","","","",""
"","S2","","html-keyboard-response","300","286692","0.0-1.0-409.0","0","0","72057","","null","","","null","45","","NaN","","","","","","","","","","","","","",""
"","response","","html-keyboard-response","301","287054","0.0-1.0-410.0-0.0","0","0","72057","","361","","","75","45","","","1","45","training","adjacent","FG","6","7","O.jpg","P.jpg","1","1","1","",""
"","feedback","","html-keyboard-response","302","288057","0.0-1.0-411.0-0.0","0","0","72057","","null","","","null","45","","","","","","","","","","","","","","","",""
"","ITI","","html-keyboard-response","303","289060","0.0-1.0-414.0","0","0","72057","","null","","","null","45","","","","","","","","","","","","","","","NaN",""
"","S1","","html-keyboard-response","304","289314","0.0-1.0-416.0","0","0","72057","","null","","","null","46","","","","","","","","","","","","","","","",""
"","ISI","","html-keyboard-response","305","289816","0.0-1.0-417.0","0","0","72057","","null","","","null","46","NaN","","","","","","","","","","","","","","",""
"","S2","","html-keyboard-response","306","290070","0.0-1.0-418.0","0","0","72057","","null","","","null","46","","NaN","","","","","","","","","","","","","",""
"","response","","html-keyboard-response","307","290574","0.0-1.0-419.0-0.0","0","0","72057","","502","","","68","46","","","1","46","training","adjacent","GF","7","6","P.jpg","O.jpg","0","0","1","",""
"","feedback","","html-keyboard-response","308","291578","0.0-1.0-420.0-0.0","0","0","72057","","null","","","null","46","","","","","","","","","","","","","","","",""
"","ITI","","html-keyboard-response","309","292581","0.0-1.0-423.0","0","0","72057","","null","","","null","46","","","","","","","","","","","","","","","NaN",""
"","S1","","html-keyboard-response","310","292835","0.0-1.0-425.0","0","0","72057","","null","","","null","47","","","","","","","","","","","","","","","",""
"","ISI","","html-keyboard-response","311","293338","0.0-1.0-426.0","0","0","72057","","null","","","null","47","NaN","","","","","","","","","","","","","","",""
"","S2","","html-keyboard-response","312","293591","0.0-1.0-427.0","0","0","72057","","null","","","null","47","","NaN","","","","","","","","","","","","","",""
"","response","","html-keyboard-response","313","293969","0.0-1.0-428.0-0.0","0","0","72057","","375","","","75","47","","","1","47","training","adjacent","FE","6","5","O.jpg","L.jpg","1","0","0","",""
"","feedback","","html-keyboard-response","314","294972","0.0-1.0-429.0-0.0","0","0","72057","","null","","","null","47","","","","","","","","","","","","","","","",""
"","time_out","","html-keyboard-response","315","296974","0.0-1.0-431.0-0.0","0","0","72057","","null","","","null","47","","","","","","","","","","","","","","","",""
"","ITI","","html-keyboard-response","316","297976","0.0-1.0-432.0","0","0","72057","","null","","","null","47","","","","","","","","","","","","","","","NaN",""
"","block_over","","html-keyboard-response","317","300865","0.0-1.0-433.0-0.0","0","0","72057","","2887","","","32","47","","","","","","","","","","","","","","","",""
"","S1","","html-keyboard-response","318","301118","0.0-1.0-434.0","0","0","72057","","null","","","null","48","","","","","","","","","","","","","","","",""
"","ISI","","html-keyboard-response","319","301622","0.0-1.0-435.0","0","0","72057","","null","","","null","48","NaN","","","","","","","","","","","","","","",""
"","S2","","html-keyboard-response","320","301874","0.0-1.0-436.0","0","0","72057","","null","","","null","48","","NaN","","","","","","","","","","","","","",""
"","response","","html-keyboard-response","321","302435","0.0-1.0-437.0-0.0","0","0","72057","","558","","","68","48","","","2","48","training","adjacent","ED","5","4","L.jpg","M.jpg","0","0","1","",""
"","feedback","","html-keyboard-response","322","303438","0.0-1.0-438.0-0.0","0","0","72057","","null","","","null","48","","","","","","","","","","","","","","","",""
"","ITI","","html-keyboard-response","323","304442","0.0-1.0-441.0","0","0","72057","","null","","","null","48","","","","","","","","","","","","","","","NaN",""
"","S1","","html-keyboard-response","324","304695","0.0-1.0-443.0","0","0","72057","","null","","","null","49","","","","","","","","","","","","","","","",""
"","ISI","","html-keyboard-response","325","305198","0.0-1.0-444.0","0","0","72057","","null","","","null","49","NaN","","","","","","","","","","","","","","",""
"","S2","","html-keyboard-response","326","305451","0.0-1.0-445.0","0","0","72057","","null","","","null","49","","NaN","","","","","","","","","","","","","",""
"","response","","html-keyboard-response","327","305812","0.0-1.0-446.0-0.0","0","0","72057","","358","","","68","49","","","2","49","training","adjacent","ED","5","4","L.jpg","M.jpg","0","0","1","",""
"","feedback","","html-keyboard-response","328","306815","0.0-1.0-447.0-0.0","0","0","72057","","null","","","null","49","","","","","","","","","","","","","","","",""
"","ITI","","html-keyboard-response","329","307818","0.0-1.0-450.0","0","0","72057","","null","","","null","49","","","","","","","","","","","","","","","NaN",""
"","S1","","html-keyboard-response","330","308071","0.0-1.0-452.0","0","0","72057","","null","","","null","50","","","","","","","","","","","","","","","",""
"","ISI","","html-keyboard-response","331","308573","0.0-1.0-453.0","0","0","72057","","null","","","null","50","NaN","","","","","","","","","","","","","","",""
"","S2","","html-keyboard-response","332","308825","0.0-1.0-454.0","0","0","72057","","null","","","null","50","","NaN","","","","","","","","","","","","","",""
"","response","","html-keyboard-response","333","309124","0.0-1.0-455.0-0.0","0","0","72057","","297","","","75","50","","","2","50","training","adjacent","FG","6","7","O.jpg","P.jpg","1","1","1","",""
"","feedback","","html-keyboard-response","334","310128","0.0-1.0-456.0-0.0","0","0","72057","","null","","","null","50","","","","","","","","","","","","","","","",""
"","ITI","","html-keyboard-response","335","311131","0.0-1.0-459.0","0","0","72057","","null","","","null","50","","","","","","","","","","","","","","","NaN",""
"","S1","","html-keyboard-response","336","311384","0.0-1.0-461.0","0","0","72057","","null","","","null","51","","","","","","","","","","","","","","","",""
"","ISI","","html-keyboard-response","337","311886","0.0-1.0-462.0","0","0","72057","","null","","","null","51","NaN","","","","","","","","","","","","","","",""
"","S2","","html-keyboard-response","338","312140","0.0-1.0-463.0","0","0","72057","","null","","","null","51","","NaN","","","","","","","","","","","","","",""
"","response","","html-keyboard-response","339","312881","0.0-1.0-464.0-0.0","0","0","72057","","740","","","68","51","","","2","51","training","adjacent","DE","4","5","M.jpg","L.jpg","0","1","0","",""
"","feedback","","html-keyboard-response","340","313884","0.0-1.0-465.0-0.0","0","0","72057","","null","","","null","51","","","","","","","","","","","","","","","",""
"","time_out","","html-keyboard-response","341","315886","0.0-1.0-467.0-0.0","0","0","72057","","null","","","null","51","","","","","","","","","","","","","","","",""
"","ITI","","html-keyboard-response","342","316888","0.0-1.0-468.0","0","0","72057","","null","","","null","51","","","","","","","","","","","","","","","NaN",""
"","S1","","html-keyboard-response","343","317141","0.0-1.0-470.0","0","0","72057","","null","","","null","52","","","","","","","","","","","","","","","",""
"","ISI","","html-keyboard-response","344","317644","0.0-1.0-471.0","0","0","72057","","null","","","null","52","NaN","","","","","","","","","","","","","","",""
"","S2","","html-keyboard-response","345","317896","0.0-1.0-472.0","0","0","72057","","null","","","null","52","","NaN","","","","","","","","","","","","","",""
"","response","","html-keyboard-response","346","318175","0.0-1.0-473.0-0.0","0","0","72057","","276","","","75","52","","","2","52","training","adjacent","DE","4","5","M.jpg","L.jpg","1","1","1","",""
"","feedback","","html-keyboard-response","347","319188","0.0-1.0-474.0-0.0","0","0","72057","","null","","","null","52","","","","","","","","","","","","","","","",""
"","ITI","","html-keyboard-response","348","320190","0.0-1.0-477.0","0","0","72057","","null","","","null","52","","","","","","","","","","","","","","","NaN",""
"","S1","","html-keyboard-response","349","320443","0.0-1.0-479.0","0","0","72057","","null","","","null","53","","","","","","","","","","","","","","","",""
"","ISI","","html-keyboard-response","350","320944","0.0-1.0-480.0","0","0","72057","","null","","","null","53","NaN","","","","","","","","","","","","","","",""
"","S2","","html-keyboard-response","351","321198","0.0-1.0-481.0","0","0","72057","","null","","","null","53","","NaN","","","","","","","","","","","","","",""
"","response","","html-keyboard-response","352","321760","0.0-1.0-482.0-0.0","0","0","72057","","560","","","75","53","","","2","53","training","adjacent","DC","4","3","M.jpg","N.jpg","1","0","0","",""
"","feedback","","html-keyboard-response","353","322763","0.0-1.0-483.0-0.0","0","0","72057","","null","","","null","53","","","","","","","","","","","","","","","",""
"","time_out","","html-keyboard-response","354","324766","0.0-1.0-485.0-0.0","0","0","72057","","null","","","null","53","","","","","","","","","","","","","","","",""
"","ITI","","html-keyboard-response","355","325768","0.0-1.0-486.0","0","0","72057","","null","","","null","53","","","","","","","","","","","","","","","NaN",""
"","S1","","html-keyboard-response","356","326021","0.0-1.0-488.0","0","0","72057","","null","","","null","54","","","","","","","","","","","","","","","",""
"","ISI","","html-keyboard-response","357","326523","0.0-1.0-489.0","0","0","72057","","null","","","null","54","NaN","","","","","","","","","","","","","","",""
"","S2","","html-keyboard-response","358","326775","0.0-1.0-490.0","0","0","72057","","null","","","null","54","","NaN","","","","","","","","","","","","","",""
"","response","","html-keyboard-response","359","327138","0.0-1.0-491.0-0.0","0","0","72057","","361","","","75","54","","","2","54","training","adjacent","FE","6","5","O.jpg","L.jpg","1","0","0","",""
"","feedback","","html-keyboard-response","360","328142","0.0-1.0-492.0-0.0","0","0","72057","","null","","","null","54","","","","","","","","","","","","","","","",""
"","time_out","","html-keyboard-response","361","330145","0.0-1.0-494.0-0.0","0","0","72057","","null","","","null","54","","","","","","","","","","","","","","","",""
"","ITI","","html-keyboard-response","362","331148","0.0-1.0-495.0","0","0","72057","","null","","","null","54","","","","","","","","","","","","","","","NaN",""
"","S1","","html-keyboard-response","363","331401","0.0-1.0-497.0","0","0","72057","","null","","","null","55","","","","","","","","","","","","","","","",""
"","ISI","","html-keyboard-response","364","331903","0.0-1.0-498.0","0","0","72057","","null","","","null","55","NaN","","","","","","","","","","","","","","",""
"","S2","","html-keyboard-response","365","332156","0.0-1.0-499.0","0","0","72057","","null","","","null","55","","NaN","","","","","","","","","","","","","",""
"","response","","html-keyboard-response","366","332704","0.0-1.0-500.0-0.0","0","0","72057","","546","","","68","55","","","2","55","training","adjacent","CB","3","2","N.jpg","R.jpg","0","0","1","",""
"","feedback","","html-keyboard-response","367","333707","0.0-1.0-501.0-0.0","0","0","72057","","null","","","null","55","","","","","","","","","","","","","","","",""
"","ITI","","html-keyboard-response","368","334712","0.0-1.0-504.0","0","0","72057","","null","","","null","55","","","","","","","","","","","","","","","NaN",""
"","S1","","html-keyboard-response","369","334965","0.0-1.0-506.0","0","0","72057","","null","","","null","56","","","","","","","","","","","","","","","",""
"","ISI","","html-keyboard-response","370","335468","0.0-1.0-507.0","0","0","72057","","null","","","null","56","NaN","","","","","","","","","","","","","","",""
"","S2","","html-keyboard-response","371","335724","0.0-1.0-508.0","0","0","72057","","null","","","null","56","","NaN","","","","","","","","","","","","","",""
"","response","","html-keyboard-response","372","336322","0.0-1.0-509.0-0.0","0","0","72057","","596","","","68","56","","","2","56","training","adjacent","BA","2","1","R.jpg","Q.jpg","0","0","1","",""
"","feedback","","html-keyboard-response","373","337326","0.0-1.0-510.0-0.0","0","0","72057","","null","","","null","56","","","","","","","","","","","","","","","",""
"","ITI","","html-keyboard-response","374","338329","0.0-1.0-513.0","0","0","72057","","null","","","null","56","","","","","","","","","","","","","","","NaN",""
"","S1","","html-keyboard-response","375","338582","0.0-1.0-515.0","0","0","72057","","null","","","null","57","","","","","","","","","","","","","","","",""
"","ISI","","html-keyboard-response","376","339085","0.0-1.0-516.0","0","0","72057","","null","","","null","57","NaN","","","","","","","","","","","","","","",""
"","S2","","html-keyboard-response","377","339338","0.0-1.0-517.0","0","0","72057","","null","","","null","57","","NaN","","","","","","","","","","","","","",""
"","response","","html-keyboard-response","378","339887","0.0-1.0-518.0-0.0","0","0","72057","","548","","","68","57","","","2","57","training","adjacent","BC","2","3","R.jpg","N.jpg","0","1","0","",""
"","feedback","","html-keyboard-response","379","340890","0.0-1.0-519.0-0.0","0","0","72057","","null","","","null","57","","","","","","","","","","","","","","","",""
"","time_out","","html-keyboard-response","380","342894","0.0-1.0-521.0-0.0","0","0","72057","","null","","","null","57","","","","","","","","","","","","","","","",""
"","ITI","","html-keyboard-response","381","343897","0.0-1.0-522.0","0","0","72057","","null","","","null","57","","","","","","","","","","","","","","","NaN",""
"","S1","","html-keyboard-response","382","344150","0.0-1.0-524.0","0","0","72057","","null","","","null","58","","","","","","","","","","","","","","","",""
"","ISI","","html-keyboard-response","383","344652","0.0-1.0-525.0","0","0","72057","","null","","","null","58","NaN","","","","","","","","","","","","","","",""
"","S2","","html-keyboard-response","384","344905","0.0-1.0-526.0","0","0","72057","","null","","","null","58","","NaN","","","","","","","","","","","","","",""
"","response","","html-keyboard-response","385","345384","0.0-1.0-527.0-0.0","0","0","72057","","477","","","75","58","","","2","58","training","adjacent","FE","6","5","O.jpg","L.jpg","1","0","0","",""
"","feedback","","html-keyboard-response","386","346387","0.0-1.0-528.0-0.0","0","0","72057","","null","","","null","58","","","","","","","","","","","","","","","",""
"","time_out","","html-keyboard-response","387","348390","0.0-1.0-530.0-0.0","0","0","72057","","null","","","null","58","","","","","","","","","","","","","","","",""
"","ITI","","html-keyboard-response","388","349393","0.0-1.0-531.0","0","0","72057","","null","","","null","58","","","","","","","","","","","","","","","NaN",""
"","S1","","html-keyboard-response","389","349645","0.0-1.0-533.0","0","0","72057","","null","","","null","59","","","","","","","","","","","","","","","",""
"","ISI","","html-keyboard-response","390","350149","0.0-1.0-534.0","0","0","72057","","null","","","null","59","NaN","","","","","","","","","","","","","","",""
"","S2","","html-keyboard-response","391","350403","0.0-1.0-535.0","0","0","72057","","null","","","null","59","","NaN","","","","","","","","","","","","","",""
"","response","","html-keyboard-response","392","350815","0.0-1.0-536.0-0.0","0","0","72057","","411","","","75","59","","","2","59","training","adjacent","CD","3","4","N.jpg","M.jpg","1","1","1","",""
"","feedback","","html-keyboard-response","393","351819","0.0-1.0-537.0-0.0","0","0","72057","","null","","","null","59","","","","","","","","","","","","","","","",""
"","ITI","","html-keyboard-response","394","352823","0.0-1.0-540.0","0","0","72057","","null","","","null","59","","","","","","","","","","","","","","","NaN",""
"","S1","","html-keyboard-response","395","353076","0.0-1.0-542.0","0","0","72057","","null","","","null","60","","","","","","","","","","","","","","","",""
"","ISI","","html-keyboard-response","396","353580","0.0-1.0-543.0","0","0","72057","","null","","","null","60","NaN","","","","","","","","","","","","","","",""
"","S2","","html-keyboard-response","397","353833","0.0-1.0-544.0","0","0","72057","","null","","","null","60","","NaN","","","","","","","","","","","","","",""
"","response","","html-keyboard-response","398","354144","0.0-1.0-545.0-0.0","0","0","72057","","309","","","75","60","","","2","60","training","adjacent","FG","6","7","O.jpg","P.jpg","1","1","1","",""
"","feedback","","html-keyboard-response","399","355148","0.0-1.0-546.0-0.0","0","0","72057","","null","","","null","60","","","","","","","","","","","","","","","",""
"","ITI","","html-keyboard-response","400","356152","0.0-1.0-549.0","0","0","72057","","null","","","null","60","","","","","","","","","","","","","","","NaN",""
"","S1","","html-keyboard-response","401","356407","0.0-1.0-551.0","0","0","72057","","null","","","null","61","","","","","","","","","","","","","","","",""
"","ISI","","html-keyboard-response","402","356910","0.0-1.0-552.0","0","0","72057","","null","","","null","61","NaN","","","","","","","","","","","","","","",""
"","S2","","html-keyboard-response","403","357163","0.0-1.0-553.0","0","0","72057","","null","","","null","61","","NaN","","","","","","","","","","","","","",""
"","response","","html-keyboard-response","404","357609","0.0-1.0-554.0-0.0","0","0","72057","","443","","","68","61","","","2","61","training","adjacent","DC","4","3","M.jpg","N.jpg","0","0","1","",""
"","feedback","","html-keyboard-response","405","358613","0.0-1.0-555.0-0.0","0","0","72057","","null","","","null","61","","","","","","","","","","","","","","","",""
"","ITI","","html-keyboard-response","406","359617","0.0-1.0-558.0","0","0","72057","","null","","","null","61","","","","","","","","","","","","","","","NaN",""
"","S1","","html-keyboard-response","407","359869","0.0-1.0-560.0","0","0","72057","","null","","","null","62","","","","","","","","","","","","","","","",""
"","ISI","","html-keyboard-response","408","360373","0.0-1.0-561.0","0","0","72057","","null","","","null","62","NaN","","","","","","","","","","","","","","",""
"","S2","","html-keyboard-response","409","360625","0.0-1.0-562.0","0","0","72057","","null","","","null","62","","NaN","","","","","","","","","","","","","",""
"","response","","html-keyboard-response","410","360872","0.0-1.0-563.0-0.0","0","0","72057","","244","","","75","62","","","2","62","training","adjacent","AB","1","2","Q.jpg","R.jpg","1","1","1","",""
"","feedback","","html-keyboard-response","411","361874","0.0-1.0-564.0-0.0","0","0","72057","","null","","","null","62","","","","","","","","","","","","","","","",""
"","ITI","","html-keyboard-response","412","362878","0.0-1.0-567.0","0","0","72057","","null","","","null","62","","","","","","","","","","","","","","","NaN",""
"","S1","","html-keyboard-response","413","363131","0.0-1.0-569.0","0","0","72057","","null","","","null","63","","","","","","","","","","","","","","","",""
"","ISI","","html-keyboard-response","414","363634","0.0-1.0-570.0","0","0","72057","","null","","","null","63","NaN","","","","","","","","","","","","","","",""
"","S2","","html-keyboard-response","415","363887","0.0-1.0-571.0","0","0","72057","","null","","","null","63","","NaN","","","","","","","","","","","","","",""
"","response","","html-keyboard-response","416","364270","0.0-1.0-572.0-0.0","0","0","72057","","381","","","68","63","","","2","63","training","adjacent","DC","4","3","M.jpg","N.jpg","0","0","1","",""
"","feedback","","html-keyboard-response","417","365274","0.0-1.0-573.0-0.0","0","0","72057","","null","","","null","63","","","","","","","","","","","","","","","",""
"","ITI","","html-keyboard-response","418","366277","0.0-1.0-576.0","0","0","72057","","null","","","null","63","","","","","","","","","","","","","","","NaN",""
"","S1","","html-keyboard-response","419","366530","0.0-1.0-578.0","0","0","72057","","null","","","null","64","","","","","","","","","","","","","","","",""
"","ISI","","html-keyboard-response","420","367031","0.0-1.0-579.0","0","0","72057","","null","","","null","64","NaN","","","","","","","","","","","","","","",""
"","S2","","html-keyboard-response","421","367285","0.0-1.0-580.0","0","0","72057","","null","","","null","64","","NaN","","","","","","","","","","","","","",""
"","response","","html-keyboard-response","422","367699","0.0-1.0-581.0-0.0","0","0","72057","","412","","","68","64","","","2","64","training","adjacent","BC","2","3","R.jpg","N.jpg","0","1","0","",""
"","feedback","","html-keyboard-response","423","368703","0.0-1.0-582.0-0.0","0","0","72057","","null","","","null","64","","","","","","","","","","","","","","","",""
"","time_out","","html-keyboard-response","424","370705","0.0-1.0-584.0-0.0","0","0","72057","","null","","","null","64","","","","","","","","","","","","","","","",""
"","ITI","","html-keyboard-response","425","371708","0.0-1.0-585.0","0","0","72057","","null","","","null","64","","","","","","","","","","","","","","","NaN",""
"","S1","","html-keyboard-response","426","371961","0.0-1.0-587.0","0","0","72057","","null","","","null","65","","","","","","","","","","","","","","","",""
"","ISI","","html-keyboard-response","427","372464","0.0-1.0-588.0","0","0","72057","","null","","","null","65","NaN","","","","","","","","","","","","","","",""
"","S2","","html-keyboard-response","428","372717","0.0-1.0-589.0","0","0","72057","","null","","","null","65","","NaN","","","","","","","","","","","","","",""
"","response","","html-keyboard-response","429","373399","0.0-1.0-590.0-0.0","0","0","72057","","679","","","75","65","","","2","65","training","adjacent","CB","3","2","N.jpg","R.jpg","1","0","0","",""
"","feedback","","html-keyboard-response","430","374402","0.0-1.0-591.0-0.0","0","0","72057","","null","","","null","65","","","","","","","","","","","","","","","",""
"","time_out","","html-keyboard-response","431","376405","0.0-1.0-593.0-0.0","0","0","72057","","null","","","null","65","","","","","","","","","","","","","","","",""
"","ITI","","html-keyboard-response","432","377408","0.0-1.0-594.0","0","0","72057","","null","","","null","65","","","","","","","","","","","","","","","NaN",""
"","S1","","html-keyboard-response","433","377660","0.0-1.0-596.0","0","0","72057","","null","","","null","66","","","","","","","","","","","","","","","",""
"","ISI","","html-keyboard-response","434","378164","0.0-1.0-597.0","0","0","72057","","null","","","null","66","NaN","","","","","","","","","","","","","","",""
"","S2","","html-keyboard-response","435","378417","0.0-1.0-598.0","0","0","72057","","null","","","null","66","","NaN","","","","","","","","","","","","","",""
"","response","","html-keyboard-response","436","378694","0.0-1.0-599.0-0.0","0","0","72057","","275","","","75","66","","","2","66","training","adjacent","AB","1","2","Q.jpg","R.jpg","1","1","1","",""
"","feedback","","html-keyboard-response","437","379697","0.0-1.0-600.0-0.0","0","0","72057","","null","","","null","66","","","","","","","","","","","","","","","",""
"","ITI","","html-keyboard-response","438","380701","0.0-1.0-603.0","0","0","72057","","null","","","null","66","","","","","","","","","","","","","","","NaN",""
"","S1","","html-keyboard-response","439","380953","0.0-1.0-605.0","0","0","72057","","null","","","null","67","","","","","","","","","","","","","","","",""
"","ISI","","html-keyboard-response","440","381456","0.0-1.0-606.0","0","0","72057","","null","","","null","67","NaN","","","","","","","","","","","","","","",""
"","S2","","html-keyboard-response","441","381709","0.0-1.0-607.0","0","0","72057","","null","","","null","67","","NaN","","","","","","","","","","","","","",""
"","response","","html-keyboard-response","442","382033","0.0-1.0-608.0-0.0","0","0","72057","","321","","","68","67","","","2","67","training","adjacent","BC","2","3","R.jpg","N.jpg","0","1","0","",""
"","feedback","","html-keyboard-response","443","383035","0.0-1.0-609.0-0.0","0","0","72057","","null","","","null","67","","","","","","","","","","","","","","","",""
"","time_out","","html-keyboard-response","444","385039","0.0-1.0-611.0-0.0","0","0","72057","","null","","","null","67","","","","","","","","","","","","","","","",""
"","ITI","","html-keyboard-response","445","386041","0.0-1.0-612.0","0","0","72057","","null","","","null","67","","","","","","","","","","","","","","","NaN",""
"","S1","","html-keyboard-response","446","386295","0.0-1.0-614.0","0","0","72057","","null","","","null","68","","","","","","","","","","","","","","","",""
"","ISI","","html-keyboard-response","447","386798","0.0-1.0-615.0","0","0","72057","","null","","","null","68","NaN","","","","","","","","","","","","","","",""
"","S2","","html-keyboard-response","448","387051","0.0-1.0-616.0","0","0","72057","","null","","","null","68","","NaN","","","","","","","","","","","","","",""
"","response","","html-keyboard-response","449","387428","0.0-1.0-617.0-0.0","0","0","72057","","376","","","68","68","","","2","68","training","adjacent","DE","4","5","M.jpg","L.jpg","0","1","0","",""
"","feedback","","html-keyboard-response","450","388431","0.0-1.0-618.0-0.0","0","0","72057","","null","","","null","68","","","","","","","","","","","","","","","",""
"","time_out","","html-keyboard-response","451","390434","0.0-1.0-620.0-0.0","0","0","72057","","null","","","null","68","","","","","","","","","","","","","","","",""
"","ITI","","html-keyboard-response","452","391436","0.0-1.0-621.0","0","0","72057","","null","","","null","68","","","","","","","","","","","","","","","NaN",""
"","S1","","html-keyboard-response","453","391689","0.0-1.0-623.0","0","0","72057","","null","","","null","69","","","","","","","","","","","","","","","",""
"","ISI","","html-keyboard-response","454","392192","0.0-1.0-624.0","0","0","72057","","null","","","null","69","NaN","","","","","","","","","","","","","","",""
"","S2","","html-keyboard-response","455","392445","0.0-1.0-625.0","0","0","72057","","null","","","null","69","","NaN","","","","","","","","","","","","","",""
"","response","","html-keyboard-response","456","393130","0.0-1.0-626.0-0.0","0","0","72057","","684","","","75","69","","","2","69","training","adjacent","FE","6","5","O.jpg","L.jpg","1","0","0","",""
"","feedback","","html-keyboard-response","457","394134","0.0-1.0-627.0-0.0","0","0","72057","","null","","","null","69","","","","","","","","","","","","","","","",""
"","time_out","","html-keyboard-response","458","396137","0.0-1.0-629.0-0.0","0","0","72057","","null","","","null","69","","","","","","","","","","","","","","","",""
"","ITI","","html-keyboard-response","459","397140","0.0-1.0-630.0","0","0","72057","","null","","","null","69","","","","","","","","","","","","","","","NaN",""
"","S1","","html-keyboard-response","460","397394","0.0-1.0-632.0","0","0","72057","","null","","","null","70","","","","","","","","","","","","","","","",""
"","ISI","","html-keyboard-response","461","397897","0.0-1.0-633.0","0","0","72057","","null","","","null","70","NaN","","","","","","","","","","","","","","",""
"","S2","","html-keyboard-response","462","398149","0.0-1.0-634.0","0","0","72057","","null","","","null","70","","NaN","","","","","","","","","","","","","",""
"","response","","html-keyboard-response","463","398899","0.0-1.0-635.0-0.0","0","0","72057","","748","","","68","70","","","2","70","training","adjacent","BA","2","1","R.jpg","Q.jpg","0","0","1","",""
"","feedback","","html-keyboard-response","464","399902","0.0-1.0-636.0-0.0","0","0","72057","","null","","","null","70","","","","","","","","","","","","","","","",""
"","ITI","","html-keyboard-response","465","400906","0.0-1.0-639.0","0","0","72057","","null","","","null","70","","","","","","","","","","","","","","","NaN",""
"","S1","","html-keyboard-response","466","401159","0.0-1.0-641.0","0","0","72057","","null","","","null","71","","","","","","","","","","","","","","","",""
"","ISI","","html-keyboard-response","467","401661","0.0-1.0-642.0","0","0","72057","","null","","","null","71","NaN","","","","","","","","","","","","","","",""
"","S2","","html-keyboard-response","468","401914","0.0-1.0-643.0","0","0","72057","","null","","","null","71","","NaN","","","","","","","","","","","","","",""
"","response","","html-keyboard-response","469","402333","0.0-1.0-644.0-0.0","0","0","72057","","416","","","75","71","","","2","71","training","adjacent","EF","5","6","L.jpg","O.jpg","1","1","1","",""
"","feedback","","html-keyboard-response","470","403337","0.0-1.0-645.0-0.0","0","0","72057","","null","","","null","71","","","","","","","","","","","","","","","",""
"","ITI","","html-keyboard-response","471","404340","0.0-1.0-648.0","0","0","72057","","null","","","null","71","","","","","","","","","","","","","","","NaN",""
"","S1","","html-keyboard-response","472","404593","0.0-1.0-650.0","0","0","72057","","null","","","null","72","","","","","","","","","","","","","","","",""
"","ISI","","html-keyboard-response","473","405095","0.0-1.0-651.0","0","0","72057","","null","","","null","72","NaN","","","","","","","","","","","","","","",""
"","S2","","html-keyboard-response","474","405348","0.0-1.0-652.0","0","0","72057","","null","","","null","72","","NaN","","","","","","","","","","","","","",""
"","response","","html-keyboard-response","475","405880","0.0-1.0-653.0-0.0","0","0","72057","","530","","","75","72","","","2","72","training","adjacent","CD","3","4","N.jpg","M.jpg","1","1","1","",""
"","feedback","","html-keyboard-response","476","406884","0.0-1.0-654.0-0.0","0","0","72057","","null","","","null","72","","","","","","","","","","","","","","","",""
"","ITI","","html-keyboard-response","477","407887","0.0-1.0-657.0","0","0","72057","","null","","","null","72","","","","","","","","","","","","","","","NaN",""
"","S1","","html-keyboard-response","478","408138","0.0-1.0-659.0","0","0","72057","","null","","","null","73","","","","","","","","","","","","","","","",""
"","ISI","","html-keyboard-response","479","408641","0.0-1.0-660.0","0","0","72057","","null","","","null","73","NaN","","","","","","","","","","","","","","",""
"","S2","","html-keyboard-response","480","408894","0.0-1.0-661.0","0","0","72057","","null","","","null","73","","NaN","","","","","","","","","","","","","",""
"","response","","html-keyboard-response","481","409277","0.0-1.0-662.0-0.0","0","0","72057","","381","","","68","73","","","2","73","training","adjacent","GF","7","6","P.jpg","O.jpg","0","0","1","",""
"","feedback","","html-keyboard-response","482","410281","0.0-1.0-663.0-0.0","0","0","72057","","null","","","null","73","","","","","","","","","","","","","","","",""
"","ITI","","html-keyboard-response","483","411284","0.0-1.0-666.0","0","0","72057","","null","","","null","73","","","","","","","","","","","","","","","NaN",""
"","S1","","html-keyboard-response","484","411538","0.0-1.0-668.0","0","0","72057","","null","","","null","74","","","","","","","","","","","","","","","",""
"","ISI","","html-keyboard-response","485","412041","0.0-1.0-669.0","0","0","72057","","null","","","null","74","NaN","","","","","","","","","","","","","","",""
"","S2","","html-keyboard-response","486","412293","0.0-1.0-670.0","0","0","72057","","null","","","null","74","","NaN","","","","","","","","","","","","","",""
"","response","","html-keyboard-response","487","412555","0.0-1.0-671.0-0.0","0","0","72057","","259","","","75","74","","","2","74","training","adjacent","AB","1","2","Q.jpg","R.jpg","1","1","1","",""
"","feedback","","html-keyboard-response","488","413558","0.0-1.0-672.0-0.0","0","0","72057","","null","","","null","74","","","","","","","","","","","","","","","",""
"","ITI","","html-keyboard-response","489","414562","0.0-1.0-675.0","0","0","72057","","null","","","null","74","","","","","","","","","","","","","","","NaN",""
"","S1","","html-keyboard-response","490","414814","0.0-1.0-677.0","0","0","72057","","null","","","null","75","","","","","","","","","","","","","","","",""
"","ISI","","html-keyboard-response","491","415317","0.0-1.0-678.0","0","0","72057","","null","","","null","75","NaN","","","","","","","","","","","","","","",""
"","S2","","html-keyboard-response","492","415571","0.0-1.0-679.0","0","0","72057","","null","","","null","75","","NaN","","","","","","","","","","","","","",""
"","response","","html-keyboard-response","493","416093","0.0-1.0-680.0-0.0","0","0","72057","","521","","","75","75","","","2","75","training","adjacent","FG","6","7","O.jpg","P.jpg","1","1","1","",""
"","feedback","","html-keyboard-response","494","417096","0.0-1.0-681.0-0.0","0","0","72057","","null","","","null","75","","","","","","","","","","","","","","","",""
"","ITI","","html-keyboard-response","495","418099","0.0-1.0-684.0","0","0","72057","","null","","","null","75","","","","","","","","","","","","","","","NaN",""
"","S1","","html-keyboard-response","496","418359","0.0-1.0-686.0","0","0","72057","","null","","","null","76","","","","","","","","","","","","","","","",""
"","ISI","","html-keyboard-response","497","418871","0.0-1.0-687.0","0","0","72057","","null","","","null","76","NaN","","","","","","","","","","","","","","",""
"","S2","","html-keyboard-response","498","419124","0.0-1.0-688.0","0","0","72057","","null","","","null","76","","NaN","","","","","","","","","","","","","",""
"","response","","html-keyboard-response","499","419630","0.0-1.0-689.0-0.0","0","0","72057","","504","","","75","76","","","2","76","training","adjacent","EF","5","6","L.jpg","O.jpg","1","1","1","",""
"","feedback","","html-keyboard-response","500","420633","0.0-1.0-690.0-0.0","0","0","72057","","null","","","null","76","","","","","","","","","","","","","","","",""
"","ITI","","html-keyboard-response","501","421636","0.0-1.0-693.0","0","0","72057","","null","","","null","76","","","","","","","","","","","","","","","NaN",""
"","S1","","html-keyboard-response","502","421890","0.0-1.0-695.0","0","0","72057","","null","","","null","77","","","","","","","","","","","","","","","",""
"","ISI","","html-keyboard-response","503","422393","0.0-1.0-696.0","0","0","72057","","null","","","null","77","NaN","","","","","","","","","","","","","","",""
"","S2","","html-keyboard-response","504","422645","0.0-1.0-697.0","0","0","72057","","null","","","null","77","","NaN","","","","","","","","","","","","","",""
"","response","","html-keyboard-response","505","423052","0.0-1.0-698.0-0.0","0","0","72057","","406","","","75","77","","","2","77","training","adjacent","FG","6","7","O.jpg","P.jpg","1","1","1","",""
"","feedback","","html-keyboard-response","506","424056","0.0-1.0-699.0-0.0","0","0","72057","","null","","","null","77","","","","","","","","","","","","","","","",""
"","ITI","","html-keyboard-response","507","425058","0.0-1.0-702.0","0","0","72057","","null","","","null","77","","","","","","","","","","","","","","","NaN",""
"","S1","","html-keyboard-response","508","425312","0.0-1.0-704.0","0","0","72057","","null","","","null","78","","","","","","","","","","","","","","","",""
"","ISI","","html-keyboard-response","509","425815","0.0-1.0-705.0","0","0","72057","","null","","","null","78","NaN","","","","","","","","","","","","","","",""
"","S2","","html-keyboard-response","510","426068","0.0-1.0-706.0","0","0","72057","","null","","","null","78","","NaN","","","","","","","","","","","","","",""
"","response","","html-keyboard-response","511","426388","0.0-1.0-707.0-0.0","0","0","72057","","319","","","68","78","","","2","78","training","adjacent","GF","7","6","P.jpg","O.jpg","0","0","1","",""
"","feedback","","html-keyboard-response","512","427393","0.0-1.0-708.0-0.0","0","0","72057","","null","","","null","78","","","","","","","","","","","","","","","",""
"","ITI","","html-keyboard-response","513","428396","0.0-1.0-711.0","0","0","72057","","null","","","null","78","","","","","","","","","","","","","","","NaN",""
"","S1","","html-keyboard-response","514","428649","0.0-1.0-713.0","0","0","72057","","null","","","null","79","","","","","","","","","","","","","","","",""
"","ISI","","html-keyboard-response","515","429152","0.0-1.0-714.0","0","0","72057","","null","","","null","79","NaN","","","","","","","","","","","","","","",""
"","S2","","html-keyboard-response","516","429406","0.0-1.0-715.0","0","0","72057","","null","","","null","79","","NaN","","","","","","","","","","","","","",""
"","response","","html-keyboard-response","517","430027","0.0-1.0-716.0-0.0","0","0","72057","","618","","","75","79","","","2","79","training","adjacent","CB","3","2","N.jpg","R.jpg","1","0","0","",""
"","feedback","","html-keyboard-response","518","431031","0.0-1.0-717.0-0.0","0","0","72057","","null","","","null","79","","","","","","","","","","","","","","","",""
"","time_out","","html-keyboard-response","519","433034","0.0-1.0-719.0-0.0","0","0","72057","","null","","","null","79","","","","","","","","","","","","","","","",""
"","ITI","","html-keyboard-response","520","434037","0.0-1.0-720.0","0","0","72057","","null","","","null","79","","","","","","","","","","","","","","","NaN",""
"","S1","","html-keyboard-response","521","434289","0.0-1.0-722.0","0","0","72057","","null","","","null","80","","","","","","","","","","","","","","","",""
"","ISI","","html-keyboard-response","522","434793","0.0-1.0-723.0","0","0","72057","","null","","","null","80","NaN","","","","","","","","","","","","","","",""
"","S2","","html-keyboard-response","523","435046","0.0-1.0-724.0","0","0","72057","","null","","","null","80","","NaN","","","","","","","","","","","","","",""
"","response","","html-keyboard-response","524","435727","0.0-1.0-725.0-0.0","0","0","72057","","678","","","68","80","","","2","80","training","adjacent","ED","5","4","L.jpg","M.jpg","0","0","1","",""
"","feedback","","html-keyboard-response","525","436730","0.0-1.0-726.0-0.0","0","0","72057","","null","","","null","80","","","","","","","","","","","","","","","",""
"","ITI","","html-keyboard-response","526","437746","0.0-1.0-729.0","0","0","72057","","null","","","null","80","","","","","","","","","","","","","","","NaN",""
"","S1","","html-keyboard-response","527","437999","0.0-1.0-731.0","0","0","72057","","null","","","null","81","","","","","","","","","","","","","","","",""
"","ISI","","html-keyboard-response","528","438502","0.0-1.0-732.0","0","0","72057","","null","","","null","81","NaN","","","","","","","","","","","","","","",""
"","S2","","html-keyboard-response","529","438755","0.0-1.0-733.0","0","0","72057","","null","","","null","81","","NaN","","","","","","","","","","","","","",""
"","response","","html-keyboard-response","530","439412","0.0-1.0-734.0-0.0","0","0","72057","","656","","","75","81","","","2","81","training","adjacent","CD","3","4","N.jpg","M.jpg","1","1","1","",""
"","feedback","","html-keyboard-response","531","440416","0.0-1.0-735.0-0.0","0","0","72057","","null","","","null","81","","","","","","","","","","","","","","","",""
"","ITI","","html-keyboard-response","532","441419","0.0-1.0-738.0","0","0","72057","","null","","","null","81","","","","","","","","","","","","","","","NaN",""
"","S1","","html-keyboard-response","533","441673","0.0-1.0-740.0","0","0","72057","","null","","","null","82","","","","","","","","","","","","","","","",""
"","ISI","","html-keyboard-response","534","442176","0.0-1.0-741.0","0","0","72057","","null","","","null","82","NaN","","","","","","","","","","","","","","",""
"","S2","","html-keyboard-response","535","442429","0.0-1.0-742.0","0","0","72057","","null","","","null","82","","NaN","","","","","","","","","","","","","",""
"","response","","html-keyboard-response","536","442876","0.0-1.0-743.0-0.0","0","0","72057","","444","","","68","82","","","2","82","training","adjacent","GF","7","6","P.jpg","O.jpg","0","0","1","",""
"","feedback","","html-keyboard-response","537","443879","0.0-1.0-744.0-0.0","0","0","72057","","null","","","null","82","","","","","","","","","","","","","","","",""
"","ITI","","html-keyboard-response","538","444882","0.0-1.0-747.0","0","0","72057","","null","","","null","82","","","","","","","","","","","","","","","NaN",""
"","S1","","html-keyboard-response","539","445136","0.0-1.0-749.0","0","0","72057","","null","","","null","83","","","","","","","","","","","","","","","",""
"","ISI","","html-keyboard-response","540","445639","0.0-1.0-750.0","0","0","72057","","null","","","null","83","NaN","","","","","","","","","","","","","","",""
"","S2","","html-keyboard-response","541","445892","0.0-1.0-751.0","0","0","72057","","null","","","null","83","","NaN","","","","","","","","","","","","","",""
"","response","","html-keyboard-response","542","446378","0.0-1.0-752.0-0.0","0","0","72057","","485","","","75","83","","","2","83","training","adjacent","DE","4","5","M.jpg","L.jpg","1","1","1","",""
"","feedback","","html-keyboard-response","543","447381","0.0-1.0-753.0-0.0","0","0","72057","","null","","","null","83","","","","","","","","","","","","","","","",""
"","ITI","","html-keyboard-response","544","448383","0.0-1.0-756.0","0","0","72057","","null","","","null","83","","","","","","","","","","","","","","","NaN",""
"","S1","","html-keyboard-response","545","448636","0.0-1.0-758.0","0","0","72057","","null","","","null","84","","","","","","","","","","","","","","","",""
"","ISI","","html-keyboard-response","546","449138","0.0-1.0-759.0","0","0","72057","","null","","","null","84","NaN","","","","","","","","","","","","","","",""
"","S2","","html-keyboard-response","547","449392","0.0-1.0-760.0","0","0","72057","","null","","","null","84","","NaN","","","","","","","","","","","","","",""
"","response","","html-keyboard-response","548","449687","0.0-1.0-761.0-0.0","0","0","72057","","292","","","75","84","","","2","84","training","adjacent","AB","1","2","Q.jpg","R.jpg","1","1","1","",""
"","feedback","","html-keyboard-response","549","450691","0.0-1.0-762.0-0.0","0","0","72057","","null","","","null","84","","","","","","","","","","","","","","","",""
"","ITI","","html-keyboard-response","550","451694","0.0-1.0-765.0","0","0","72057","","null","","","null","84","","","","","","","","","","","","","","","NaN",""
"","S1","","html-keyboard-response","551","451947","0.0-1.0-767.0","0","0","72057","","null","","","null","85","","","","","","","","","","","","","","","",""
"","ISI","","html-keyboard-response","552","452448","0.0-1.0-768.0","0","0","72057","","null","","","null","85","NaN","","","","","","","","","","","","","","",""
"","S2","","html-keyboard-response","553","452702","0.0-1.0-769.0","0","0","72057","","null","","","null","85","","NaN","","","","","","","","","","","","","",""
"","response","","html-keyboard-response","554","453203","0.0-1.0-770.0-0.0","0","0","72057","","500","","","68","85","","","2","85","training","adjacent","EF","5","6","L.jpg","O.jpg","0","1","0","",""
"","feedback","","html-keyboard-response","555","454206","0.0-1.0-771.0-0.0","0","0","72057","","null","","","null","85","","","","","","","","","","","","","","","",""
"","time_out","","html-keyboard-response","556","456208","0.0-1.0-773.0-0.0","0","0","72057","","null","","","null","85","","","","","","","","","","","","","","","",""
"","ITI","","html-keyboard-response","557","457212","0.0-1.0-774.0","0","0","72057","","null","","","null","85","","","","","","","","","","","","","","","NaN",""
"","S1","","html-keyboard-response","558","457466","0.0-1.0-776.0","0","0","72057","","null","","","null","86","","","","","","","","","","","","","","","",""
"","ISI","","html-keyboard-response","559","457968","0.0-1.0-777.0","0","0","72057","","null","","","null","86","NaN","","","","","","","","","","","","","","",""
"","S2","","html-keyboard-response","560","458222","0.0-1.0-778.0","0","0","72057","","null","","","null","86","","NaN","","","","","","","","","","","","","",""
"","response","","html-keyboard-response","561","458562","0.0-1.0-779.0-0.0","0","0","72057","","339","","","68","86","","","2","86","training","adjacent","GF","7","6","P.jpg","O.jpg","0","0","1","",""
"","feedback","","html-keyboard-response","562","459565","0.0-1.0-780.0-0.0","0","0","72057","","null","","","null","86","","","","","","","","","","","","","","","",""
"","ITI","","html-keyboard-response","563","460569","0.0-1.0-783.0","0","0","72057","","null","","","null","86","","","","","","","","","","","","","","","NaN",""
"","S1","","html-keyboard-response","564","460823","0.0-1.0-785.0","0","0","72057","","null","","","null","87","","","","","","","","","","","","","","","",""
"","ISI","","html-keyboard-response","565","461326","0.0-1.0-786.0","0","0","72057","","null","","","null","87","NaN","","","","","","","","","","","","","","",""
"","S2","","html-keyboard-response","566","461579","0.0-1.0-787.0","0","0","72057","","null","","","null","87","","NaN","","","","","","","","","","","","","",""
"","response","","html-keyboard-response","567","462231","0.0-1.0-788.0-0.0","0","0","72057","","650","","","75","87","","","2","87","training","adjacent","EF","5","6","L.jpg","O.jpg","1","1","1","",""
"","feedback","","html-keyboard-response","568","463235","0.0-1.0-789.0-0.0","0","0","72057","","null","","","null","87","","","","","","","","","","","","","","","",""
"","ITI","","html-keyboard-response","569","464238","0.0-1.0-792.0","0","0","72057","","null","","","null","87","","","","","","","","","","","","","","","NaN",""
"","S1","","html-keyboard-response","570","464492","0.0-1.0-794.0","0","0","72057","","null","","","null","88","","","","","","","","","","","","","","","",""
"","ISI","","html-keyboard-response","571","464995","0.0-1.0-795.0","0","0","72057","","null","","","null","88","NaN","","","","","","","","","","","","","","",""
"","S2","","html-keyboard-response","572","465248","0.0-1.0-796.0","0","0","72057","","null","","","null","88","","NaN","","","","","","","","","","","","","",""
"","response","","html-keyboard-response","573","465835","0.0-1.0-797.0-0.0","0","0","72057","","585","","","68","88","","","2","88","training","adjacent","ED","5","4","L.jpg","M.jpg","0","0","1","",""
"","feedback","","html-keyboard-response","574","466838","0.0-1.0-798.0-0.0","0","0","72057","","null","","","null","88","","","","","","","","","","","","","","","",""
"","ITI","","html-keyboard-response","575","467841","0.0-1.0-801.0","0","0","72057","","null","","","null","88","","","","","","","","","","","","","","","NaN",""
"","S1","","html-keyboard-response","576","468094","0.0-1.0-803.0","0","0","72057","","null","","","null","89","","","","","","","","","","","","","","","",""
"","ISI","","html-keyboard-response","577","468597","0.0-1.0-804.0","0","0","72057","","null","","","null","89","NaN","","","","","","","","","","","","","","",""
"","S2","","html-keyboard-response","578","468851","0.0-1.0-805.0","0","0","72057","","null","","","null","89","","NaN","","","","","","","","","","","","","",""
"","response","","html-keyboard-response","579","469571","0.0-1.0-806.0-0.0","0","0","72057","","718","","","68","89","","","2","89","training","adjacent","BA","2","1","R.jpg","Q.jpg","0","0","1","",""
"","feedback","","html-keyboard-response","580","470576","0.0-1.0-807.0-0.0","0","0","72057","","null","","","null","89","","","","","","","","","","","","","","","",""
"","ITI","","html-keyboard-response","581","471579","0.0-1.0-810.0","0","0","72057","","null","","","null","89","","","","","","","","","","","","","","","NaN",""
"","S1","","html-keyboard-response","582","471831","0.0-1.0-812.0","0","0","72057","","null","","","null","90","","","","","","","","","","","","","","","",""
