"success","ttype","start_time","trial_type","trial_index","time_elapsed","internal_node_id","warning","missed_checkup","PID","view_history","rt","responses","repeat_instructions","key_press","index","keypress_isi","keypress_S2","block","trial_num","phase","group_type","pair_type","S1_stim","S2_stim","S1_img","S2_img","S1_chosen","S1_higher","accuracy","keypress_iti","total_bonus_tally"
"true","full_screen","d08052022hr1231","fullscreen","0","25005","0.0-0.0","0","0","81090","","","","","","","","","","","","","","","","","","","","","",""
"","instructions","","instructions","1","131457","0.0-1.0-0.0-0.0","0","0","81090","[{""page_index"":0,""viewing_time"":9305},{""page_index"":1,""viewing_time"":91437},{""page_index"":2,""viewing_time"":4388},{""page_index"":3,""viewing_time"":1315}]","106446","","","","","","","","","","","","","","","","","","","",""
"","comprehension_check","","survey-multi-choice","2","145536","0.0-1.0-0.0-1.0","0","0","81090","","14064","{""Q0"":""True"",""Q1"":""D"",""Q2"":""Only when the screen 'MAKE A CHOICE' is shown"",""Q3"":""Green mark"",""Q4"":""either D or K""}","1","","","","","","","","","","","","","","","","","",""
"","missed_instruction_checkup","","html-keyboard-response","3","146927","0.0-1.0-0.0-2.0-0.0","0","1","81090","","1382","","","32","","","","","","","","","","","","","","","","",""
"","instructions","","instructions","4","170675","0.0-1.0-0.1-0.1","0","0","81090","[{""page_index"":0,""viewing_time"":1882},{""page_index"":1,""viewing_time"":17717},{""page_index"":2,""viewing_time"":1365},{""page_index"":3,""viewing_time"":2779}]","23743","","","","","","","","","","","","","","","","","","","",""
"","comprehension_check","","survey-multi-choice","5","184542","0.0-1.0-0.1-1.1","0","0","81090","","13850","{""Q0"":""True"",""Q1"":""D"",""Q2"":""Once the second image appears and while the screen 'MAKE A CHOICE' is shown"",""Q3"":""Green mark"",""Q4"":""either D or K""}","0","","","","","","","","","","","","","","","","","",""
"","start_exp","","html-keyboard-response","6","185569","0.0-1.0-1.0","0","0","81090","","1016","","","32","","","","","","","","","","","","","","","","",""
"","S1","","html-keyboard-response","7","185833","0.0-1.0-2.0","0","0","81090","","null","","","null","0","","","","","","","","","","","","","","","",""
"","ISI","","html-keyboard-response","8","187851","0.0-1.0-3.0","0","0","81090","","null","","","null","0","NaN","","","","","","","","","","","","","","",""
"","S2","","html-keyboard-response","9","188113","0.0-1.0-4.0","0","0","81090","","null","","","null","0","","NaN","","","","","","","","","","","","","",""
"","response","","html-keyboard-response","10","189287","0.0-1.0-5.0-0.0","0","0","81090","","1164","","","68","0","","","1","0","training","adjacent","ED","5","4","R.jpg","M.jpg","1","0","0","",""
"","feedback","","html-keyboard-response","11","190298","0.0-1.0-6.0-0.0","0","0","81090","","null","","","null","0","","","","","","","","","","","","","","","",""
"","time_out","","html-keyboard-response","12","192304","0.0-1.0-8.0-0.0","0","0","81090","","null","","","null","0","","","","","","","","","","","","","","","",""
"","ITI","","html-keyboard-response","13","193310","0.0-1.0-9.0","0","0","81090","","null","","","null","0","","","","","","","","","","","","","","","NaN",""
"","S1","","html-keyboard-response","14","193570","0.0-1.0-11.0","0","0","81090","","null","","","null","1","","","","","","","","","","","","","","","",""
"","ISI","","html-keyboard-response","15","195578","0.0-1.0-12.0","0","0","81090","","null","","","null","1","NaN","","","","","","","","","","","","","","",""
"","S2","","html-keyboard-response","16","195834","0.0-1.0-13.0","0","0","81090","","null","","","null","1","","NaN","","","","","","","","","","","","","",""
"","response","","html-keyboard-response","17","196524","0.0-1.0-14.0-0.0","0","0","81090","","680","","","68","1","","","1","1","training","adjacent","DE","4","5","M.jpg","R.jpg","1","1","1","",""
"","feedback","","html-keyboard-response","18","197536","0.0-1.0-15.0-0.0","0","0","81090","","null","","","null","1","","","","","","","","","","","","","","","",""
"","ITI","","html-keyboard-response","19","198543","0.0-1.0-18.0","0","0","81090","","null","","","null","1","","","","","","","","","","","","","","","NaN",""
"","S1","","html-keyboard-response","20","198799","0.0-1.0-20.0","0","0","81090","","null","","","null","2","","","","","","","","","","","","","","","",""
"","ISI","","html-keyboard-response","21","200809","0.0-1.0-21.0","0","0","81090","","null","","","null","2","NaN","","","","","","","","","","","","","","",""
"","S2","","html-keyboard-response","22","201072","0.0-1.0-22.0","0","0","81090","","null","","","null","2","","NaN","","","","","","","","","","","","","",""
"","response","","html-keyboard-response","23","201929","0.0-1.0-23.0-0.0","0","0","81090","","844","","","75","2","","","1","2","training","adjacent","BC","2","3","N.jpg","L.jpg","0","1","0","",""
"","feedback","","html-keyboard-response","24","202941","0.0-1.0-24.0-0.0","0","0","81090","","null","","","null","2","","","","","","","","","","","","","","","",""
"","time_out","","html-keyboard-response","25","204952","0.0-1.0-26.0-0.0","0","0","81090","","null","","","null","2","","","","","","","","","","","","","","","",""
"","ITI","","html-keyboard-response","26","205963","0.0-1.0-27.0","0","0","81090","","null","","","null","2","","","","","","","","","","","","","","","NaN",""
"","S1","","html-keyboard-response","27","206229","0.0-1.0-29.0","0","0","81090","","null","","","null","3","","","","","","","","","","","","","","","",""
"","ISI","","html-keyboard-response","28","208240","0.0-1.0-30.0","0","0","81090","","null","","","null","3","NaN","","","","","","","","","","","","","","",""
"","S2","","html-keyboard-response","29","208496","0.0-1.0-31.0","0","0","81090","","null","","","null","3","","NaN","","","","","","","","","","","","","",""
"","response","","html-keyboard-response","30","209167","0.0-1.0-32.0-0.0","0","0","81090","","662","","","68","3","","","1","3","training","adjacent","BA","2","1","N.jpg","O.jpg","1","0","0","",""
"","feedback","","html-keyboard-response","31","210178","0.0-1.0-33.0-0.0","0","0","81090","","null","","","null","3","","","","","","","","","","","","","","","",""
"","time_out","","html-keyboard-response","32","212187","0.0-1.0-35.0-0.0","0","0","81090","","null","","","null","3","","","","","","","","","","","","","","","",""
"","ITI","","html-keyboard-response","33","213198","0.0-1.0-36.0","0","0","81090","","null","","","null","3","","","","","","","","","","","","","","","NaN",""
"","S1","","html-keyboard-response","34","213454","0.0-1.0-38.0","0","0","81090","","null","","","null","4","","","","","","","","","","","","","","","",""
"","ISI","","html-keyboard-response","35","215460","0.0-1.0-39.0","0","0","81090","","null","","","null","4","NaN","","","","","","","","","","","","","","",""
"","S2","","html-keyboard-response","36","215717","0.0-1.0-40.0","0","0","81090","","null","","","null","4","","NaN","","","","","","","","","","","","","",""
"","response","","html-keyboard-response","37","216564","0.0-1.0-41.0-0.0","0","0","81090","","839","","","75","4","","","1","4","training","adjacent","FG","6","7","Q.jpg","P.jpg","0","1","0","",""
"","feedback","","html-keyboard-response","38","217576","0.0-1.0-42.0-0.0","0","0","81090","","null","","","null","4","","","","","","","","","","","","","","","",""
"","time_out","","html-keyboard-response","39","219585","0.0-1.0-44.0-0.0","0","0","81090","","null","","","null","4","","","","","","","","","","","","","","","",""
"","ITI","","html-keyboard-response","40","220592","0.0-1.0-45.0","0","0","81090","","null","","","null","4","","","","","","","","","","","","","","","NaN",""
"","S1","","html-keyboard-response","41","220851","0.0-1.0-47.0","0","0","81090","","null","","","null","5","","","","","","","","","","","","","","","",""
"","ISI","","html-keyboard-response","42","222862","0.0-1.0-48.0","0","0","81090","","null","","","null","5","NaN","","","","","","","","","","","","","","",""
"","S2","","html-keyboard-response","43","223124","0.0-1.0-49.0","0","0","81090","","null","","","null","5","","NaN","","","","","","","","","","","","","",""
"","response","","html-keyboard-response","44","223643","0.0-1.0-50.0-0.0","0","0","81090","","508","","","68","5","","","1","5","training","adjacent","DC","4","3","M.jpg","L.jpg","1","0","0","",""
"","feedback","","html-keyboard-response","45","224655","0.0-1.0-51.0-0.0","0","0","81090","","null","","","null","5","","","","","","","","","","","","","","","",""
"","time_out","","html-keyboard-response","46","226667","0.0-1.0-53.0-0.0","0","0","81090","","null","","","null","5","","","","","","","","","","","","","","","",""
"","ITI","","html-keyboard-response","47","227677","0.0-1.0-54.0","0","0","81090","","null","","","null","5","","","","","","","","","","","","","","","NaN",""
"","S1","","html-keyboard-response","48","227940","0.0-1.0-56.0","0","0","81090","","null","","","null","6","","","","","","","","","","","","","","","",""
"","ISI","","html-keyboard-response","49","229950","0.0-1.0-57.0","0","0","81090","","null","","","null","6","NaN","","","","","","","","","","","","","","",""
"","S2","","html-keyboard-response","50","230214","0.0-1.0-58.0","0","0","81090","","null","","","null","6","","NaN","","","","","","","","","","","","","",""
"","response","","html-keyboard-response","51","231221","0.0-1.0-59.0-0.0","0","0","81090","","996","","","75","6","","","1","6","training","adjacent","CB","3","2","L.jpg","N.jpg","0","0","1","",""
"","feedback","","html-keyboard-response","52","232235","0.0-1.0-60.0-0.0","0","0","81090","","null","","","null","6","","","","","","","","","","","","","","","",""
"","ITI","","html-keyboard-response","53","233252","0.0-1.0-63.0","0","0","81090","","null","","","null","6","","","","","","","","","","","","","","","NaN",""
"","S1","","html-keyboard-response","54","233507","0.0-1.0-65.0","0","0","81090","","null","","","null","7","","","","","","","","","","","","","","","",""
"","ISI","","html-keyboard-response","55","235515","0.0-1.0-66.0","0","0","81090","","null","","","null","7","NaN","","","","","","","","","","","","","","",""
"","S2","","html-keyboard-response","56","235777","0.0-1.0-67.0","0","0","81090","","null","","","null","7","","NaN","","","","","","","","","","","","","",""
"","response","","html-keyboard-response","57","236422","0.0-1.0-68.0-0.0","0","0","81090","","639","","","68","7","","","1","7","training","adjacent","FE","6","5","Q.jpg","R.jpg","1","0","0","",""
"","feedback","","html-keyboard-response","58","237431","0.0-1.0-69.0-0.0","0","0","81090","","null","","","null","7","","","","","","","","","","","","","","","",""
"","time_out","","html-keyboard-response","59","239442","0.0-1.0-71.0-0.0","0","0","81090","","null","","","null","7","","","","","","","","","","","","","","","",""
"","ITI","","html-keyboard-response","60","240450","0.0-1.0-72.0","0","0","81090","","null","","","null","7","","","","","","","","","","","","","","","NaN",""
"","S1","","html-keyboard-response","61","240711","0.0-1.0-74.0","0","0","81090","","null","","","null","8","","","","","","","","","","","","","","","",""
"","ISI","","html-keyboard-response","62","242721","0.0-1.0-75.0","0","0","81090","","null","","","null","8","NaN","","","","","","","","","","","","","","",""
"","S2","","html-keyboard-response","63","242985","0.0-1.0-76.0","0","0","81090","","null","","","null","8","","NaN","","","","","","","","","","","","","",""
"","response","","html-keyboard-response","64","243694","0.0-1.0-77.0-0.0","0","0","81090","","697","","","75","8","","","1","8","training","adjacent","DC","4","3","M.jpg","L.jpg","0","0","1","",""
"","feedback","","html-keyboard-response","65","244706","0.0-1.0-78.0-0.0","0","0","81090","","null","","","null","8","","","","","","","","","","","","","","","",""
"","ITI","","html-keyboard-response","66","245718","0.0-1.0-81.0","0","0","81090","","null","","","null","8","","","","","","","","","","","","","","","NaN",""
"","S1","","html-keyboard-response","67","245984","0.0-1.0-83.0","0","0","81090","","null","","","null","9","","","","","","","","","","","","","","","",""
"","ISI","","html-keyboard-response","68","247994","0.0-1.0-84.0","0","0","81090","","null","","","null","9","NaN","","","","","","","","","","","","","","",""
"","S2","","html-keyboard-response","69","248259","0.0-1.0-85.0","0","0","81090","","null","","","null","9","","NaN","","","","","","","","","","","","","",""
"","response","","html-keyboard-response","70","249117","0.0-1.0-86.0-0.0","0","0","81090","","845","","","68","9","","","1","9","training","adjacent","BA","2","1","N.jpg","O.jpg","1","0","0","",""
"","feedback","","html-keyboard-response","71","250134","0.0-1.0-87.0-0.0","0","0","81090","","null","","","null","9","","","","","","","","","","","","","","","",""
"","time_out","","html-keyboard-response","72","252139","0.0-1.0-89.0-0.0","0","0","81090","","null","","","null","9","","","","","","","","","","","","","","","",""
"","ITI","","html-keyboard-response","73","253145","0.0-1.0-90.0","0","0","81090","","null","","","null","9","","","","","","","","","","","","","","","NaN",""
"","S1","","html-keyboard-response","74","253404","0.0-1.0-92.0","0","0","81090","","null","","","null","10","","","","","","","","","","","","","","","",""
"","ISI","","html-keyboard-response","75","255411","0.0-1.0-93.0","0","0","81090","","null","","","null","10","NaN","","","","","","","","","","","","","","",""
"","S2","","html-keyboard-response","76","255670","0.0-1.0-94.0","0","0","81090","","null","","","null","10","","NaN","","","","","","","","","","","","","",""
"","response","","html-keyboard-response","77","256235","0.0-1.0-95.0-0.0","0","0","81090","","554","","","75","10","","","1","10","training","adjacent","AB","1","2","O.jpg","N.jpg","0","1","0","",""
"","feedback","","html-keyboard-response","78","257246","0.0-1.0-96.0-0.0","0","0","81090","","null","","","null","10","","","","","","","","","","","","","","","",""
"","time_out","","html-keyboard-response","79","259253","0.0-1.0-98.0-0.0","0","0","81090","","null","","","null","10","","","","","","","","","","","","","","","",""
"","ITI","","html-keyboard-response","80","260261","0.0-1.0-99.0","0","0","81090","","null","","","null","10","","","","","","","","","","","","","","","NaN",""
"","S1","","html-keyboard-response","81","260521","0.0-1.0-101.0","0","0","81090","","null","","","null","11","","","","","","","","","","","","","","","",""
"","ISI","","html-keyboard-response","82","262528","0.0-1.0-102.0","0","0","81090","","null","","","null","11","NaN","","","","","","","","","","","","","","",""
"","S2","","html-keyboard-response","83","262789","0.0-1.0-103.0","0","0","81090","","null","","","null","11","","NaN","","","","","","","","","","","","","",""
"","response","","html-keyboard-response","84","263259","0.0-1.0-104.0-0.0","0","0","81090","","457","","","75","11","","","1","11","training","adjacent","DE","4","5","M.jpg","R.jpg","0","1","0","",""
"","feedback","","html-keyboard-response","85","264271","0.0-1.0-105.0-0.0","0","0","81090","","null","","","null","11","","","","","","","","","","","","","","","",""
"","time_out","","html-keyboard-response","86","266281","0.0-1.0-107.0-0.0","0","0","81090","","null","","","null","11","","","","","","","","","","","","","","","",""
"","ITI","","html-keyboard-response","87","267293","0.0-1.0-108.0","0","0","81090","","null","","","null","11","","","","","","","","","","","","","","","NaN",""
"","S1","","html-keyboard-response","88","267550","0.0-1.0-110.0","0","0","81090","","null","","","null","12","","","","","","","","","","","","","","","",""
"","ISI","","html-keyboard-response","89","269554","0.0-1.0-111.0","0","0","81090","","null","","","null","12","NaN","","","","","","","","","","","","","","",""
"","S2","","html-keyboard-response","90","269816","0.0-1.0-112.0","0","0","81090","","null","","","null","12","","NaN","","","","","","","","","","","","","",""
"","response","","html-keyboard-response","91","270258","0.0-1.0-113.0-0.0","0","0","81090","","433","","","68","12","","","1","12","training","adjacent","CB","3","2","L.jpg","N.jpg","1","0","0","",""
"","feedback","","html-keyboard-response","92","271267","0.0-1.0-114.0-0.0","0","0","81090","","null","","","null","12","","","","","","","","","","","","","","","",""
"","time_out","","html-keyboard-response","93","273272","0.0-1.0-116.0-0.0","0","0","81090","","null","","","null","12","","","","","","","","","","","","","","","",""
"","ITI","","html-keyboard-response","94","274282","0.0-1.0-117.0","0","0","81090","","null","","","null","12","","","","","","","","","","","","","","","NaN",""
"","S1","","html-keyboard-response","95","274542","0.0-1.0-119.0","0","0","81090","","null","","","null","13","","","","","","","","","","","","","","","",""
"","ISI","","html-keyboard-response","96","276552","0.0-1.0-120.0","0","0","81090","","null","","","null","13","NaN","","","","","","","","","","","","","","",""
"","S2","","html-keyboard-response","97","276815","0.0-1.0-121.0","0","0","81090","","null","","","null","13","","NaN","","","","","","","","","","","","","",""
"","response","","html-keyboard-response","98","277231","0.0-1.0-122.0-0.0","0","0","81090","","410","","","68","13","","","1","13","training","adjacent","ED","5","4","R.jpg","M.jpg","1","0","0","",""
"","feedback","","html-keyboard-response","99","278241","0.0-1.0-123.0-0.0","0","0","81090","","null","","","null","13","","","","","","","","","","","","","","","",""
"","time_out","","html-keyboard-response","100","280252","0.0-1.0-125.0-0.0","0","0","81090","","null","","","null","13","","","","","","","","","","","","","","","",""
"","ITI","","html-keyboard-response","101","281259","0.0-1.0-126.0","0","0","81090","","null","","","null","13","","","","","","","","","","","","","","","NaN",""
"","S1","","html-keyboard-response","102","281517","0.0-1.0-128.0","0","0","81090","","null","","","null","14","","","","","","","","","","","","","","","",""
"","ISI","","html-keyboard-response","103","283525","0.0-1.0-129.0","0","0","81090","","null","","","null","14","NaN","","","","","","","","","","","","","","",""
"","S2","","html-keyboard-response","104","283786","0.0-1.0-130.0","0","0","81090","","null","","","null","14","","NaN","","","","","","","","","","","","","",""
"","response","","html-keyboard-response","105","284497","0.0-1.0-131.0-0.0","0","0","81090","","701","","","68","14","","","1","14","training","adjacent","FG","6","7","Q.jpg","P.jpg","1","1","1","",""
"","feedback","","html-keyboard-response","106","285508","0.0-1.0-132.0-0.0","0","0","81090","","null","","","null","14","","","","","","","","","","","","","","","",""
"","ITI","","html-keyboard-response","107","286515","0.0-1.0-135.0","0","0","81090","","null","","","null","14","","","","","","","","","","","","","","","NaN",""
"","S1","","html-keyboard-response","108","286774","0.0-1.0-137.0","0","0","81090","","null","","","null","15","","","","","","","","","","","","","","","",""
"","ISI","","html-keyboard-response","109","288784","0.0-1.0-138.0","0","0","81090","","null","","","null","15","NaN","","","","","","","","","","","","","","",""
"","S2","","html-keyboard-response","110","289043","0.0-1.0-139.0","0","0","81090","","null","","","null","15","","NaN","","","","","","","","","","","","","",""
"","response","","html-keyboard-response","111","289761","0.0-1.0-140.0-0.0","0","0","81090","","714","","","75","15","","","1","15","training","adjacent","GF","7","6","P.jpg","Q.jpg","0","0","1","",""
"","feedback","","html-keyboard-response","112","290767","0.0-1.0-141.0-0.0","0","0","81090","","null","","","null","15","","","","","","","","","","","","","","","",""
"","ITI","","html-keyboard-response","113","291777","0.0-1.0-144.0","0","0","81090","","null","","","null","15","","","","","","","","","","","","","","","NaN",""
"","S1","","html-keyboard-response","114","292038","0.0-1.0-146.0","0","0","81090","","null","","","null","16","","","","","","","","","","","","","","","",""
"","ISI","","html-keyboard-response","115","294051","0.0-1.0-147.0","0","0","81090","","null","","","null","16","NaN","","","","","","","","","","","","","","",""
"","S2","","html-keyboard-response","116","294317","0.0-1.0-148.0","0","0","81090","","null","","","null","16","","NaN","","","","","","","","","","","","","",""
"","response","","html-keyboard-response","117","294935","0.0-1.0-149.0-0.0","0","0","81090","","613","","","75","16","","","1","16","training","adjacent","BC","2","3","N.jpg","L.jpg","0","1","0","",""
"","feedback","","html-keyboard-response","118","295946","0.0-1.0-150.0-0.0","0","0","81090","","null","","","null","16","","","","","","","","","","","","","","","",""
"","time_out","","html-keyboard-response","119","297957","0.0-1.0-152.0-0.0","0","0","81090","","null","","","null","16","","","","","","","","","","","","","","","",""
"","ITI","","html-keyboard-response","120","298963","0.0-1.0-153.0","0","0","81090","","null","","","null","16","","","","","","","","","","","","","","","NaN",""
"","S1","","html-keyboard-response","121","299224","0.0-1.0-155.0","0","0","81090","","null","","","null","17","","","","","","","","","","","","","","","",""
"","ISI","","html-keyboard-response","122","301233","0.0-1.0-156.0","0","0","81090","","null","","","null","17","NaN","","","","","","","","","","","","","","",""
"","S2","","html-keyboard-response","123","301490","0.0-1.0-157.0","0","0","81090","","null","","","null","17","","NaN","","","","","","","","","","","","","",""
"","response","","html-keyboard-response","124","302218","0.0-1.0-158.0-0.0","0","0","81090","","723","","","75","17","","","1","17","training","adjacent","FE","6","5","Q.jpg","R.jpg","0","0","1","",""
"","feedback","","html-keyboard-response","125","303228","0.0-1.0-159.0-0.0","0","0","81090","","null","","","null","17","","","","","","","","","","","","","","","",""
"","ITI","","html-keyboard-response","126","304238","0.0-1.0-162.0","0","0","81090","","null","","","null","17","","","","","","","","","","","","","","","NaN",""
"","S1","","html-keyboard-response","127","304494","0.0-1.0-164.0","0","0","81090","","null","","","null","18","","","","","","","","","","","","","","","",""
"","ISI","","html-keyboard-response","128","306499","0.0-1.0-165.0","0","0","81090","","null","","","null","18","NaN","","","","","","","","","","","","","","",""
"","S2","","html-keyboard-response","129","306759","0.0-1.0-166.0","0","0","81090","","null","","","null","18","","NaN","","","","","","","","","","","","","",""
"","response","","html-keyboard-response","130","307400","0.0-1.0-167.0-0.0","0","0","81090","","630","","","75","18","","","1","18","training","adjacent","BC","2","3","N.jpg","L.jpg","0","1","0","",""
"","feedback","","html-keyboard-response","131","308409","0.0-1.0-168.0-0.0","0","0","81090","","null","","","null","18","","","","","","","","","","","","","","","",""
"","time_out","","html-keyboard-response","132","310413","0.0-1.0-170.0-0.0","0","0","81090","","null","","","null","18","","","","","","","","","","","","","","","",""
"","ITI","","html-keyboard-response","133","311418","0.0-1.0-171.0","0","0","81090","","null","","","null","18","","","","","","","","","","","","","","","NaN",""
"","S1","","html-keyboard-response","134","311676","0.0-1.0-173.0","0","0","81090","","null","","","null","19","","","","","","","","","","","","","","","",""
"","ISI","","html-keyboard-response","135","313685","0.0-1.0-174.0","0","0","81090","","null","","","null","19","NaN","","","","","","","","","","","","","","",""
"","S2","","html-keyboard-response","136","313946","0.0-1.0-175.0","0","0","81090","","null","","","null","19","","NaN","","","","","","","","","","","","","",""
"","response","","html-keyboard-response","137","314349","0.0-1.0-176.0-0.0","0","0","81090","","397","","","75","19","","","1","19","training","adjacent","ED","5","4","R.jpg","M.jpg","0","0","1","",""
"","feedback","","html-keyboard-response","138","315360","0.0-1.0-177.0-0.0","0","0","81090","","null","","","null","19","","","","","","","","","","","","","","","",""
"","ITI","","html-keyboard-response","139","316369","0.0-1.0-180.0","0","0","81090","","null","","","null","19","","","","","","","","","","","","","","","NaN",""
"","S1","","html-keyboard-response","140","316627","0.0-1.0-182.0","0","0","81090","","null","","","null","20","","","","","","","","","","","","","","","",""
"","ISI","","html-keyboard-response","141","318635","0.0-1.0-183.0","0","0","81090","","null","","","null","20","NaN","","","","","","","","","","","","","","",""
"","S2","","html-keyboard-response","142","318896","0.0-1.0-184.0","0","0","81090","","null","","","null","20","","NaN","","","","","","","","","","","","","",""
"","response","","html-keyboard-response","143","319486","0.0-1.0-185.0-0.0","0","0","81090","","581","","","68","20","","","1","20","training","adjacent","CD","3","4","L.jpg","M.jpg","1","1","1","",""
"","feedback","","html-keyboard-response","144","320497","0.0-1.0-186.0-0.0","0","0","81090","","null","","","null","20","","","","","","","","","","","","","","","",""
"","ITI","","html-keyboard-response","145","321521","0.0-1.0-189.0","0","0","81090","","null","","","null","20","","","","","","","","","","","","","","","NaN",""
"","S1","","html-keyboard-response","146","321783","0.0-1.0-191.0","0","0","81090","","null","","","null","21","","","","","","","","","","","","","","","",""
"","ISI","","html-keyboard-response","147","323794","0.0-1.0-192.0","0","0","81090","","null","","","null","21","NaN","","","","","","","","","","","","","","",""
"","S2","","html-keyboard-response","148","324056","0.0-1.0-193.0","0","0","81090","","null","","","null","21","","NaN","","","","","","","","","","","","","",""
"","response","","html-keyboard-response","149","324902","0.0-1.0-194.0-0.0","0","0","81090","","835","","","68","21","","","1","21","training","adjacent","BC","2","3","N.jpg","L.jpg","1","1","1","",""
"","feedback","","html-keyboard-response","150","325915","0.0-1.0-195.0-0.0","0","0","81090","","null","","","null","21","","","","","","","","","","","","","","","",""
"","ITI","","html-keyboard-response","151","326926","0.0-1.0-198.0","0","0","81090","","null","","","null","21","","","","","","","","","","","","","","","NaN",""
"","S1","","html-keyboard-response","152","327187","0.0-1.0-200.0","0","0","81090","","null","","","null","22","","","","","","","","","","","","","","","",""
"","ISI","","html-keyboard-response","153","329199","0.0-1.0-201.0","0","0","81090","","null","","","null","22","NaN","","","","","","","","","","","","","","",""
"","S2","","html-keyboard-response","154","329461","0.0-1.0-202.0","0","0","81090","","null","","","null","22","","NaN","","","","","","","","","","","","","",""
"","response","","html-keyboard-response","155","329895","0.0-1.0-203.0-0.0","0","0","81090","","422","","","75","22","","","1","22","training","adjacent","FE","6","5","Q.jpg","R.jpg","0","0","1","",""
"","feedback","","html-keyboard-response","156","330907","0.0-1.0-204.0-0.0","0","0","81090","","null","","","null","22","","","","","","","","","","","","","","","",""
"","ITI","","html-keyboard-response","157","331917","0.0-1.0-207.0","0","0","81090","","null","","","null","22","","","","","","","","","","","","","","","NaN",""
"","S1","","html-keyboard-response","158","332188","0.0-1.0-209.0","0","0","81090","","null","","","null","23","","","","","","","","","","","","","","","",""
"","ISI","","html-keyboard-response","159","334193","0.0-1.0-210.0","0","0","81090","","null","","","null","23","NaN","","","","","","","","","","","","","","",""
"","S2","","html-keyboard-response","160","334452","0.0-1.0-211.0","0","0","81090","","null","","","null","23","","NaN","","","","","","","","","","","","","",""
"","response","","html-keyboard-response","161","335089","0.0-1.0-212.0-0.0","0","0","81090","","623","","","68","23","","","1","23","training","adjacent","DE","4","5","M.jpg","R.jpg","1","1","1","",""
"","feedback","","html-keyboard-response","162","336105","0.0-1.0-213.0-0.0","0","0","81090","","null","","","null","23","","","","","","","","","","","","","","","",""
"","ITI","","html-keyboard-response","163","337116","0.0-1.0-216.0","0","0","81090","","null","","","null","23","","","","","","","","","","","","","","","NaN",""
"","S1","","html-keyboard-response","164","337377","0.0-1.0-218.0","0","0","81090","","null","","","null","24","","","","","","","","","","","","","","","",""
"","ISI","","html-keyboard-response","165","339385","0.0-1.0-219.0","0","0","81090","","null","","","null","24","NaN","","","","","","","","","","","","","","",""
"","S2","","html-keyboard-response","166","339640","0.0-1.0-220.0","0","0","81090","","null","","","null","24","","NaN","","","","","","","","","","","","","",""
"","response","","html-keyboard-response","167","340260","0.0-1.0-221.0-0.0","0","0","81090","","615","","","68","24","","","1","24","training","adjacent","DC","4","3","M.jpg","L.jpg","1","0","0","",""
"","feedback","","html-keyboard-response","168","341271","0.0-1.0-222.0-0.0","0","0","81090","","null","","","null","24","","","","","","","","","","","","","","","",""
"","time_out","","html-keyboard-response","169","343281","0.0-1.0-224.0-0.0","0","0","81090","","null","","","null","24","","","","","","","","","","","","","","","",""
"","ITI","","html-keyboard-response","170","344297","0.0-1.0-225.0","0","0","81090","","null","","","null","24","","","","","","","","","","","","","","","NaN",""
"","S1","","html-keyboard-response","171","344556","0.0-1.0-227.0","0","0","81090","","null","","","null","25","","","","","","","","","","","","","","","",""
"","ISI","","html-keyboard-response","172","346565","0.0-1.0-228.0","0","0","81090","","null","","","null","25","NaN","","","","","","","","","","","","","","",""
"","S2","","html-keyboard-response","173","346823","0.0-1.0-229.0","0","0","81090","","null","","","null","25","","NaN","","","","","","","","","","","","","",""
"","response","","html-keyboard-response","174","347199","0.0-1.0-230.0-0.0","0","0","81090","","367","","","75","25","","","1","25","training","adjacent","EF","5","6","R.jpg","Q.jpg","0","1","0","",""
"","feedback","","html-keyboard-response","175","348213","0.0-1.0-231.0-0.0","0","0","81090","","null","","","null","25","","","","","","","","","","","","","","","",""
"","time_out","","html-keyboard-response","176","350228","0.0-1.0-233.0-0.0","0","0","81090","","null","","","null","25","","","","","","","","","","","","","","","",""
"","ITI","","html-keyboard-response","177","351244","0.0-1.0-234.0","0","0","81090","","null","","","null","25","","","","","","","","","","","","","","","NaN",""
"","S1","","html-keyboard-response","178","351505","0.0-1.0-236.0","0","0","81090","","null","","","null","26","","","","","","","","","","","","","","","",""
"","ISI","","html-keyboard-response","179","353515","0.0-1.0-237.0","0","0","81090","","null","","","null","26","NaN","","","","","","","","","","","","","","",""
"","S2","","html-keyboard-response","180","353779","0.0-1.0-238.0","0","0","81090","","null","","","null","26","","NaN","","","","","","","","","","","","","",""
"","response","","html-keyboard-response","181","354876","0.0-1.0-239.0-0.0","0","0","81090","","1086","","","68","26","","","1","26","training","adjacent","AB","1","2","O.jpg","N.jpg","1","1","1","",""
"","feedback","","html-keyboard-response","182","355890","0.0-1.0-240.0-0.0","0","0","81090","","null","","","null","26","","","","","","","","","","","","","","","",""
"","ITI","","html-keyboard-response","183","356903","0.0-1.0-243.0","0","0","81090","","null","","","null","26","","","","","","","","","","","","","","","NaN",""
"","S1","","html-keyboard-response","184","357164","0.0-1.0-245.0","0","0","81090","","null","","","null","27","","","","","","","","","","","","","","","",""
"","ISI","","html-keyboard-response","185","359175","0.0-1.0-246.0","0","0","81090","","null","","","null","27","NaN","","","","","","","","","","","","","","",""
"","S2","","html-keyboard-response","186","359435","0.0-1.0-247.0","0","0","81090","","null","","","null","27","","NaN","","","","","","","","","","","","","",""
"","response","","html-keyboard-response","187","359970","0.0-1.0-248.0-0.0","0","0","81090","","530","","","75","27","","","1","27","training","adjacent","GF","7","6","P.jpg","Q.jpg","0","0","1","",""
"","feedback","","html-keyboard-response","188","360978","0.0-1.0-249.0-0.0","0","0","81090","","null","","","null","27","","","","","","","","","","","","","","","",""
"","ITI","","html-keyboard-response","189","361989","0.0-1.0-252.0","0","0","81090","","null","","","null","27","","","","","","","","","","","","","","","NaN",""
"","S1","","html-keyboard-response","190","362247","0.0-1.0-254.0","0","0","81090","","null","","","null","28","","","","","","","","","","","","","","","",""
"","ISI","","html-keyboard-response","191","364254","0.0-1.0-255.0","0","0","81090","","null","","","null","28","NaN","","","","","","","","","","","","","","",""
"","S2","","html-keyboard-response","192","364516","0.0-1.0-256.0","0","0","81090","","null","","","null","28","","NaN","","","","","","","","","","","","","",""
"","response","","html-keyboard-response","193","366277","0.0-1.0-257.0-0.0","0","0","81090","","null","","","null","28","","","1","28","training","adjacent","CD","3","4","L.jpg","M.jpg","NaN","1","0","",""
"","too_slow_prompt","","html-keyboard-response","194","367288","0.0-1.0-259.0-0.0","1","0","81090","","null","","","null","","","","","","","","","","","","","","","","",""
"","time_out","","html-keyboard-response","195","369294","0.0-1.0-260.0-0.0","0","0","81090","","null","","","null","28","","","","","","","","","","","","","","","",""
"","ITI","","html-keyboard-response","196","370304","0.0-1.0-261.0","0","0","81090","","null","","","null","28","","","","","","","","","","","","","","","NaN",""
"","S1","","html-keyboard-response","197","370563","0.0-1.0-263.0","0","0","81090","","null","","","null","29","","","","","","","","","","","","","","","",""
"","ISI","","html-keyboard-response","198","372573","0.0-1.0-264.0","0","0","81090","","null","","","null","29","NaN","","","","","","","","","","","","","","",""
"","S2","","html-keyboard-response","199","372836","0.0-1.0-265.0","0","0","81090","","null","","","null","29","","NaN","","","","","","","","","","","","","",""
"","response","","html-keyboard-response","200","373459","0.0-1.0-266.0-0.0","0","0","81090","","615","","","75","29","","","1","29","training","adjacent","EF","5","6","R.jpg","Q.jpg","0","1","0","",""
"","feedback","","html-keyboard-response","201","374469","0.0-1.0-267.0-0.0","0","0","81090","","null","","","null","29","","","","","","","","","","","","","","","",""
"","time_out","","html-keyboard-response","202","376480","0.0-1.0-269.0-0.0","0","0","81090","","null","","","null","29","","","","","","","","","","","","","","","",""
"","ITI","","html-keyboard-response","203","377495","0.0-1.0-270.0","0","0","81090","","null","","","null","29","","","","","","","","","","","","","","","NaN",""
"","S1","","html-keyboard-response","204","377756","0.0-1.0-272.0","0","0","81090","","null","","","null","30","","","","","","","","","","","","","","","",""
"","ISI","","html-keyboard-response","205","379764","0.0-1.0-273.0","0","0","81090","","null","","","null","30","NaN","","","","","","","","","","","","","","",""
"","S2","","html-keyboard-response","206","380027","0.0-1.0-274.0","0","0","81090","","null","","","null","30","","NaN","","","","","","","","","","","","","",""
"","response","","html-keyboard-response","207","381012","0.0-1.0-275.0-0.0","0","0","81090","","975","","","68","30","","","1","30","training","adjacent","EF","5","6","R.jpg","Q.jpg","1","1","1","",""
"","feedback","","html-keyboard-response","208","382020","0.0-1.0-276.0-0.0","0","0","81090","","null","","","null","30","","","","","","","","","","","","","","","",""
"","ITI","","html-keyboard-response","209","383027","0.0-1.0-279.0","0","0","81090","","null","","","null","30","","","","","","","","","","","","","","","NaN",""
"","S1","","html-keyboard-response","210","383286","0.0-1.0-281.0","0","0","81090","","null","","","null","31","","","","","","","","","","","","","","","",""
"","ISI","","html-keyboard-response","211","385291","0.0-1.0-282.0","0","0","81090","","null","","","null","31","NaN","","","","","","","","","","","","","","",""
"","S2","","html-keyboard-response","212","385552","0.0-1.0-283.0","0","0","81090","","null","","","null","31","","NaN","","","","","","","","","","","","","",""
"","response","","html-keyboard-response","213","385944","0.0-1.0-284.0-0.0","0","0","81090","","382","","","75","31","","","1","31","training","adjacent","CD","3","4","L.jpg","M.jpg","0","1","0","",""
"","feedback","","html-keyboard-response","214","386958","0.0-1.0-285.0-0.0","0","0","81090","","null","","","null","31","","","","","","","","","","","","","","","",""
"","time_out","","html-keyboard-response","215","388972","0.0-1.0-287.0-0.0","0","0","81090","","null","","","null","31","","","","","","","","","","","","","","","",""
"","ITI","","html-keyboard-response","216","389989","0.0-1.0-288.0","0","0","81090","","null","","","null","31","","","","","","","","","","","","","","","NaN",""
"","S1","","html-keyboard-response","217","390246","0.0-1.0-290.0","0","0","81090","","null","","","null","32","","","","","","","","","","","","","","","",""
"","ISI","","html-keyboard-response","218","392258","0.0-1.0-291.0","0","0","81090","","null","","","null","32","NaN","","","","","","","","","","","","","","",""
"","S2","","html-keyboard-response","219","392521","0.0-1.0-292.0","0","0","81090","","null","","","null","32","","NaN","","","","","","","","","","","","","",""
"","response","","html-keyboard-response","220","394008","0.0-1.0-293.0-0.0","0","0","81090","","1476","","","75","32","","","1","32","training","adjacent","FG","6","7","Q.jpg","P.jpg","0","1","0","",""
"","feedback","","html-keyboard-response","221","395019","0.0-1.0-294.0-0.0","0","0","81090","","null","","","null","32","","","","","","","","","","","","","","","",""
"","time_out","","html-keyboard-response","222","397025","0.0-1.0-296.0-0.0","0","0","81090","","null","","","null","32","","","","","","","","","","","","","","","",""
"","ITI","","html-keyboard-response","223","398035","0.0-1.0-297.0","0","0","81090","","null","","","null","32","","","","","","","","","","","","","","","NaN",""
"","S1","","html-keyboard-response","224","398296","0.0-1.0-299.0","0","0","81090","","null","","","null","33","","","","","","","","","","","","","","","",""
"","ISI","","html-keyboard-response","225","400308","0.0-1.0-300.0","0","0","81090","","null","","","null","33","NaN","","","","","","","","","","","","","","",""
"","S2","","html-keyboard-response","226","400568","0.0-1.0-301.0","0","0","81090","","null","","","null","33","","NaN","","","","","","","","","","","","","",""
"","response","","html-keyboard-response","227","401155","0.0-1.0-302.0-0.0","0","0","81090","","581","","","68","33","","","1","33","training","adjacent","FG","6","7","Q.jpg","P.jpg","1","1","1","",""
"","feedback","","html-keyboard-response","228","402164","0.0-1.0-303.0-0.0","0","0","81090","","null","","","null","33","","","","","","","","","","","","","","","",""
"","ITI","","html-keyboard-response","229","403172","0.0-1.0-306.0","0","0","81090","","null","","","null","33","","","","","","","","","","","","","","","NaN",""
"","S1","","html-keyboard-response","230","403439","0.0-1.0-308.0","0","0","81090","","null","","","null","34","","","","","","","","","","","","","","","",""
"","ISI","","html-keyboard-response","231","405444","0.0-1.0-309.0","0","0","81090","","null","","","null","34","NaN","","","","","","","","","","","","","","",""
"","S2","","html-keyboard-response","232","405705","0.0-1.0-310.0","0","0","81090","","null","","","null","34","","NaN","","","","","","","","","","","","","",""
"","response","","html-keyboard-response","233","406469","0.0-1.0-311.0-0.0","0","0","81090","","757","","","75","34","","","1","34","training","adjacent","CD","3","4","L.jpg","M.jpg","0","1","0","",""
"","feedback","","html-keyboard-response","234","407474","0.0-1.0-312.0-0.0","0","0","81090","","null","","","null","34","","","","","","","","","","","","","","","",""
"","time_out","","html-keyboard-response","235","409484","0.0-1.0-314.0-0.0","0","0","81090","","null","","","null","34","","","","","","","","","","","","","","","",""
"","ITI","","html-keyboard-response","236","410489","0.0-1.0-315.0","0","0","81090","","null","","","null","34","","","","","","","","","","","","","","","NaN",""
"","S1","","html-keyboard-response","237","410750","0.0-1.0-317.0","0","0","81090","","null","","","null","35","","","","","","","","","","","","","","","",""
"","ISI","","html-keyboard-response","238","412759","0.0-1.0-318.0","0","0","81090","","null","","","null","35","NaN","","","","","","","","","","","","","","",""
"","S2","","html-keyboard-response","239","413020","0.0-1.0-319.0","0","0","81090","","null","","","null","35","","NaN","","","","","","","","","","","","","",""
"","response","","html-keyboard-response","240","413736","0.0-1.0-320.0-0.0","0","0","81090","","705","","","75","35","","","1","35","training","adjacent","CB","3","2","L.jpg","N.jpg","0","0","1","",""
"","feedback","","html-keyboard-response","241","414751","0.0-1.0-321.0-0.0","0","0","81090","","null","","","null","35","","","","","","","","","","","","","","","",""
"","ITI","","html-keyboard-response","242","415760","0.0-1.0-324.0","0","0","81090","","null","","","null","35","","","","","","","","","","","","","","","NaN",""
"","S1","","html-keyboard-response","243","416017","0.0-1.0-326.0","0","0","81090","","null","","","null","36","","","","","","","","","","","","","","","",""
"","ISI","","html-keyboard-response","244","418025","0.0-1.0-327.0","0","0","81090","","null","","","null","36","NaN","","","","","","","","","","","","","","",""
"","S2","","html-keyboard-response","245","418285","0.0-1.0-328.0","0","0","81090","","null","","","null","36","","NaN","","","","","","","","","","","","","",""
"","response","","html-keyboard-response","246","419186","0.0-1.0-329.0-0.0","0","0","81090","","895","","","75","36","","","1","36","training","adjacent","ED","5","4","R.jpg","M.jpg","0","0","1","",""
"","feedback","","html-keyboard-response","247","420196","0.0-1.0-330.0-0.0","0","0","81090","","null","","","null","36","","","","","","","","","","","","","","","",""
"","ITI","","html-keyboard-response","248","421208","0.0-1.0-333.0","0","0","81090","","null","","","null","36","","","","","","","","","","","","","","","NaN",""
"","S1","","html-keyboard-response","249","421467","0.0-1.0-335.0","0","0","81090","","null","","","null","37","","","","","","","","","","","","","","","",""
"","ISI","","html-keyboard-response","250","423478","0.0-1.0-336.0","0","0","81090","","null","","","null","37","NaN","","","","","","","","","","","","","","",""
"","S2","","html-keyboard-response","251","423742","0.0-1.0-337.0","0","0","81090","","null","","","null","37","","NaN","","","","","","","","","","","","","",""
"","response","","html-keyboard-response","252","424231","0.0-1.0-338.0-0.0","0","0","81090","","483","","","75","37","","","1","37","training","adjacent","GF","7","6","P.jpg","Q.jpg","0","0","1","",""
"","feedback","","html-keyboard-response","253","425241","0.0-1.0-339.0-0.0","0","0","81090","","null","","","null","37","","","","","","","","","","","","","","","",""
"","ITI","","html-keyboard-response","254","426262","0.0-1.0-342.0","0","0","81090","","null","","","null","37","","","","","","","","","","","","","","","NaN",""
"","S1","","html-keyboard-response","255","426522","0.0-1.0-344.0","0","0","81090","","null","","","null","38","","","","","","","","","","","","","","","",""
"","ISI","","html-keyboard-response","256","428532","0.0-1.0-345.0","0","0","81090","","null","","","null","38","NaN","","","","","","","","","","","","","","",""
"","S2","","html-keyboard-response","257","428795","0.0-1.0-346.0","0","0","81090","","null","","","null","38","","NaN","","","","","","","","","","","","","",""
"","response","","html-keyboard-response","258","429772","0.0-1.0-347.0-0.0","0","0","81090","","966","","","68","38","","","1","38","training","adjacent","AB","1","2","O.jpg","N.jpg","1","1","1","",""
"","feedback","","html-keyboard-response","259","430782","0.0-1.0-348.0-0.0","0","0","81090","","null","","","null","38","","","","","","","","","","","","","","","",""
"","ITI","","html-keyboard-response","260","431791","0.0-1.0-351.0","0","0","81090","","null","","","null","38","","","","","","","","","","","","","","","NaN",""
"","S1","","html-keyboard-response","261","432050","0.0-1.0-353.0","0","0","81090","","null","","","null","39","","","","","","","","","","","","","","","",""
"","ISI","","html-keyboard-response","262","434060","0.0-1.0-354.0","0","0","81090","","null","","","null","39","NaN","","","","","","","","","","","","","","",""
"","S2","","html-keyboard-response","263","434320","0.0-1.0-355.0","0","0","81090","","null","","","null","39","","NaN","","","","","","","","","","","","","",""
"","response","","html-keyboard-response","264","434718","0.0-1.0-356.0-0.0","0","0","81090","","387","","","75","39","","","1","39","training","adjacent","BA","2","1","N.jpg","O.jpg","0","0","1","",""
"","feedback","","html-keyboard-response","265","435732","0.0-1.0-357.0-0.0","0","0","81090","","null","","","null","39","","","","","","","","","","","","","","","",""
"","ITI","","html-keyboard-response","266","436745","0.0-1.0-360.0","0","0","81090","","null","","","null","39","","","","","","","","","","","","","","","NaN",""
"","S1","","html-keyboard-response","267","437011","0.0-1.0-362.0","0","0","81090","","null","","","null","40","","","","","","","","","","","","","","","",""
"","ISI","","html-keyboard-response","268","439018","0.0-1.0-363.0","0","0","81090","","null","","","null","40","NaN","","","","","","","","","","","","","","",""
"","S2","","html-keyboard-response","269","439281","0.0-1.0-364.0","0","0","81090","","null","","","null","40","","NaN","","","","","","","","","","","","","",""
"","response","","html-keyboard-response","270","439682","0.0-1.0-365.0-0.0","0","0","81090","","391","","","68","40","","","1","40","training","adjacent","FE","6","5","Q.jpg","R.jpg","1","0","0","",""
"","feedback","","html-keyboard-response","271","440697","0.0-1.0-366.0-0.0","0","0","81090","","null","","","null","40","","","","","","","","","","","","","","","",""
"","time_out","","html-keyboard-response","272","442705","0.0-1.0-368.0-0.0","0","0","81090","","null","","","null","40","","","","","","","","","","","","","","","",""
"","ITI","","html-keyboard-response","273","443716","0.0-1.0-369.0","0","0","81090","","null","","","null","40","","","","","","","","","","","","","","","NaN",""
"","S1","","html-keyboard-response","274","443978","0.0-1.0-371.0","0","0","81090","","null","","","null","41","","","","","","","","","","","","","","","",""
"","ISI","","html-keyboard-response","275","445989","0.0-1.0-372.0","0","0","81090","","null","","","null","41","NaN","","","","","","","","","","","","","","",""
"","S2","","html-keyboard-response","276","446251","0.0-1.0-373.0","0","0","81090","","null","","","null","41","","NaN","","","","","","","","","","","","","",""
"","response","","html-keyboard-response","277","446645","0.0-1.0-374.0-0.0","0","0","81090","","382","","","75","41","","","1","41","training","adjacent","DC","4","3","M.jpg","L.jpg","0","0","1","",""
"","feedback","","html-keyboard-response","278","447660","0.0-1.0-375.0-0.0","0","0","81090","","null","","","null","41","","","","","","","","","","","","","","","",""
"","ITI","","html-keyboard-response","279","448674","0.0-1.0-378.0","0","0","81090","","null","","","null","41","","","","","","","","","","","","","","","NaN",""
"","S1","","html-keyboard-response","280","448936","0.0-1.0-380.0","0","0","81090","","null","","","null","42","","","","","","","","","","","","","","","",""
"","ISI","","html-keyboard-response","281","450945","0.0-1.0-381.0","0","0","81090","","null","","","null","42","NaN","","","","","","","","","","","","","","",""
"","S2","","html-keyboard-response","282","451206","0.0-1.0-382.0","0","0","81090","","null","","","null","42","","NaN","","","","","","","","","","","","","",""
"","response","","html-keyboard-response","283","451734","0.0-1.0-383.0-0.0","0","0","81090","","518","","","68","42","","","1","42","training","adjacent","EF","5","6","R.jpg","Q.jpg","1","1","1","",""
"","feedback","","html-keyboard-response","284","452748","0.0-1.0-384.0-0.0","0","0","81090","","null","","","null","42","","","","","","","","","","","","","","","",""
"","ITI","","html-keyboard-response","285","453761","0.0-1.0-387.0","0","0","81090","","null","","","null","42","","","","","","","","","","","","","","","NaN",""
"","S1","","html-keyboard-response","286","454023","0.0-1.0-389.0","0","0","81090","","null","","","null","43","","","","","","","","","","","","","","","",""
"","ISI","","html-keyboard-response","287","456034","0.0-1.0-390.0","0","0","81090","","null","","","null","43","NaN","","","","","","","","","","","","","","",""
"","S2","","html-keyboard-response","288","456299","0.0-1.0-391.0","0","0","81090","","null","","","null","43","","NaN","","","","","","","","","","","","","",""
"","response","","html-keyboard-response","289","456929","0.0-1.0-392.0-0.0","0","0","81090","","618","","","75","43","","","1","43","training","adjacent","AB","1","2","O.jpg","N.jpg","0","1","0","",""
"","feedback","","html-keyboard-response","290","457944","0.0-1.0-393.0-0.0","0","0","81090","","null","","","null","43","","","","","","","","","","","","","","","",""
"","time_out","","html-keyboard-response","291","459955","0.0-1.0-395.0-0.0","0","0","81090","","null","","","null","43","","","","","","","","","","","","","","","",""
"","ITI","","html-keyboard-response","292","460971","0.0-1.0-396.0","0","0","81090","","null","","","null","43","","","","","","","","","","","","","","","NaN",""
"","S1","","html-keyboard-response","293","461235","0.0-1.0-398.0","0","0","81090","","null","","","null","44","","","","","","","","","","","","","","","",""
"","ISI","","html-keyboard-response","294","463243","0.0-1.0-399.0","0","0","81090","","null","","","null","44","NaN","","","","","","","","","","","","","","",""
"","S2","","html-keyboard-response","295","463498","0.0-1.0-400.0","0","0","81090","","null","","","null","44","","NaN","","","","","","","","","","","","","",""
"","response","","html-keyboard-response","296","463955","0.0-1.0-401.0-0.0","0","0","81090","","447","","","75","44","","","1","44","training","adjacent","GF","7","6","P.jpg","Q.jpg","0","0","1","",""
"","feedback","","html-keyboard-response","297","464988","0.0-1.0-402.0-0.0","0","0","81090","","null","","","null","44","","","","","","","","","","","","","","","",""
"","ITI","","html-keyboard-response","298","465997","0.0-1.0-405.0","0","0","81090","","null","","","null","44","","","","","","","","","","","","","","","NaN",""
"","S1","","html-keyboard-response","299","466257","0.0-1.0-407.0","0","0","81090","","null","","","null","45","","","","","","","","","","","","","","","",""
"","ISI","","html-keyboard-response","300","468266","0.0-1.0-408.0","0","0","81090","","null","","","null","45","NaN","","","","","","","","","","","","","","",""
"","S2","","html-keyboard-response","301","468523","0.0-1.0-409.0","0","0","81090","","null","","","null","45","","NaN","","","","","","","","","","","","","",""
"","response","","html-keyboard-response","302","469084","0.0-1.0-410.0-0.0","0","0","81090","","552","","","68","45","","","1","45","training","adjacent","CB","3","2","L.jpg","N.jpg","1","0","0","",""
"","feedback","","html-keyboard-response","303","470099","0.0-1.0-411.0-0.0","0","0","81090","","null","","","null","45","","","","","","","","","","","","","","","",""
"","time_out","","html-keyboard-response","304","472112","0.0-1.0-413.0-0.0","0","0","81090","","null","","","null","45","","","","","","","","","","","","","","","",""
"","ITI","","html-keyboard-response","305","473123","0.0-1.0-414.0","0","0","81090","","null","","","null","45","","","","","","","","","","","","","","","NaN",""
"","S1","","html-keyboard-response","306","473384","0.0-1.0-416.0","0","0","81090","","null","","","null","46","","","","","","","","","","","","","","","",""
"","ISI","","html-keyboard-response","307","475390","0.0-1.0-417.0","0","0","81090","","null","","","null","46","NaN","","","","","","","","","","","","","","",""
"","S2","","html-keyboard-response","308","475652","0.0-1.0-418.0","0","0","81090","","null","","","null","46","","NaN","","","","","","","","","","","","","",""
"","response","","html-keyboard-response","309","476136","0.0-1.0-419.0-0.0","0","0","81090","","474","","","75","46","","","1","46","training","adjacent","BA","2","1","N.jpg","O.jpg","0","0","1","",""
"","feedback","","html-keyboard-response","310","477146","0.0-1.0-420.0-0.0","0","0","81090","","null","","","null","46","","","","","","","","","","","","","","","",""
"","ITI","","html-keyboard-response","311","478155","0.0-1.0-423.0","0","0","81090","","null","","","null","46","","","","","","","","","","","","","","","NaN",""
"","S1","","html-keyboard-response","312","478420","0.0-1.0-425.0","0","0","81090","","null","","","null","47","","","","","","","","","","","","","","","",""
"","ISI","","html-keyboard-response","313","480429","0.0-1.0-426.0","0","0","81090","","null","","","null","47","NaN","","","","","","","","","","","","","","",""
"","S2","","html-keyboard-response","314","480691","0.0-1.0-427.0","0","0","81090","","null","","","null","47","","NaN","","","","","","","","","","","","","",""
"","response","","html-keyboard-response","315","481138","0.0-1.0-428.0-0.0","0","0","81090","","436","","","68","47","","","1","47","training","adjacent","DE","4","5","M.jpg","R.jpg","1","1","1","",""
"","feedback","","html-keyboard-response","316","482154","0.0-1.0-429.0-0.0","0","0","81090","","null","","","null","47","","","","","","","","","","","","","","","",""
"","ITI","","html-keyboard-response","317","483164","0.0-1.0-432.0","0","0","81090","","null","","","null","47","","","","","","","","","","","","","","","NaN",""
"","block_over","","html-keyboard-response","318","509696","0.0-1.0-433.0-0.0","0","0","81090","","26523","","","32","47","","","","","","","","","","","","","","","",""
"","S1","","html-keyboard-response","319","509959","0.0-1.0-434.0","0","0","81090","","null","","","null","48","","","","","","","","","","","","","","","",""
"","ISI","","html-keyboard-response","320","511974","0.0-1.0-435.0","0","0","81090","","null","","","null","48","NaN","","","","","","","","","","","","","","",""
"","S2","","html-keyboard-response","321","512238","0.0-1.0-436.0","0","0","81090","","null","","","null","48","","NaN","","","","","","","","","","","","","",""
"","response","","html-keyboard-response","322","513220","0.0-1.0-437.0-0.0","0","0","81090","","968","","","68","48","","","2","48","training","adjacent","AB","1","2","O.jpg","N.jpg","1","1","1","",""
"","feedback","","html-keyboard-response","323","514232","0.0-1.0-438.0-0.0","0","0","81090","","null","","","null","48","","","","","","","","","","","","","","","",""
"","ITI","","html-keyboard-response","324","515242","0.0-1.0-441.0","0","0","81090","","null","","","null","48","","","","","","","","","","","","","","","NaN",""
"","S1","","html-keyboard-response","325","515504","0.0-1.0-443.0","0","0","81090","","null","","","null","49","","","","","","","","","","","","","","","",""
"","ISI","","html-keyboard-response","326","517511","0.0-1.0-444.0","0","0","81090","","null","","","null","49","NaN","","","","","","","","","","","","","","",""
"","S2","","html-keyboard-response","327","517773","0.0-1.0-445.0","0","0","81090","","null","","","null","49","","NaN","","","","","","","","","","","","","",""
"","response","","html-keyboard-response","328","518169","0.0-1.0-446.0-0.0","0","0","81090","","384","","","68","49","","","2","49","training","adjacent","DE","4","5","M.jpg","R.jpg","1","1","1","",""
"","feedback","","html-keyboard-response","329","519184","0.0-1.0-447.0-0.0","0","0","81090","","null","","","null","49","","","","","","","","","","","","","","","",""
"","ITI","","html-keyboard-response","330","520198","0.0-1.0-450.0","0","0","81090","","null","","","null","49","","","","","","","","","","","","","","","NaN",""
"","S1","","html-keyboard-response","331","520456","0.0-1.0-452.0","0","0","81090","","null","","","null","50","","","","","","","","","","","","","","","",""
"","ISI","","html-keyboard-response","332","522465","0.0-1.0-453.0","0","0","81090","","null","","","null","50","NaN","","","","","","","","","","","","","","",""
"","S2","","html-keyboard-response","333","522730","0.0-1.0-454.0","0","0","81090","","null","","","null","50","","NaN","","","","","","","","","","","","","",""
"","response","","html-keyboard-response","334","523070","0.0-1.0-455.0-0.0","0","0","81090","","329","","","68","50","","","2","50","training","adjacent","FE","6","5","Q.jpg","R.jpg","1","0","0","",""
"","feedback","","html-keyboard-response","335","524085","0.0-1.0-456.0-0.0","0","0","81090","","null","","","null","50","","","","","","","","","","","","","","","",""
"","time_out","","html-keyboard-response","336","526100","0.0-1.0-458.0-0.0","0","0","81090","","null","","","null","50","","","","","","","","","","","","","","","",""
"","ITI","","html-keyboard-response","337","527119","0.0-1.0-459.0","0","0","81090","","null","","","null","50","","","","","","","","","","","","","","","NaN",""
"","S1","","html-keyboard-response","338","527374","0.0-1.0-461.0","0","0","81090","","null","","","null","51","","","","","","","","","","","","","","","",""
"","ISI","","html-keyboard-response","339","529379","0.0-1.0-462.0","0","0","81090","","null","","","null","51","NaN","","","","","","","","","","","","","","",""
"","S2","","html-keyboard-response","340","529638","0.0-1.0-463.0","0","0","81090","","null","","","null","51","","NaN","","","","","","","","","","","","","",""
"","response","","html-keyboard-response","341","530118","0.0-1.0-464.0-0.0","0","0","81090","","469","","","75","51","","","2","51","training","adjacent","BA","2","1","N.jpg","O.jpg","0","0","1","",""
"","feedback","","html-keyboard-response","342","531133","0.0-1.0-465.0-0.0","0","0","81090","","null","","","null","51","","","","","","","","","","","","","","","",""
"","ITI","","html-keyboard-response","343","532146","0.0-1.0-468.0","0","0","81090","","null","","","null","51","","","","","","","","","","","","","","","NaN",""
"","S1","","html-keyboard-response","344","532408","0.0-1.0-470.0","0","0","81090","","null","","","null","52","","","","","","","","","","","","","","","",""
"","ISI","","html-keyboard-response","345","534418","0.0-1.0-471.0","0","0","81090","","null","","","null","52","NaN","","","","","","","","","","","","","","",""
"","S2","","html-keyboard-response","346","534682","0.0-1.0-472.0","0","0","81090","","null","","","null","52","","NaN","","","","","","","","","","","","","",""
"","response","","html-keyboard-response","347","534944","0.0-1.0-473.0-0.0","0","0","81090","","250","","","75","52","","","2","52","training","adjacent","BC","2","3","N.jpg","L.jpg","0","1","0","",""
"","feedback","","html-keyboard-response","348","535959","0.0-1.0-474.0-0.0","0","0","81090","","null","","","null","52","","","","","","","","","","","","","","","",""
"","time_out","","html-keyboard-response","349","537969","0.0-1.0-476.0-0.0","0","0","81090","","null","","","null","52","","","","","","","","","","","","","","","",""
"","ITI","","html-keyboard-response","350","538980","0.0-1.0-477.0","0","0","81090","","null","","","null","52","","","","","","","","","","","","","","","NaN",""
"","S1","","html-keyboard-response","351","539239","0.0-1.0-479.0","0","0","81090","","null","","","null","53","","","","","","","","","","","","","","","",""
"","ISI","","html-keyboard-response","352","541244","0.0-1.0-480.0","0","0","81090","","null","","","null","53","NaN","","","","","","","","","","","","","","",""
"","S2","","html-keyboard-response","353","541501","0.0-1.0-481.0","0","0","81090","","null","","","null","53","","NaN","","","","","","","","","","","","","",""
"","response","","html-keyboard-response","354","542002","0.0-1.0-482.0-0.0","0","0","81090","","484","","","68","53","","","2","53","training","adjacent","AB","1","2","O.jpg","N.jpg","1","1","1","",""
"","feedback","","html-keyboard-response","355","543013","0.0-1.0-483.0-0.0","0","0","81090","","null","","","null","53","","","","","","","","","","","","","","","",""
"","ITI","","html-keyboard-response","356","544040","0.0-1.0-486.0","0","0","81090","","null","","","null","53","","","","","","","","","","","","","","","NaN",""
"","S1","","html-keyboard-response","357","544304","0.0-1.0-488.0","0","0","81090","","null","","","null","54","","","","","","","","","","","","","","","",""
"","ISI","","html-keyboard-response","358","546312","0.0-1.0-489.0","0","0","81090","","null","","","null","54","NaN","","","","","","","","","","","","","","",""
"","S2","","html-keyboard-response","359","546572","0.0-1.0-490.0","0","0","81090","","null","","","null","54","","NaN","","","","","","","","","","","","","",""
"","response","","html-keyboard-response","360","547109","0.0-1.0-491.0-0.0","0","0","81090","","528","","","75","54","","","2","54","training","adjacent","GF","7","6","P.jpg","Q.jpg","0","0","1","",""
"","feedback","","html-keyboard-response","361","548120","0.0-1.0-492.0-0.0","0","0","81090","","null","","","null","54","","","","","","","","","","","","","","","",""
"","ITI","","html-keyboard-response","362","549133","0.0-1.0-495.0","0","0","81090","","null","","","null","54","","","","","","","","","","","","","","","NaN",""
"","S1","","html-keyboard-response","363","549396","0.0-1.0-497.0","0","0","81090","","null","","","null","55","","","","","","","","","","","","","","","",""
"","ISI","","html-keyboard-response","364","551406","0.0-1.0-498.0","0","0","81090","","null","","","null","55","NaN","","","","","","","","","","","","","","",""
"","S2","","html-keyboard-response","365","551667","0.0-1.0-499.0","0","0","81090","","null","","","null","55","","NaN","","","","","","","","","","","","","",""
"","response","","html-keyboard-response","366","552118","0.0-1.0-500.0-0.0","0","0","81090","","439","","","75","55","","","2","55","training","adjacent","FE","6","5","Q.jpg","R.jpg","0","0","1","",""
"","feedback","","html-keyboard-response","367","553131","0.0-1.0-501.0-0.0","0","0","81090","","null","","","null","55","","","","","","","","","","","","","","","",""
"","ITI","","html-keyboard-response","368","554144","0.0-1.0-504.0","0","0","81090","","null","","","null","55","","","","","","","","","","","","","","","NaN",""
"","S1","","html-keyboard-response","369","554406","0.0-1.0-506.0","0","0","81090","","null","","","null","56","","","","","","","","","","","","","","","",""
"","ISI","","html-keyboard-response","370","556418","0.0-1.0-507.0","0","0","81090","","null","","","null","56","NaN","","","","","","","","","","","","","","",""
"","S2","","html-keyboard-response","371","556680","0.0-1.0-508.0","0","0","81090","","null","","","null","56","","NaN","","","","","","","","","","","","","",""
"","response","","html-keyboard-response","372","557192","0.0-1.0-509.0-0.0","0","0","81090","","500","","","68","56","","","2","56","training","adjacent","DC","4","3","M.jpg","L.jpg","1","0","0","",""
"","feedback","","html-keyboard-response","373","558202","0.0-1.0-510.0-0.0","0","0","81090","","null","","","null","56","","","","","","","","","","","","","","","",""
"","time_out","","html-keyboard-response","374","560211","0.0-1.0-512.0-0.0","0","0","81090","","null","","","null","56","","","","","","","","","","","","","","","",""
"","ITI","","html-keyboard-response","375","561219","0.0-1.0-513.0","0","0","81090","","null","","","null","56","","","","","","","","","","","","","","","NaN",""
"","S1","","html-keyboard-response","376","561478","0.0-1.0-515.0","0","0","81090","","null","","","null","57","","","","","","","","","","","","","","","",""
"","ISI","","html-keyboard-response","377","563486","0.0-1.0-516.0","0","0","81090","","554","","","75","57","k","","","","","","","","","","","","","","",""
"","S2","","html-keyboard-response","378","563749","0.0-1.0-517.0","0","0","81090","","null","","","null","57","","NaN","","","","","","","","","","","","","",""
"","response","","html-keyboard-response","379","563873","0.0-1.0-518.0-0.0","0","0","81090","","115","","","75","57","","","2","57","training","adjacent","CB","3","2","L.jpg","N.jpg","0","0","1","",""
"","feedback","","html-keyboard-response","380","564884","0.0-1.0-519.0-0.0","0","0","81090","","null","","","null","57","","","","","","","","","","","","","","","",""
"","ITI","","html-keyboard-response","381","565900","0.0-1.0-522.0","0","0","81090","","null","","","null","57","","","","","","","","","","","","","","","NaN",""
"","S1","","html-keyboard-response","382","566160","0.0-1.0-524.0","0","0","81090","","null","","","null","58","","","","","","","","","","","","","","","",""
"","ISI","","html-keyboard-response","383","568166","0.0-1.0-525.0","0","0","81090","","null","","","null","58","NaN","","","","","","","","","","","","","","",""
"","S2","","html-keyboard-response","384","568425","0.0-1.0-526.0","0","0","81090","","null","","","null","58","","NaN","","","","","","","","","","","","","",""
"","response","","html-keyboard-response","385","569194","0.0-1.0-527.0-0.0","0","0","81090","","759","","","68","58","","","2","58","training","adjacent","CD","3","4","L.jpg","M.jpg","1","1","1","",""
"","feedback","","html-keyboard-response","386","570203","0.0-1.0-528.0-0.0","0","0","81090","","null","","","null","58","","","","","","","","","","","","","","","",""
"","ITI","","html-keyboard-response","387","571215","0.0-1.0-531.0","0","0","81090","","null","","","null","58","","","","","","","","","","","","","","","NaN",""
"","S1","","html-keyboard-response","388","571476","0.0-1.0-533.0","0","0","81090","","null","","","null","59","","","","","","","","","","","","","","","",""
"","ISI","","html-keyboard-response","389","573487","0.0-1.0-534.0","0","0","81090","","null","","","null","59","NaN","","","","","","","","","","","","","","",""
"","S2","","html-keyboard-response","390","573751","0.0-1.0-535.0","0","0","81090","","null","","","null","59","","NaN","","","","","","","","","","","","","",""
"","response","","html-keyboard-response","391","574031","0.0-1.0-536.0-0.0","0","0","81090","","271","","","75","59","","","2","59","training","adjacent","ED","5","4","R.jpg","M.jpg","0","0","1","",""
"","feedback","","html-keyboard-response","392","575041","0.0-1.0-537.0-0.0","0","0","81090","","null","","","null","59","","","","","","","","","","","","","","","",""
"","ITI","","html-keyboard-response","393","576053","0.0-1.0-540.0","0","0","81090","","null","","","null","59","","","","","","","","","","","","","","","NaN",""
"","S1","","html-keyboard-response","394","576315","0.0-1.0-542.0","0","0","81090","","null","","","null","60","","","","","","","","","","","","","","","",""
"","ISI","","html-keyboard-response","395","578322","0.0-1.0-543.0","0","0","81090","","null","","","null","60","NaN","","","","","","","","","","","","","","",""
"","S2","","html-keyboard-response","396","578582","0.0-1.0-544.0","0","0","81090","","null","","","null","60","","NaN","","","","","","","","","","","","","",""
"","response","","html-keyboard-response","397","578957","0.0-1.0-545.0-0.0","0","0","81090","","363","","","68","60","","","2","60","training","adjacent","BC","2","3","N.jpg","L.jpg","1","1","1","",""
"","feedback","","html-keyboard-response","398","579979","0.0-1.0-546.0-0.0","0","0","81090","","null","","","null","60","","","","","","","","","","","","","","","",""
"","ITI","","html-keyboard-response","399","580992","0.0-1.0-549.0","0","0","81090","","null","","","null","60","","","","","","","","","","","","","","","NaN",""
"","S1","","html-keyboard-response","400","581257","0.0-1.0-551.0","0","0","81090","","null","","","null","61","","","","","","","","","","","","","","","",""
"","ISI","","html-keyboard-response","401","583277","0.0-1.0-552.0","0","0","81090","","null","","","null","61","NaN","","","","","","","","","","","","","","",""
"","S2","","html-keyboard-response","402","583534","0.0-1.0-553.0","0","0","81090","","null","","","null","61","","NaN","","","","","","","","","","","","","",""
"","response","","html-keyboard-response","403","583914","0.0-1.0-554.0-0.0","0","0","81090","","370","","","68","61","","","2","61","training","adjacent","CD","3","4","L.jpg","M.jpg","1","1","1","",""
"","feedback","","html-keyboard-response","404","584929","0.0-1.0-555.0-0.0","0","0","81090","","null","","","null","61","","","","","","","","","","","","","","","",""
"","ITI","","html-keyboard-response","405","585938","0.0-1.0-558.0","0","0","81090","","null","","","null","61","","","","","","","","","","","","","","","NaN",""
"","S1","","html-keyboard-response","406","586195","0.0-1.0-560.0","0","0","81090","","null","","","null","62","","","","","","","","","","","","","","","",""
"","ISI","","html-keyboard-response","407","588203","0.0-1.0-561.0","0","0","81090","","null","","","null","62","NaN","","","","","","","","","","","","","","",""
"","S2","","html-keyboard-response","408","588462","0.0-1.0-562.0","0","0","81090","","null","","","null","62","","NaN","","","","","","","","","","","","","",""
"","response","","html-keyboard-response","409","588872","0.0-1.0-563.0-0.0","0","0","81090","","400","","","68","62","","","2","62","training","adjacent","EF","5","6","R.jpg","Q.jpg","1","1","1","",""
"","feedback","","html-keyboard-response","410","589885","0.0-1.0-564.0-0.0","0","0","81090","","null","","","null","62","","","","","","","","","","","","","","","",""
"","ITI","","html-keyboard-response","411","590898","0.0-1.0-567.0","0","0","81090","","null","","","null","62","","","","","","","","","","","","","","","NaN",""
"","S1","","html-keyboard-response","412","591162","0.0-1.0-569.0","0","0","81090","","null","","","null","63","","","","","","","","","","","","","","","",""
"","ISI","","html-keyboard-response","413","593171","0.0-1.0-570.0","0","0","81090","","null","","","null","63","NaN","","","","","","","","","","","","","","",""
"","S2","","html-keyboard-response","414","593429","0.0-1.0-571.0","0","0","81090","","null","","","null","63","","NaN","","","","","","","","","","","","","",""
"","response","","html-keyboard-response","415","593779","0.0-1.0-572.0-0.0","0","0","81090","","340","","","75","63","","","2","63","training","adjacent","FG","6","7","Q.jpg","P.jpg","0","1","0","",""
"","feedback","","html-keyboard-response","416","594794","0.0-1.0-573.0-0.0","0","0","81090","","null","","","null","63","","","","","","","","","","","","","","","",""
"","time_out","","html-keyboard-response","417","596808","0.0-1.0-575.0-0.0","0","0","81090","","null","","","null","63","","","","","","","","","","","","","","","",""
"","ITI","","html-keyboard-response","418","597820","0.0-1.0-576.0","0","0","81090","","null","","","null","63","","","","","","","","","","","","","","","NaN",""
"","S1","","html-keyboard-response","419","598084","0.0-1.0-578.0","0","0","81090","","null","","","null","64","","","","","","","","","","","","","","","",""
"","ISI","","html-keyboard-response","420","600100","0.0-1.0-579.0","0","0","81090","","null","","","null","64","NaN","","","","","","","","","","","","","","",""
"","S2","","html-keyboard-response","421","600361","0.0-1.0-580.0","0","0","81090","","null","","","null","64","","NaN","","","","","","","","","","","","","",""
"","response","","html-keyboard-response","422","600590","0.0-1.0-581.0-0.0","0","0","81090","","220","","","75","64","","","2","64","training","adjacent","CD","3","4","L.jpg","M.jpg","0","1","0","",""
"","feedback","","html-keyboard-response","423","601607","0.0-1.0-582.0-0.0","0","0","81090","","null","","","null","64","","","","","","","","","","","","","","","",""
"","time_out","","html-keyboard-response","424","603635","0.0-1.0-584.0-0.0","0","0","81090","","null","","","null","64","","","","","","","","","","","","","","","",""
"","ITI","","html-keyboard-response","425","604644","0.0-1.0-585.0","0","0","81090","","null","","","null","64","","","","","","","","","","","","","","","NaN",""
"","S1","","html-keyboard-response","426","604904","0.0-1.0-587.0","0","0","81090","","null","","","null","65","","","","","","","","","","","","","","","",""
"","ISI","","html-keyboard-response","427","606910","0.0-1.0-588.0","0","0","81090","","null","","","null","65","NaN","","","","","","","","","","","","","","",""
"","S2","","html-keyboard-response","428","607170","0.0-1.0-589.0","0","0","81090","","null","","","null","65","","NaN","","","","","","","","","","","","","",""
"","response","","html-keyboard-response","429","607369","0.0-1.0-590.0-0.0","0","0","81090","","191","","","68","65","","","2","65","training","adjacent","DE","4","5","M.jpg","R.jpg","1","1","1","",""
"","feedback","","html-keyboard-response","430","608380","0.0-1.0-591.0-0.0","0","0","81090","","null","","","null","65","","","","","","","","","","","","","","","",""
"","ITI","","html-keyboard-response","431","609397","0.0-1.0-594.0","0","0","81090","","null","","","null","65","","","","","","","","","","","","","","","NaN",""
"","S1","","html-keyboard-response","432","609659","0.0-1.0-596.0","0","0","81090","","null","","","null","66","","","","","","","","","","","","","","","",""
"","ISI","","html-keyboard-response","433","611666","0.0-1.0-597.0","0","0","81090","","null","","","null","66","NaN","","","","","","","","","","","","","","",""
"","S2","","html-keyboard-response","434","611926","0.0-1.0-598.0","0","0","81090","","null","","","null","66","","NaN","","","","","","","","","","","","","",""
"","response","","html-keyboard-response","435","613244","0.0-1.0-599.0-0.0","0","0","81090","","1309","","","68","66","","","2","66","training","adjacent","FG","6","7","Q.jpg","P.jpg","1","1","1","",""
"","feedback","","html-keyboard-response","436","614257","0.0-1.0-600.0-0.0","0","0","81090","","null","","","null","66","","","","","","","","","","","","","","","",""
"","ITI","","html-keyboard-response","437","615268","0.0-1.0-603.0","0","0","81090","","null","","","null","66","","","","","","","","","","","","","","","NaN",""
"","S1","","html-keyboard-response","438","615523","0.0-1.0-605.0","0","0","81090","","null","","","null","67","","","","","","","","","","","","","","","",""
"","ISI","","html-keyboard-response","439","617531","0.0-1.0-606.0","0","0","81090","","null","","","null","67","NaN","","","","","","","","","","","","","","",""
"","S2","","html-keyboard-response","440","617790","0.0-1.0-607.0","0","0","81090","","null","","","null","67","","NaN","","","","","","","","","","","","","",""
"","response","","html-keyboard-response","441","618493","0.0-1.0-608.0-0.0","0","0","81090","","696","","","68","67","","","2","67","training","adjacent","CD","3","4","L.jpg","M.jpg","1","1","1","",""
"","feedback","","html-keyboard-response","442","619503","0.0-1.0-609.0-0.0","0","0","81090","","null","","","null","67","","","","","","","","","","","","","","","",""
"","ITI","","html-keyboard-response","443","620513","0.0-1.0-612.0","0","0","81090","","null","","","null","67","","","","","","","","","","","","","","","NaN",""
"","S1","","html-keyboard-response","444","620776","0.0-1.0-614.0","0","0","81090","","null","","","null","68","","","","","","","","","","","","","","","",""
"","ISI","","html-keyboard-response","445","622787","0.0-1.0-615.0","0","0","81090","","null","","","null","68","NaN","","","","","","","","","","","","","","",""
"","S2","","html-keyboard-response","446","623046","0.0-1.0-616.0","0","0","81090","","null","","","null","68","","NaN","","","","","","","","","","","","","",""
"","response","","html-keyboard-response","447","623583","0.0-1.0-617.0-0.0","0","0","81090","","528","","","68","68","","","2","68","training","adjacent","FG","6","7","Q.jpg","P.jpg","1","1","1","",""
"","feedback","","html-keyboard-response","448","624599","0.0-1.0-618.0-0.0","0","0","81090","","null","","","null","68","","","","","","","","","","","","","","","",""
"","ITI","","html-keyboard-response","449","625610","0.0-1.0-621.0","0","0","81090","","null","","","null","68","","","","","","","","","","","","","","","NaN",""
"","S1","","html-keyboard-response","450","625873","0.0-1.0-623.0","0","0","81090","","null","","","null","69","","","","","","","","","","","","","","","",""
"","ISI","","html-keyboard-response","451","627880","0.0-1.0-624.0","0","0","81090","","null","","","null","69","NaN","","","","","","","","","","","","","","",""
"","S2","","html-keyboard-response","452","628137","0.0-1.0-625.0","0","0","81090","","null","","","null","69","","NaN","","","","","","","","","","","","","",""
"","response","","html-keyboard-response","453","628709","0.0-1.0-626.0-0.0","0","0","81090","","565","","","75","69","","","2","69","training","adjacent","AB","1","2","O.jpg","N.jpg","0","1","0","",""
"","feedback","","html-keyboard-response","454","629719","0.0-1.0-627.0-0.0","0","0","81090","","null","","","null","69","","","","","","","","","","","","","","","",""
"","time_out","","html-keyboard-response","455","631727","0.0-1.0-629.0-0.0","0","0","81090","","null","","","null","69","","","","","","","","","","","","","","","",""
"","ITI","","html-keyboard-response","456","632736","0.0-1.0-630.0","0","0","81090","","null","","","null","69","","","","","","","","","","","","","","","NaN",""
"","S1","","html-keyboard-response","457","632997","0.0-1.0-632.0","0","0","81090","","null","","","null","70","","","","","","","","","","","","","","","",""
"","ISI","","html-keyboard-response","458","635003","0.0-1.0-633.0","0","0","81090","","null","","","null","70","NaN","","","","","","","","","","","","","","",""
"","S2","","html-keyboard-response","459","635260","0.0-1.0-634.0","0","0","81090","","null","","","null","70","","NaN","","","","","","","","","","","","","",""
"","response","","html-keyboard-response","460","635711","0.0-1.0-635.0-0.0","0","0","81090","","441","","","75","70","","","2","70","training","adjacent","ED","5","4","R.jpg","M.jpg","0","0","1","",""
"","feedback","","html-keyboard-response","461","636727","0.0-1.0-636.0-0.0","0","0","81090","","null","","","null","70","","","","","","","","","","","","","","","",""
"","ITI","","html-keyboard-response","462","637741","0.0-1.0-639.0","0","0","81090","","null","","","null","70","","","","","","","","","","","","","","","NaN",""
"","S1","","html-keyboard-response","463","638007","0.0-1.0-641.0","0","0","81090","","null","","","null","71","","","","","","","","","","","","","","","",""
"","ISI","","html-keyboard-response","464","640015","0.0-1.0-642.0","0","0","81090","","null","","","null","71","NaN","","","","","","","","","","","","","","",""
"","S2","","html-keyboard-response","465","640274","0.0-1.0-643.0","0","0","81090","","null","","","null","71","","NaN","","","","","","","","","","","","","",""
"","response","","html-keyboard-response","466","640727","0.0-1.0-644.0-0.0","0","0","81090","","439","","","68","71","","","2","71","training","adjacent","CB","3","2","L.jpg","N.jpg","1","0","0","",""
"","feedback","","html-keyboard-response","467","641742","0.0-1.0-645.0-0.0","0","0","81090","","null","","","null","71","","","","","","","","","","","","","","","",""
"","time_out","","html-keyboard-response","468","643755","0.0-1.0-647.0-0.0","0","0","81090","","null","","","null","71","","","","","","","","","","","","","","","",""
"","ITI","","html-keyboard-response","469","644767","0.0-1.0-648.0","0","0","81090","","null","","","null","71","","","","","","","","","","","","","","","NaN",""
"","S1","","html-keyboard-response","470","645030","0.0-1.0-650.0","0","0","81090","","null","","","null","72","","","","","","","","","","","","","","","",""
"","ISI","","html-keyboard-response","471","647037","0.0-1.0-651.0","0","0","81090","","null","","","null","72","NaN","","","","","","","","","","","","","","",""
"","S2","","html-keyboard-response","472","647295","0.0-1.0-652.0","0","0","81090","","null","","","null","72","","NaN","","","","","","","","","","","","","",""
"","response","","html-keyboard-response","473","647476","0.0-1.0-653.0-0.0","0","0","81090","","171","","","68","72","","","2","72","training","adjacent","DC","4","3","M.jpg","L.jpg","1","0","0","",""
"","feedback","","html-keyboard-response","474","648489","0.0-1.0-654.0-0.0","0","0","81090","","null","","","null","72","","","","","","","","","","","","","","","",""
"","time_out","","html-keyboard-response","475","650499","0.0-1.0-656.0-0.0","0","0","81090","","null","","","null","72","","","","","","","","","","","","","","","",""
"","ITI","","html-keyboard-response","476","651506","0.0-1.0-657.0","0","0","81090","","null","","","null","72","","","","","","","","","","","","","","","NaN",""
"","S1","","html-keyboard-response","477","651766","0.0-1.0-659.0","0","0","81090","","null","","","null","73","","","","","","","","","","","","","","","",""
"","ISI","","html-keyboard-response","478","653777","0.0-1.0-660.0","0","0","81090","","null","","","null","73","NaN","","","","","","","","","","","","","","",""
"","S2","","html-keyboard-response","479","654039","0.0-1.0-661.0","0","0","81090","","null","","","null","73","","NaN","","","","","","","","","","","","","",""
"","response","","html-keyboard-response","480","654874","0.0-1.0-662.0-0.0","0","0","81090","","823","","","68","73","","","2","73","training","adjacent","EF","5","6","R.jpg","Q.jpg","1","1","1","",""
"","feedback","","html-keyboard-response","481","655890","0.0-1.0-663.0-0.0","0","0","81090","","null","","","null","73","","","","","","","","","","","","","","","",""
"","ITI","","html-keyboard-response","482","656904","0.0-1.0-666.0","0","0","81090","","null","","","null","73","","","","","","","","","","","","","","","NaN",""
"","S1","","html-keyboard-response","483","657166","0.0-1.0-668.0","0","0","81090","","null","","","null","74","","","","","","","","","","","","","","","",""
"","ISI","","html-keyboard-response","484","659176","0.0-1.0-669.0","0","0","81090","","null","","","null","74","NaN","","","","","","","","","","","","","","",""
"","S2","","html-keyboard-response","485","659437","0.0-1.0-670.0","0","0","81090","","null","","","null","74","","NaN","","","","","","","","","","","","","",""
"","response","","html-keyboard-response","486","659876","0.0-1.0-671.0-0.0","0","0","81090","","433","","","75","74","","","2","74","training","adjacent","DC","4","3","M.jpg","L.jpg","0","0","1","",""
"","feedback","","html-keyboard-response","487","660887","0.0-1.0-672.0-0.0","0","0","81090","","null","","","null","74","","","","","","","","","","","","","","","",""
"","ITI","","html-keyboard-response","488","661897","0.0-1.0-675.0","0","0","81090","","null","","","null","74","","","","","","","","","","","","","","","NaN",""
"","S1","","html-keyboard-response","489","662156","0.0-1.0-677.0","0","0","81090","","null","","","null","75","","","","","","","","","","","","","","","",""
"","ISI","","html-keyboard-response","490","664166","0.0-1.0-678.0","0","0","81090","","null","","","null","75","NaN","","","","","","","","","","","","","","",""
"","S2","","html-keyboard-response","491","664430","0.0-1.0-679.0","0","0","81090","","null","","","null","75","","NaN","","","","","","","","","","","","","",""
"","response","","html-keyboard-response","492","664888","0.0-1.0-680.0-0.0","0","0","81090","","441","","","75","75","","","2","75","training","adjacent","DC","4","3","M.jpg","L.jpg","0","0","1","",""
"","feedback","","html-keyboard-response","493","665903","0.0-1.0-681.0-0.0","0","0","81090","","null","","","null","75","","","","","","","","","","","","","","","",""
"","ITI","","html-keyboard-response","494","666919","0.0-1.0-684.0","0","0","81090","","null","","","null","75","","","","","","","","","","","","","","","NaN",""
"","S1","","html-keyboard-response","495","667184","0.0-1.0-686.0","0","0","81090","","null","","","null","76","","","","","","","","","","","","","","","",""
"","ISI","","html-keyboard-response","496","669192","0.0-1.0-687.0","0","0","81090","","null","","","null","76","NaN","","","","","","","","","","","","","","",""
"","S2","","html-keyboard-response","497","669450","0.0-1.0-688.0","0","0","81090","","null","","","null","76","","NaN","","","","","","","","","","","","","",""
"","response","","html-keyboard-response","498","669871","0.0-1.0-689.0-0.0","0","0","81090","","415","","","75","76","","","2","76","training","adjacent","GF","7","6","P.jpg","Q.jpg","0","0","1","",""
"","feedback","","html-keyboard-response","499","670883","0.0-1.0-690.0-0.0","0","0","81090","","null","","","null","76","","","","","","","","","","","","","","","",""
"","ITI","","html-keyboard-response","500","671897","0.0-1.0-693.0","0","0","81090","","null","","","null","76","","","","","","","","","","","","","","","NaN",""
"","S1","","html-keyboard-response","501","672165","0.0-1.0-695.0","0","0","81090","","null","","","null","77","","","","","","","","","","","","","","","",""
"","ISI","","html-keyboard-response","502","674175","0.0-1.0-696.0","0","0","81090","","null","","","null","77","NaN","","","","","","","","","","","","","","",""
"","S2","","html-keyboard-response","503","674441","0.0-1.0-697.0","0","0","81090","","null","","","null","77","","NaN","","","","","","","","","","","","","",""
"","response","","html-keyboard-response","504","674793","0.0-1.0-698.0-0.0","0","0","81090","","343","","","75","77","","","2","77","training","adjacent","BA","2","1","N.jpg","O.jpg","0","0","1","",""
"","feedback","","html-keyboard-response","505","675805","0.0-1.0-699.0-0.0","0","0","81090","","null","","","null","77","","","","","","","","","","","","","","","",""
"","ITI","","html-keyboard-response","506","676819","0.0-1.0-702.0","0","0","81090","","null","","","null","77","","","","","","","","","","","","","","","NaN",""
"","S1","","html-keyboard-response","507","677079","0.0-1.0-704.0","0","0","81090","","null","","","null","78","","","","","","","","","","","","","","","",""
"","ISI","","html-keyboard-response","508","679088","0.0-1.0-705.0","0","0","81090","","null","","","null","78","NaN","","","","","","","","","","","","","","",""
"","S2","","html-keyboard-response","509","679349","0.0-1.0-706.0","0","0","81090","","null","","","null","78","","NaN","","","","","","","","","","","","","",""
"","response","","html-keyboard-response","510","679789","0.0-1.0-707.0-0.0","0","0","81090","","430","","","68","78","","","2","78","training","adjacent","ED","5","4","R.jpg","M.jpg","1","0","0","",""
"","feedback","","html-keyboard-response","511","680801","0.0-1.0-708.0-0.0","0","0","81090","","null","","","null","78","","","","","","","","","","","","","","","",""
"","time_out","","html-keyboard-response","512","682814","0.0-1.0-710.0-0.0","0","0","81090","","null","","","null","78","","","","","","","","","","","","","","","",""
"","ITI","","html-keyboard-response","513","683827","0.0-1.0-711.0","0","0","81090","","null","","","null","78","","","","","","","","","","","","","","","NaN",""
"","S1","","html-keyboard-response","514","684089","0.0-1.0-713.0","0","0","81090","","null","","","null","79","","","","","","","","","","","","","","","",""
"","ISI","","html-keyboard-response","515","686099","0.0-1.0-714.0","0","0","81090","","null","","","null","79","NaN","","","","","","","","","","","","","","",""
"","S2","","html-keyboard-response","516","686360","0.0-1.0-715.0","0","0","81090","","null","","","null","79","","NaN","","","","","","","","","","","","","",""
"","response","","html-keyboard-response","517","686994","0.0-1.0-716.0-0.0","0","0","81090","","623","","","68","79","","","2","79","training","adjacent","CB","3","2","L.jpg","N.jpg","1","0","0","",""
"","feedback","","html-keyboard-response","518","688004","0.0-1.0-717.0-0.0","0","0","81090","","null","","","null","79","","","","","","","","","","","","","","","",""
"","time_out","","html-keyboard-response","519","690012","0.0-1.0-719.0-0.0","0","0","81090","","null","","","null","79","","","","","","","","","","","","","","","",""
"","ITI","","html-keyboard-response","520","691023","0.0-1.0-720.0","0","0","81090","","null","","","null","79","","","","","","","","","","","","","","","NaN",""
"","S1","","html-keyboard-response","521","691284","0.0-1.0-722.0","0","0","81090","","null","","","null","80","","","","","","","","","","","","","","","",""
"","ISI","","html-keyboard-response","522","693295","0.0-1.0-723.0","0","0","81090","","null","","","null","80","NaN","","","","","","","","","","","","","","",""
"","S2","","html-keyboard-response","523","693559","0.0-1.0-724.0","0","0","81090","","null","","","null","80","","NaN","","","","","","","","","","","","","",""
"","response","","html-keyboard-response","524","694031","0.0-1.0-725.0-0.0","0","0","81090","","463","","","75","80","","","2","80","training","adjacent","EF","5","6","R.jpg","Q.jpg","0","1","0","",""
"","feedback","","html-keyboard-response","525","695042","0.0-1.0-726.0-0.0","0","0","81090","","null","","","null","80","","","","","","","","","","","","","","","",""
"","time_out","","html-keyboard-response","526","697054","0.0-1.0-728.0-0.0","0","0","81090","","null","","","null","80","","","","","","","","","","","","","","","",""
"","ITI","","html-keyboard-response","527","698065","0.0-1.0-729.0","0","0","81090","","null","","","null","80","","","","","","","","","","","","","","","NaN",""
"","S1","","html-keyboard-response","528","698331","0.0-1.0-731.0","0","0","81090","","null","","","null","81","","","","","","","","","","","","","","","",""
"","ISI","","html-keyboard-response","529","700339","0.0-1.0-732.0","0","0","81090","","null","","","null","81","NaN","","","","","","","","","","","","","","",""
"","S2","","html-keyboard-response","530","700599","0.0-1.0-733.0","0","0","81090","","null","","","null","81","","NaN","","","","","","","","","","","","","",""
"","response","","html-keyboard-response","531","700960","0.0-1.0-734.0-0.0","0","0","81090","","349","","","68","81","","","2","81","training","adjacent","AB","1","2","O.jpg","N.jpg","1","1","1","",""
"","feedback","","html-keyboard-response","532","701978","0.0-1.0-735.0-0.0","0","0","81090","","null","","","null","81","","","","","","","","","","","","","","","",""
"","ITI","","html-keyboard-response","533","703001","0.0-1.0-738.0","0","0","81090","","null","","","null","81","","","","","","","","","","","","","","","NaN",""
"","S1","","html-keyboard-response","534","703284","0.0-1.0-740.0","0","0","81090","","null","","","null","82","","","","","","","","","","","","","","","",""
"","ISI","","html-keyboard-response","535","705291","0.0-1.0-741.0","0","0","81090","","null","","","null","82","NaN","","","","","","","","","","","","","","",""
"","S2","","html-keyboard-response","536","705552","0.0-1.0-742.0","0","0","81090","","null","","","null","82","","NaN","","","","","","","","","","","","","",""
"","response","","html-keyboard-response","537","706048","0.0-1.0-743.0-0.0","0","0","81090","","483","","","68","82","","","2","82","training","adjacent","ED","5","4","R.jpg","M.jpg","1","0","0","",""
"","feedback","","html-keyboard-response","538","707065","0.0-1.0-744.0-0.0","0","0","81090","","null","","","null","82","","","","","","","","","","","","","","","",""
"","time_out","","html-keyboard-response","539","709081","0.0-1.0-746.0-0.0","0","0","81090","","null","","","null","82","","","","","","","","","","","","","","","",""
"","ITI","","html-keyboard-response","540","710091","0.0-1.0-747.0","0","0","81090","","null","","","null","82","","","","","","","","","","","","","","","NaN",""
"","S1","","html-keyboard-response","541","710351","0.0-1.0-749.0","0","0","81090","","null","","","null","83","","","","","","","","","","","","","","","",""
"","ISI","","html-keyboard-response","542","712363","0.0-1.0-750.0","0","0","81090","","null","","","null","83","NaN","","","","","","","","","","","","","","",""
"","S2","","html-keyboard-response","543","712627","0.0-1.0-751.0","0","0","81090","","null","","","null","83","","NaN","","","","","","","","","","","","","",""
"","response","","html-keyboard-response","544","713195","0.0-1.0-752.0-0.0","0","0","81090","","556","","","75","83","","","2","83","training","adjacent","EF","5","6","R.jpg","Q.jpg","0","1","0","",""
"","feedback","","html-keyboard-response","545","714210","0.0-1.0-753.0-0.0","0","0","81090","","null","","","null","83","","","","","","","","","","","","","","","",""
"","time_out","","html-keyboard-response","546","716221","0.0-1.0-755.0-0.0","0","0","81090","","null","","","null","83","","","","","","","","","","","","","","","",""
"","ITI","","html-keyboard-response","547","717244","0.0-1.0-756.0","0","0","81090","","null","","","null","83","","","","","","","","","","","","","","","NaN",""
"","S1","","html-keyboard-response","548","717508","0.0-1.0-758.0","0","0","81090","","null","","","null","84","","","","","","","","","","","","","","","",""
"","ISI","","html-keyboard-response","549","719521","0.0-1.0-759.0","0","0","81090","","null","","","null","84","NaN","","","","","","","","","","","","","","",""
"","S2","","html-keyboard-response","550","719785","0.0-1.0-760.0","0","0","81090","","null","","","null","84","","NaN","","","","","","","","","","","","","",""
"","response","","html-keyboard-response","551","720454","0.0-1.0-761.0-0.0","0","0","81090","","657","","","75","84","","","2","84","training","adjacent","BA","2","1","N.jpg","O.jpg","0","0","1","",""
"","feedback","","html-keyboard-response","552","721469","0.0-1.0-762.0-0.0","0","0","81090","","null","","","null","84","","","","","","","","","","","","","","","",""
"","ITI","","html-keyboard-response","553","722480","0.0-1.0-765.0","0","0","81090","","null","","","null","84","","","","","","","","","","","","","","","NaN",""
"","S1","","html-keyboard-response","554","722738","0.0-1.0-767.0","0","0","81090","","null","","","null","85","","","","","","","","","","","","","","","",""
"","ISI","","html-keyboard-response","555","724751","0.0-1.0-768.0","0","0","81090","","null","","","null","85","NaN","","","","","","","","","","","","","","",""
"","S2","","html-keyboard-response","556","725014","0.0-1.0-769.0","0","0","81090","","null","","","null","85","","NaN","","","","","","","","","","","","","",""
"","response","","html-keyboard-response","557","725554","0.0-1.0-770.0-0.0","0","0","81090","","529","","","75","85","","","2","85","training","adjacent","FG","6","7","Q.jpg","P.jpg","0","1","0","",""
"","feedback","","html-keyboard-response","558","726571","0.0-1.0-771.0-0.0","0","0","81090","","null","","","null","85","","","","","","","","","","","","","","","",""
"","time_out","","html-keyboard-response","559","728585","0.0-1.0-773.0-0.0","0","0","81090","","null","","","null","85","","","","","","","","","","","","","","","",""
"","ITI","","html-keyboard-response","560","729596","0.0-1.0-774.0","0","0","81090","","null","","","null","85","","","","","","","","","","","","","","","NaN",""
"","S1","","html-keyboard-response","561","729859","0.0-1.0-776.0","0","0","81090","","null","","","null","86","","","","","","","","","","","","","","","",""
"","ISI","","html-keyboard-response","562","731869","0.0-1.0-777.0","0","0","81090","","null","","","null","86","NaN","","","","","","","","","","","","","","",""
"","S2","","html-keyboard-response","563","732131","0.0-1.0-778.0","0","0","81090","","null","","","null","86","","NaN","","","","","","","","","","","","","",""
"","response","","html-keyboard-response","564","732372","0.0-1.0-779.0-0.0","0","0","81090","","236","","","68","86","","","2","86","training","adjacent","DE","4","5","M.jpg","R.jpg","1","1","1","",""
"","feedback","","html-keyboard-response","565","733382","0.0-1.0-780.0-0.0","0","0","81090","","null","","","null","86","","","","","","","","","","","","","","","",""
"","ITI","","html-keyboard-response","566","734391","0.0-1.0-783.0","0","0","81090","","null","","","null","86","","","","","","","","","","","","","","","NaN",""
"","S1","","html-keyboard-response","567","734652","0.0-1.0-785.0","0","0","81090","","null","","","null","87","","","","","","","","","","","","","","","",""
"","ISI","","html-keyboard-response","568","736664","0.0-1.0-786.0","0","0","81090","","null","","","null","87","NaN","","","","","","","","","","","","","","",""
"","S2","","html-keyboard-response","569","736929","0.0-1.0-787.0","0","0","81090","","null","","","null","87","","NaN","","","","","","","","","","","","","",""
"","response","","html-keyboard-response","570","737406","0.0-1.0-788.0-0.0","0","0","81090","","470","","","68","87","","","2","87","training","adjacent","DE","4","5","M.jpg","R.jpg","1","1","1","",""
"","feedback","","html-keyboard-response","571","738416","0.0-1.0-789.0-0.0","0","0","81090","","null","","","null","87","","","","","","","","","","","","","","","",""
"","ITI","","html-keyboard-response","572","739426","0.0-1.0-792.0","0","0","81090","","null","","","null","87","","","","","","","","","","","","","","","NaN",""
"","S1","","html-keyboard-response","573","739686","0.0-1.0-794.0","0","0","81090","","null","","","null","88","","","","","","","","","","","","","","","",""
"","ISI","","html-keyboard-response","574","741698","0.0-1.0-795.0","0","0","81090","","null","","","null","88","NaN","","","","","","","","","","","","","","",""
"","S2","","html-keyboard-response","575","741963","0.0-1.0-796.0","0","0","81090","","null","","","null","88","","NaN","","","","","","","","","","","","","",""
"","response","","html-keyboard-response","576","742581","0.0-1.0-797.0-0.0","0","0","81090","","606","","","68","88","","","2","88","training","adjacent","CB","3","2","L.jpg","N.jpg","1","0","0","",""
"","feedback","","html-keyboard-response","577","743599","0.0-1.0-798.0-0.0","0","0","81090","","null","","","null","88","","","","","","","","","","","","","","","",""
"","time_out","","html-keyboard-response","578","745609","0.0-1.0-800.0-0.0","0","0","81090","","null","","","null","88","","","","","","","","","","","","","","","",""
"","ITI","","html-keyboard-response","579","746618","0.0-1.0-801.0","0","0","81090","","null","","","null","88","","","","","","","","","","","","","","","NaN",""
"","S1","","html-keyboard-response","580","746882","0.0-1.0-803.0","0","0","81090","","null","","","null","89","","","","","","","","","","","","","","","",""
