"success","ttype","start_time","trial_type","trial_index","time_elapsed","internal_node_id","warning","missed_checkup","PID","view_history","rt","responses","repeat_instructions","key_press","index","keypress_isi","keypress_S2","block","trial_num","phase","group_type","pair_type","S1_stim","S2_stim","S1_img","S2_img","S1_chosen","S1_higher","accuracy","keypress_iti","total_bonus_tally"
"true","full_screen","d03072023hr2233","fullscreen","0","7423","0.0-0.0","0","0","32185","","","","","","","","","","","","","","","","","","","","","",""
"","instructions","","instructions","1","17363","0.0-1.0-0.0-0.0","0","0","32185","[{""page_index"":0,""viewing_time"":3153},{""page_index"":1,""viewing_time"":3419},{""page_index"":2,""viewing_time"":2678},{""page_index"":3,""viewing_time"":685}]","9936","","","","","","","","","","","","","","","","","","","",""
"","comprehension_check","","survey-multi-choice","2","32893","0.0-1.0-0.0-1.0","0","0","32185","","15517","{""Q0"":""True"",""Q1"":""K"",""Q2"":""Once the second image appears and while the screen 'MAKE A CHOICE' is shown"",""Q3"":""Green mark"",""Q4"":""either D or K""}","0","","","","","","","","","","","","","","","","","",""
"","start_exp","","html-keyboard-response","3","34109","0.0-1.0-1.0","0","0","32185","","1213","","","32","","","","","","","","","","","","","","","","",""
"","S1","","html-keyboard-response","4","34363","0.0-1.0-2.0","0","0","32185","","null","","","null","0","","","","","","","","","","","","","","","",""
"","ISI","","html-keyboard-response","5","35367","0.0-1.0-3.0","0","0","32185","","null","","","null","0","NaN","","","","","","","","","","","","","","",""
"","S2","","html-keyboard-response","6","35622","0.0-1.0-4.0","0","0","32185","","null","","","null","0","","NaN","","","","","","","","","","","","","",""
"","response","","html-keyboard-response","7","37377","0.0-1.0-5.0-0.0","0","0","32185","","null","","","null","0","","","1","0","training","adjacent","BC","2","3","O.jpg","M.jpg","NaN","1","0","",""
"","too_slow_prompt","","html-keyboard-response","8","38382","0.0-1.0-7.0-0.0","1","0","32185","","null","","","null","","","","","","","","","","","","","","","","",""
"","time_out","","html-keyboard-response","9","40387","0.0-1.0-8.0-0.0","0","0","32185","","null","","","null","0","","","","","","","","","","","","","","","",""
"","ITI","","html-keyboard-response","10","41390","0.0-1.0-9.0","0","0","32185","","null","","","null","0","","","","","","","","","","","","","","","NaN",""
"","S1","","html-keyboard-response","11","41645","0.0-1.0-11.0","0","0","32185","","null","","","null","1","","","","","","","","","","","","","","","",""
"","ISI","","html-keyboard-response","12","42649","0.0-1.0-12.0","0","0","32185","","null","","","null","1","NaN","","","","","","","","","","","","","","",""
"","S2","","html-keyboard-response","13","42902","0.0-1.0-13.0","0","0","32185","","null","","","null","1","","NaN","","","","","","","","","","","","","",""
"","response","","html-keyboard-response","14","43448","0.0-1.0-14.0-0.0","0","0","32185","","543","","","68","1","","","1","1","training","adjacent","FG","6","7","N.jpg","L.jpg","0","1","0","",""
"","feedback","","html-keyboard-response","15","44451","0.0-1.0-15.0-0.0","0","0","32185","","null","","","null","1","","","","","","","","","","","","","","","",""
"","time_out","","html-keyboard-response","16","46454","0.0-1.0-17.0-0.0","0","0","32185","","null","","","null","1","","","","","","","","","","","","","","","",""
"","ITI","","html-keyboard-response","17","47457","0.0-1.0-18.0","0","0","32185","","null","","","null","1","","","","","","","","","","","","","","","NaN",""
"","S1","","html-keyboard-response","18","47711","0.0-1.0-20.0","0","0","32185","","null","","","null","2","","","","","","","","","","","","","","","",""
"","ISI","","html-keyboard-response","19","48716","0.0-1.0-21.0","0","0","32185","","null","","","null","2","NaN","","","","","","","","","","","","","","",""
"","S2","","html-keyboard-response","20","48971","0.0-1.0-22.0","0","0","32185","","null","","","null","2","","NaN","","","","","","","","","","","","","",""
"","response","","html-keyboard-response","21","50289","0.0-1.0-23.0-0.0","0","0","32185","","1315","","","68","2","","","1","2","training","adjacent","DC","4","3","P.jpg","M.jpg","0","0","1","",""
"","feedback","","html-keyboard-response","22","51292","0.0-1.0-24.0-0.0","0","0","32185","","null","","","null","2","","","","","","","","","","","","","","","",""
"","ITI","","html-keyboard-response","23","52294","0.0-1.0-27.0","0","0","32185","","null","","","null","2","","","","","","","","","","","","","","","NaN",""
"","S1","","html-keyboard-response","24","52548","0.0-1.0-29.0","0","0","32185","","null","","","null","3","","","","","","","","","","","","","","","",""
"","ISI","","html-keyboard-response","25","53552","0.0-1.0-30.0","0","0","32185","","null","","","null","3","NaN","","","","","","","","","","","","","","",""
"","S2","","html-keyboard-response","26","53805","0.0-1.0-31.0","0","0","32185","","null","","","null","3","","NaN","","","","","","","","","","","","","",""
"","response","","html-keyboard-response","27","55116","0.0-1.0-32.0-0.0","0","0","32185","","1308","","","75","3","","","1","3","training","adjacent","ED","5","4","R.jpg","P.jpg","1","0","0","",""
"","feedback","","html-keyboard-response","28","56119","0.0-1.0-33.0-0.0","0","0","32185","","null","","","null","3","","","","","","","","","","","","","","","",""
"","time_out","","html-keyboard-response","29","58122","0.0-1.0-35.0-0.0","0","0","32185","","null","","","null","3","","","","","","","","","","","","","","","",""
"","ITI","","html-keyboard-response","30","59125","0.0-1.0-36.0","0","0","32185","","null","","","null","3","","","","","","","","","","","","","","","NaN",""
"","S1","","html-keyboard-response","31","59379","0.0-1.0-38.0","0","0","32185","","null","","","null","4","","","","","","","","","","","","","","","",""
"","ISI","","html-keyboard-response","32","60381","0.0-1.0-39.0","0","0","32185","","null","","","null","4","NaN","","","","","","","","","","","","","","",""
"","S2","","html-keyboard-response","33","60635","0.0-1.0-40.0","0","0","32185","","null","","","null","4","","NaN","","","","","","","","","","","","","",""
"","response","","html-keyboard-response","34","61705","0.0-1.0-41.0-0.0","0","0","32185","","1068","","","68","4","","","1","4","training","adjacent","CD","3","4","M.jpg","P.jpg","0","1","0","",""
"","feedback","","html-keyboard-response","35","62708","0.0-1.0-42.0-0.0","0","0","32185","","null","","","null","4","","","","","","","","","","","","","","","",""
"","time_out","","html-keyboard-response","36","64712","0.0-1.0-44.0-0.0","0","0","32185","","null","","","null","4","","","","","","","","","","","","","","","",""
"","ITI","","html-keyboard-response","37","65715","0.0-1.0-45.0","0","0","32185","","null","","","null","4","","","","","","","","","","","","","","","NaN",""
"","S1","","html-keyboard-response","38","65970","0.0-1.0-47.0","0","0","32185","","null","","","null","5","","","","","","","","","","","","","","","",""
"","ISI","","html-keyboard-response","39","66973","0.0-1.0-48.0","0","0","32185","","null","","","null","5","NaN","","","","","","","","","","","","","","",""
"","S2","","html-keyboard-response","40","67228","0.0-1.0-49.0","0","0","32185","","null","","","null","5","","NaN","","","","","","","","","","","","","",""
"","response","","html-keyboard-response","41","68448","0.0-1.0-50.0-0.0","0","0","32185","","1217","","","68","5","","","1","5","training","adjacent","BA","2","1","O.jpg","Q.jpg","0","0","1","",""
"","feedback","","html-keyboard-response","42","69452","0.0-1.0-51.0-0.0","0","0","32185","","null","","","null","5","","","","","","","","","","","","","","","",""
"","ITI","","html-keyboard-response","43","70456","0.0-1.0-54.0","0","0","32185","","null","","","null","5","","","","","","","","","","","","","","","NaN",""
"","S1","","html-keyboard-response","44","70710","0.0-1.0-56.0","0","0","32185","","null","","","null","6","","","","","","","","","","","","","","","",""
"","ISI","","html-keyboard-response","45","71714","0.0-1.0-57.0","0","0","32185","","null","","","null","6","NaN","","","","","","","","","","","","","","",""
"","S2","","html-keyboard-response","46","71969","0.0-1.0-58.0","0","0","32185","","null","","","null","6","","NaN","","","","","","","","","","","","","",""
"","response","","html-keyboard-response","47","72849","0.0-1.0-59.0-0.0","0","0","32185","","876","","","75","6","","","1","6","training","adjacent","CB","3","2","M.jpg","O.jpg","1","0","0","",""
"","feedback","","html-keyboard-response","48","73853","0.0-1.0-60.0-0.0","0","0","32185","","null","","","null","6","","","","","","","","","","","","","","","",""
"","time_out","","html-keyboard-response","49","75858","0.0-1.0-62.0-0.0","0","0","32185","","null","","","null","6","","","","","","","","","","","","","","","",""
"","ITI","","html-keyboard-response","50","76861","0.0-1.0-63.0","0","0","32185","","null","","","null","6","","","","","","","","","","","","","","","NaN",""
"","S1","","html-keyboard-response","51","77114","0.0-1.0-65.0","0","0","32185","","null","","","null","7","","","","","","","","","","","","","","","",""
"","ISI","","html-keyboard-response","52","78117","0.0-1.0-66.0","0","0","32185","","null","","","null","7","NaN","","","","","","","","","","","","","","",""
"","S2","","html-keyboard-response","53","78371","0.0-1.0-67.0","0","0","32185","","null","","","null","7","","NaN","","","","","","","","","","","","","",""
"","response","","html-keyboard-response","54","79393","0.0-1.0-68.0-0.0","0","0","32185","","1018","","","75","7","","","1","7","training","adjacent","AB","1","2","Q.jpg","O.jpg","1","1","1","",""
"","feedback","","html-keyboard-response","55","80396","0.0-1.0-69.0-0.0","0","0","32185","","null","","","null","7","","","","","","","","","","","","","","","",""
"","ITI","","html-keyboard-response","56","81400","0.0-1.0-72.0","0","0","32185","","null","","","null","7","","","","","","","","","","","","","","","NaN",""
"","S1","","html-keyboard-response","57","81654","0.0-1.0-74.0","0","0","32185","","null","","","null","8","","","","","","","","","","","","","","","",""
"","ISI","","html-keyboard-response","58","82656","0.0-1.0-75.0","0","0","32185","","null","","","null","8","NaN","","","","","","","","","","","","","","",""
"","S2","","html-keyboard-response","59","82908","0.0-1.0-76.0","0","0","32185","","null","","","null","8","","NaN","","","","","","","","","","","","","",""
"","response","","html-keyboard-response","60","83676","0.0-1.0-77.0-0.0","0","0","32185","","765","","","68","8","","","1","8","training","adjacent","GF","7","6","L.jpg","N.jpg","0","0","1","",""
"","feedback","","html-keyboard-response","61","84680","0.0-1.0-78.0-0.0","0","0","32185","","null","","","null","8","","","","","","","","","","","","","","","",""
"","ITI","","html-keyboard-response","62","85683","0.0-1.0-81.0","0","0","32185","","null","","","null","8","","","","","","","","","","","","","","","NaN",""
"","S1","","html-keyboard-response","63","85936","0.0-1.0-83.0","0","0","32185","","null","","","null","9","","","","","","","","","","","","","","","",""
"","ISI","","html-keyboard-response","64","86940","0.0-1.0-84.0","0","0","32185","","null","","","null","9","NaN","","","","","","","","","","","","","","",""
"","S2","","html-keyboard-response","65","87193","0.0-1.0-85.0","0","0","32185","","null","","","null","9","","NaN","","","","","","","","","","","","","",""
"","response","","html-keyboard-response","66","88149","0.0-1.0-86.0-0.0","0","0","32185","","953","","","68","9","","","1","9","training","adjacent","FE","6","5","N.jpg","R.jpg","0","0","1","",""
"","feedback","","html-keyboard-response","67","89153","0.0-1.0-87.0-0.0","0","0","32185","","null","","","null","9","","","","","","","","","","","","","","","",""
"","ITI","","html-keyboard-response","68","90154","0.0-1.0-90.0","0","0","32185","","null","","","null","9","","","","","","","","","","","","","","","NaN",""
"","S1","","html-keyboard-response","69","90408","0.0-1.0-92.0","0","0","32185","","null","","","null","10","","","","","","","","","","","","","","","",""
"","ISI","","html-keyboard-response","70","91411","0.0-1.0-93.0","0","0","32185","","null","","","null","10","NaN","","","","","","","","","","","","","","",""
"","S2","","html-keyboard-response","71","91666","0.0-1.0-94.0","0","0","32185","","null","","","null","10","","NaN","","","","","","","","","","","","","",""
"","response","","html-keyboard-response","72","91721","0.0-1.0-95.0-0.0","0","0","32185","","53","","","68","10","","","1","10","training","adjacent","DE","4","5","P.jpg","R.jpg","0","1","0","",""
"","feedback","","html-keyboard-response","73","92723","0.0-1.0-96.0-0.0","0","0","32185","","null","","","null","10","","","","","","","","","","","","","","","",""
"","time_out","","html-keyboard-response","74","94726","0.0-1.0-98.0-0.0","0","0","32185","","null","","","null","10","","","","","","","","","","","","","","","",""
"","ITI","","html-keyboard-response","75","95730","0.0-1.0-99.0","0","0","32185","","null","","","null","10","","","","","","","","","","","","","","","NaN",""
"","S1","","html-keyboard-response","76","95985","0.0-1.0-101.0","0","0","32185","","null","","","null","11","","","","","","","","","","","","","","","",""
"","ISI","","html-keyboard-response","77","96989","0.0-1.0-102.0","0","0","32185","","null","","","null","11","NaN","","","","","","","","","","","","","","",""
"","S2","","html-keyboard-response","78","97243","0.0-1.0-103.0","0","0","32185","","null","","","null","11","","NaN","","","","","","","","","","","","","",""
"","response","","html-keyboard-response","79","97294","0.0-1.0-104.0-0.0","0","0","32185","","48","","","68","11","","","1","11","training","adjacent","ED","5","4","R.jpg","P.jpg","0","0","1","",""
"","feedback","","html-keyboard-response","80","98298","0.0-1.0-105.0-0.0","0","0","32185","","null","","","null","11","","","","","","","","","","","","","","","",""
"","ITI","","html-keyboard-response","81","99301","0.0-1.0-108.0","0","0","32185","","null","","","null","11","","","","","","","","","","","","","","","NaN",""
"","S1","","html-keyboard-response","82","99554","0.0-1.0-110.0","0","0","32185","","null","","","null","12","","","","","","","","","","","","","","","",""
"","ISI","","html-keyboard-response","83","100557","0.0-1.0-111.0","0","0","32185","","null","","","null","12","NaN","","","","","","","","","","","","","","",""
"","S2","","html-keyboard-response","84","100810","0.0-1.0-112.0","0","0","32185","","null","","","null","12","","NaN","","","","","","","","","","","","","",""
"","response","","html-keyboard-response","85","102027","0.0-1.0-113.0-0.0","0","0","32185","","1213","","","75","12","","","1","12","training","adjacent","FE","6","5","N.jpg","R.jpg","1","0","0","",""
"","feedback","","html-keyboard-response","86","103031","0.0-1.0-114.0-0.0","0","0","32185","","null","","","null","12","","","","","","","","","","","","","","","",""
"","time_out","","html-keyboard-response","87","105035","0.0-1.0-116.0-0.0","0","0","32185","","null","","","null","12","","","","","","","","","","","","","","","",""
"","ITI","","html-keyboard-response","88","106040","0.0-1.0-117.0","0","0","32185","","null","","","null","12","","","","","","","","","","","","","","","NaN",""
"","S1","","html-keyboard-response","89","106292","0.0-1.0-119.0","0","0","32185","","null","","","null","13","","","","","","","","","","","","","","","",""
"","ISI","","html-keyboard-response","90","107296","0.0-1.0-120.0","0","0","32185","","null","","","null","13","NaN","","","","","","","","","","","","","","",""
"","S2","","html-keyboard-response","91","107550","0.0-1.0-121.0","0","0","32185","","null","","","null","13","","NaN","","","","","","","","","","","","","",""
"","response","","html-keyboard-response","92","108558","0.0-1.0-122.0-0.0","0","0","32185","","1007","","","75","13","","","1","13","training","adjacent","AB","1","2","Q.jpg","O.jpg","1","1","1","",""
"","feedback","","html-keyboard-response","93","109560","0.0-1.0-123.0-0.0","0","0","32185","","null","","","null","13","","","","","","","","","","","","","","","",""
"","ITI","","html-keyboard-response","94","110563","0.0-1.0-126.0","0","0","32185","","null","","","null","13","","","","","","","","","","","","","","","NaN",""
"","S1","","html-keyboard-response","95","110815","0.0-1.0-128.0","0","0","32185","","null","","","null","14","","","","","","","","","","","","","","","",""
"","ISI","","html-keyboard-response","96","111818","0.0-1.0-129.0","0","0","32185","","null","","","null","14","NaN","","","","","","","","","","","","","","",""
"","S2","","html-keyboard-response","97","112071","0.0-1.0-130.0","0","0","32185","","null","","","null","14","","NaN","","","","","","","","","","","","","",""
"","response","","html-keyboard-response","98","113166","0.0-1.0-131.0-0.0","0","0","32185","","1093","","","68","14","","","1","14","training","adjacent","BA","2","1","O.jpg","Q.jpg","0","0","1","",""
"","feedback","","html-keyboard-response","99","114169","0.0-1.0-132.0-0.0","0","0","32185","","null","","","null","14","","","","","","","","","","","","","","","",""
"","ITI","","html-keyboard-response","100","115171","0.0-1.0-135.0","0","0","32185","","null","","","null","14","","","","","","","","","","","","","","","NaN",""
"","S1","","html-keyboard-response","101","115424","0.0-1.0-137.0","0","0","32185","","null","","","null","15","","","","","","","","","","","","","","","",""
"","ISI","","html-keyboard-response","102","116428","0.0-1.0-138.0","0","0","32185","","null","","","null","15","NaN","","","","","","","","","","","","","","",""
"","S2","","html-keyboard-response","103","116682","0.0-1.0-139.0","0","0","32185","","null","","","null","15","","NaN","","","","","","","","","","","","","",""
"","response","","html-keyboard-response","104","117594","0.0-1.0-140.0-0.0","0","0","32185","","909","","","68","15","","","1","15","training","adjacent","BA","2","1","O.jpg","Q.jpg","0","0","1","",""
"","feedback","","html-keyboard-response","105","118598","0.0-1.0-141.0-0.0","0","0","32185","","null","","","null","15","","","","","","","","","","","","","","","",""
"","ITI","","html-keyboard-response","106","119602","0.0-1.0-144.0","0","0","32185","","null","","","null","15","","","","","","","","","","","","","","","NaN",""
"","S1","","html-keyboard-response","107","119855","0.0-1.0-146.0","0","0","32185","","null","","","null","16","","","","","","","","","","","","","","","",""
"","ISI","","html-keyboard-response","108","120860","0.0-1.0-147.0","0","0","32185","","null","","","null","16","NaN","","","","","","","","","","","","","","",""
"","S2","","html-keyboard-response","109","121113","0.0-1.0-148.0","0","0","32185","","null","","","null","16","","NaN","","","","","","","","","","","","","",""
"","response","","html-keyboard-response","110","121987","0.0-1.0-149.0-0.0","0","0","32185","","872","","","68","16","","","1","16","training","adjacent","DE","4","5","P.jpg","R.jpg","0","1","0","",""
"","feedback","","html-keyboard-response","111","122992","0.0-1.0-150.0-0.0","0","0","32185","","null","","","null","16","","","","","","","","","","","","","","","",""
"","time_out","","html-keyboard-response","112","124995","0.0-1.0-152.0-0.0","0","0","32185","","null","","","null","16","","","","","","","","","","","","","","","",""
"","ITI","","html-keyboard-response","113","125998","0.0-1.0-153.0","0","0","32185","","null","","","null","16","","","","","","","","","","","","","","","NaN",""
"","S1","","html-keyboard-response","114","126253","0.0-1.0-155.0","0","0","32185","","null","","","null","17","","","","","","","","","","","","","","","",""
"","ISI","","html-keyboard-response","115","127255","0.0-1.0-156.0","0","0","32185","","null","","","null","17","NaN","","","","","","","","","","","","","","",""
"","S2","","html-keyboard-response","116","127509","0.0-1.0-157.0","0","0","32185","","null","","","null","17","","NaN","","","","","","","","","","","","","",""
"","response","","html-keyboard-response","117","128035","0.0-1.0-158.0-0.0","0","0","32185","","523","","","68","17","","","1","17","training","adjacent","DE","4","5","P.jpg","R.jpg","0","1","0","",""
"","feedback","","html-keyboard-response","118","129039","0.0-1.0-159.0-0.0","0","0","32185","","null","","","null","17","","","","","","","","","","","","","","","",""
"","time_out","","html-keyboard-response","119","131043","0.0-1.0-161.0-0.0","0","0","32185","","null","","","null","17","","","","","","","","","","","","","","","",""
"","ITI","","html-keyboard-response","120","132047","0.0-1.0-162.0","0","0","32185","","null","","","null","17","","","","","","","","","","","","","","","NaN",""
"","S1","","html-keyboard-response","121","132301","0.0-1.0-164.0","0","0","32185","","null","","","null","18","","","","","","","","","","","","","","","",""
"","ISI","","html-keyboard-response","122","133306","0.0-1.0-165.0","0","0","32185","","null","","","null","18","NaN","","","","","","","","","","","","","","",""
"","S2","","html-keyboard-response","123","133560","0.0-1.0-166.0","0","0","32185","","null","","","null","18","","NaN","","","","","","","","","","","","","",""
"","response","","html-keyboard-response","124","134101","0.0-1.0-167.0-0.0","0","0","32185","","538","","","75","18","","","1","18","training","adjacent","BC","2","3","O.jpg","M.jpg","1","1","1","",""
"","feedback","","html-keyboard-response","125","135105","0.0-1.0-168.0-0.0","0","0","32185","","null","","","null","18","","","","","","","","","","","","","","","",""
"","ITI","","html-keyboard-response","126","136109","0.0-1.0-171.0","0","0","32185","","null","","","null","18","","","","","","","","","","","","","","","NaN",""
"","S1","","html-keyboard-response","127","136362","0.0-1.0-173.0","0","0","32185","","null","","","null","19","","","","","","","","","","","","","","","",""
"","ISI","","html-keyboard-response","128","137365","0.0-1.0-174.0","0","0","32185","","null","","","null","19","NaN","","","","","","","","","","","","","","",""
"","S2","","html-keyboard-response","129","137616","0.0-1.0-175.0","0","0","32185","","247","","","68","19","","d","1","19","training","adjacent","EF","5","6","R.jpg","N.jpg","0","1","0","",""
"","feedback","","html-keyboard-response","130","138622","0.0-1.0-177.0-0.0","0","0","32185","","null","","","null","19","","","","","","","","","","","","","","","",""
"","time_out","","html-keyboard-response","131","140625","0.0-1.0-179.0-0.0","0","0","32185","","null","","","null","19","","","","","","","","","","","","","","","",""
"","ITI","","html-keyboard-response","132","141629","0.0-1.0-180.0","0","0","32185","","null","","","null","19","","","","","","","","","","","","","","","NaN",""
"","S1","","html-keyboard-response","133","141881","0.0-1.0-182.0","0","0","32185","","null","","","null","20","","","","","","","","","","","","","","","",""
"","ISI","","html-keyboard-response","134","142883","0.0-1.0-183.0","0","0","32185","","null","","","null","20","NaN","","","","","","","","","","","","","","",""
"","S2","","html-keyboard-response","135","143136","0.0-1.0-184.0","0","0","32185","","null","","","null","20","","NaN","","","","","","","","","","","","","",""
"","response","","html-keyboard-response","136","143482","0.0-1.0-185.0-0.0","0","0","32185","","344","","","68","20","","","1","20","training","adjacent","BC","2","3","O.jpg","M.jpg","0","1","0","",""
"","feedback","","html-keyboard-response","137","144486","0.0-1.0-186.0-0.0","0","0","32185","","null","","","null","20","","","","","","","","","","","","","","","",""
"","time_out","","html-keyboard-response","138","146490","0.0-1.0-188.0-0.0","0","0","32185","","null","","","null","20","","","","","","","","","","","","","","","",""
"","ITI","","html-keyboard-response","139","147492","0.0-1.0-189.0","0","0","32185","","null","","","null","20","","","","","","","","","","","","","","","NaN",""
"","S1","","html-keyboard-response","140","147744","0.0-1.0-191.0","0","0","32185","","null","","","null","21","","","","","","","","","","","","","","","",""
"","ISI","","html-keyboard-response","141","148747","0.0-1.0-192.0","0","0","32185","","null","","","null","21","NaN","","","","","","","","","","","","","","",""
"","S2","","html-keyboard-response","142","149001","0.0-1.0-193.0","0","0","32185","","null","","","null","21","","NaN","","","","","","","","","","","","","",""
"","response","","html-keyboard-response","143","149451","0.0-1.0-194.0-0.0","0","0","32185","","447","","","68","21","","","1","21","training","adjacent","GF","7","6","L.jpg","N.jpg","0","0","1","",""
"","feedback","","html-keyboard-response","144","150455","0.0-1.0-195.0-0.0","0","0","32185","","null","","","null","21","","","","","","","","","","","","","","","",""
"","ITI","","html-keyboard-response","145","151460","0.0-1.0-198.0","0","0","32185","","null","","","null","21","","","","","","","","","","","","","","","NaN",""
"","S1","","html-keyboard-response","146","151713","0.0-1.0-200.0","0","0","32185","","null","","","null","22","","","","","","","","","","","","","","","",""
"","ISI","","html-keyboard-response","147","152716","0.0-1.0-201.0","0","0","32185","","null","","","null","22","NaN","","","","","","","","","","","","","","",""
"","S2","","html-keyboard-response","148","152970","0.0-1.0-202.0","0","0","32185","","null","","","null","22","","NaN","","","","","","","","","","","","","",""
"","response","","html-keyboard-response","149","153281","0.0-1.0-203.0-0.0","0","0","32185","","309","","","68","22","","","1","22","training","adjacent","EF","5","6","R.jpg","N.jpg","0","1","0","",""
"","feedback","","html-keyboard-response","150","154285","0.0-1.0-204.0-0.0","0","0","32185","","null","","","null","22","","","","","","","","","","","","","","","",""
"","time_out","","html-keyboard-response","151","156289","0.0-1.0-206.0-0.0","0","0","32185","","null","","","null","22","","","","","","","","","","","","","","","",""
"","ITI","","html-keyboard-response","152","157292","0.0-1.0-207.0","0","0","32185","","null","","","null","22","","","","","","","","","","","","","","","NaN",""
"","S1","","html-keyboard-response","153","157546","0.0-1.0-209.0","0","0","32185","","null","","","null","23","","","","","","","","","","","","","","","",""
"","ISI","","html-keyboard-response","154","158548","0.0-1.0-210.0","0","0","32185","","null","","","null","23","NaN","","","","","","","","","","","","","","",""
"","S2","","html-keyboard-response","155","158800","0.0-1.0-211.0","0","0","32185","","null","","","null","23","","NaN","","","","","","","","","","","","","",""
"","response","","html-keyboard-response","156","159107","0.0-1.0-212.0-0.0","0","0","32185","","305","","","68","23","","","1","23","training","adjacent","GF","7","6","L.jpg","N.jpg","0","0","1","",""
"","feedback","","html-keyboard-response","157","160110","0.0-1.0-213.0-0.0","0","0","32185","","null","","","null","23","","","","","","","","","","","","","","","",""
"","ITI","","html-keyboard-response","158","161114","0.0-1.0-216.0","0","0","32185","","null","","","null","23","","","","","","","","","","","","","","","NaN",""
"","S1","","html-keyboard-response","159","161368","0.0-1.0-218.0","0","0","32185","","null","","","null","24","","","","","","","","","","","","","","","",""
"","ISI","","html-keyboard-response","160","162372","0.0-1.0-219.0","0","0","32185","","null","","","null","24","NaN","","","","","","","","","","","","","","",""
"","S2","","html-keyboard-response","161","162625","0.0-1.0-220.0","0","0","32185","","null","","","null","24","","NaN","","","","","","","","","","","","","",""
"","response","","html-keyboard-response","162","163072","0.0-1.0-221.0-0.0","0","0","32185","","445","","","75","24","","","1","24","training","adjacent","CB","3","2","M.jpg","O.jpg","1","0","0","",""
"","feedback","","html-keyboard-response","163","164077","0.0-1.0-222.0-0.0","0","0","32185","","null","","","null","24","","","","","","","","","","","","","","","",""
"","time_out","","html-keyboard-response","164","166081","0.0-1.0-224.0-0.0","0","0","32185","","null","","","null","24","","","","","","","","","","","","","","","",""
"","ITI","","html-keyboard-response","165","167085","0.0-1.0-225.0","0","0","32185","","null","","","null","24","","","","","","","","","","","","","","","NaN",""
"","S1","","html-keyboard-response","166","167340","0.0-1.0-227.0","0","0","32185","","null","","","null","25","","","","","","","","","","","","","","","",""
"","ISI","","html-keyboard-response","167","168343","0.0-1.0-228.0","0","0","32185","","null","","","null","25","NaN","","","","","","","","","","","","","","",""
"","S2","","html-keyboard-response","168","168521","0.0-1.0-229.0","0","0","32185","","175","","","68","25","","d","1","25","training","adjacent","GF","7","6","L.jpg","N.jpg","0","0","1","",""
"","feedback","","html-keyboard-response","169","169524","0.0-1.0-231.0-0.0","0","0","32185","","null","","","null","25","","","","","","","","","","","","","","","",""
"","ITI","","html-keyboard-response","170","170528","0.0-1.0-234.0","0","0","32185","","null","","","null","25","","","","","","","","","","","","","","","NaN",""
"","S1","","html-keyboard-response","171","170782","0.0-1.0-236.0","0","0","32185","","null","","","null","26","","","","","","","","","","","","","","","",""
"","ISI","","html-keyboard-response","172","171785","0.0-1.0-237.0","0","0","32185","","null","","","null","26","NaN","","","","","","","","","","","","","","",""
"","S2","","html-keyboard-response","173","172000","0.0-1.0-238.0","0","0","32185","","212","","","68","26","","d","1","26","training","adjacent","DE","4","5","P.jpg","R.jpg","0","1","0","",""
"","feedback","","html-keyboard-response","174","173003","0.0-1.0-240.0-0.0","0","0","32185","","null","","","null","26","","","","","","","","","","","","","","","",""
"","time_out","","html-keyboard-response","175","175006","0.0-1.0-242.0-0.0","0","0","32185","","null","","","null","26","","","","","","","","","","","","","","","",""
"","ITI","","html-keyboard-response","176","176010","0.0-1.0-243.0","0","0","32185","","null","","","null","26","","","","","","","","","","","","","","","NaN",""
"","S1","","html-keyboard-response","177","176263","0.0-1.0-245.0","0","0","32185","","null","","","null","27","","","","","","","","","","","","","","","",""
"","ISI","","html-keyboard-response","178","177268","0.0-1.0-246.0","0","0","32185","","null","","","null","27","NaN","","","","","","","","","","","","","","",""
"","S2","","html-keyboard-response","179","177522","0.0-1.0-247.0","0","0","32185","","null","","","null","27","","NaN","","","","","","","","","","","","","",""
"","response","","html-keyboard-response","180","177728","0.0-1.0-248.0-0.0","0","0","32185","","201","","","75","27","","","1","27","training","adjacent","EF","5","6","R.jpg","N.jpg","1","1","1","",""
"","feedback","","html-keyboard-response","181","178732","0.0-1.0-249.0-0.0","0","0","32185","","null","","","null","27","","","","","","","","","","","","","","","",""
"","ITI","","html-keyboard-response","182","179735","0.0-1.0-252.0","0","0","32185","","null","","","null","27","","","","","","","","","","","","","","","NaN",""
"","S1","","html-keyboard-response","183","179989","0.0-1.0-254.0","0","0","32185","","null","","","null","28","","","","","","","","","","","","","","","",""
"","ISI","","html-keyboard-response","184","180992","0.0-1.0-255.0","0","0","32185","","null","","","null","28","NaN","","","","","","","","","","","","","","",""
"","S2","","html-keyboard-response","185","181246","0.0-1.0-256.0","0","0","32185","","null","","","null","28","","NaN","","","","","","","","","","","","","",""
"","response","","html-keyboard-response","186","183001","0.0-1.0-257.0-0.0","0","0","32185","","null","","","null","28","","","1","28","training","adjacent","CD","3","4","M.jpg","P.jpg","NaN","1","0","",""
"","too_slow_prompt","","html-keyboard-response","187","184004","0.0-1.0-259.0-0.0","1","0","32185","","null","","","null","","","","","","","","","","","","","","","","",""
"","time_out","","html-keyboard-response","188","186007","0.0-1.0-260.0-0.0","0","0","32185","","null","","","null","28","","","","","","","","","","","","","","","",""
"","ITI","","html-keyboard-response","189","187009","0.0-1.0-261.0","0","0","32185","","null","","","null","28","","","","","","","","","","","","","","","NaN",""
"","S1","","html-keyboard-response","190","187261","0.0-1.0-263.0","0","0","32185","","null","","","null","29","","","","","","","","","","","","","","","",""
"","ISI","","html-keyboard-response","191","188263","0.0-1.0-264.0","0","0","32185","","null","","","null","29","NaN","","","","","","","","","","","","","","",""
"","S2","","html-keyboard-response","192","188517","0.0-1.0-265.0","0","0","32185","","null","","","null","29","","NaN","","","","","","","","","","","","","",""
"","response","","html-keyboard-response","193","188739","0.0-1.0-266.0-0.0","0","0","32185","","219","","","68","29","","","1","29","training","adjacent","FE","6","5","N.jpg","R.jpg","0","0","1","",""
"","feedback","","html-keyboard-response","194","189744","0.0-1.0-267.0-0.0","0","0","32185","","null","","","null","29","","","","","","","","","","","","","","","",""
"","ITI","","html-keyboard-response","195","190747","0.0-1.0-270.0","0","0","32185","","null","","","null","29","","","","","","","","","","","","","","","NaN",""
"","S1","","html-keyboard-response","196","191000","0.0-1.0-272.0","0","0","32185","","null","","","null","30","","","","","","","","","","","","","","","",""
"","ISI","","html-keyboard-response","197","192004","0.0-1.0-273.0","0","0","32185","","null","","","null","30","NaN","","","","","","","","","","","","","","",""
"","S2","","html-keyboard-response","198","192258","0.0-1.0-274.0","0","0","32185","","null","","","null","30","","NaN","","","","","","","","","","","","","",""
"","response","","html-keyboard-response","199","192335","0.0-1.0-275.0-0.0","0","0","32185","","73","","","68","30","","","1","30","training","adjacent","CD","3","4","M.jpg","P.jpg","0","1","0","",""
"","feedback","","html-keyboard-response","200","193338","0.0-1.0-276.0-0.0","0","0","32185","","null","","","null","30","","","","","","","","","","","","","","","",""
"","time_out","","html-keyboard-response","201","195342","0.0-1.0-278.0-0.0","0","0","32185","","null","","","null","30","","","","","","","","","","","","","","","",""
"","ITI","","html-keyboard-response","202","196345","0.0-1.0-279.0","0","0","32185","","null","","","null","30","","","","","","","","","","","","","","","NaN",""
"","S1","","html-keyboard-response","203","196599","0.0-1.0-281.0","0","0","32185","","null","","","null","31","","","","","","","","","","","","","","","",""
"","ISI","","html-keyboard-response","204","197604","0.0-1.0-282.0","0","0","32185","","null","","","null","31","NaN","","","","","","","","","","","","","","",""
"","S2","","html-keyboard-response","205","197857","0.0-1.0-283.0","0","0","32185","","null","","","null","31","","NaN","","","","","","","","","","","","","",""
"","response","","html-keyboard-response","206","198258","0.0-1.0-284.0-0.0","0","0","32185","","397","","","75","31","","","1","31","training","adjacent","DC","4","3","P.jpg","M.jpg","1","0","0","",""
"","feedback","","html-keyboard-response","207","199262","0.0-1.0-285.0-0.0","0","0","32185","","null","","","null","31","","","","","","","","","","","","","","","",""
"","time_out","","html-keyboard-response","208","201264","0.0-1.0-287.0-0.0","0","0","32185","","null","","","null","31","","","","","","","","","","","","","","","",""
"","ITI","","html-keyboard-response","209","202268","0.0-1.0-288.0","0","0","32185","","null","","","null","31","","","","","","","","","","","","","","","NaN",""
"","S1","","html-keyboard-response","210","202521","0.0-1.0-290.0","0","0","32185","","null","","","null","32","","","","","","","","","","","","","","","",""
"","ISI","","html-keyboard-response","211","203524","0.0-1.0-291.0","0","0","32185","","843","","","68","32","d","","","","","","","","","","","","","","",""
"","S2","","html-keyboard-response","212","203779","0.0-1.0-292.0","0","0","32185","","null","","","null","32","","NaN","","","","","","","","","","","","","",""
"","response","","html-keyboard-response","213","203970","0.0-1.0-293.0-0.0","0","0","32185","","188","","","68","32","","","1","32","training","adjacent","CD","3","4","M.jpg","P.jpg","0","1","0","",""
"","feedback","","html-keyboard-response","214","204974","0.0-1.0-294.0-0.0","0","0","32185","","null","","","null","32","","","","","","","","","","","","","","","",""
"","time_out","","html-keyboard-response","215","206977","0.0-1.0-296.0-0.0","0","0","32185","","null","","","null","32","","","","","","","","","","","","","","","",""
"","ITI","","html-keyboard-response","216","207980","0.0-1.0-297.0","0","0","32185","","null","","","null","32","","","","","","","","","","","","","","","NaN",""
"","S1","","html-keyboard-response","217","208235","0.0-1.0-299.0","0","0","32185","","null","","","null","33","","","","","","","","","","","","","","","",""
"","ISI","","html-keyboard-response","218","209240","0.0-1.0-300.0","0","0","32185","","null","","","null","33","NaN","","","","","","","","","","","","","","",""
"","S2","","html-keyboard-response","219","209494","0.0-1.0-301.0","0","0","32185","","null","","","null","33","","NaN","","","","","","","","","","","","","",""
"","response","","html-keyboard-response","220","209918","0.0-1.0-302.0-0.0","0","0","32185","","421","","","68","33","","","1","33","training","adjacent","AB","1","2","Q.jpg","O.jpg","0","1","0","",""
"","feedback","","html-keyboard-response","221","210924","0.0-1.0-303.0-0.0","0","0","32185","","null","","","null","33","","","","","","","","","","","","","","","",""
"","time_out","","html-keyboard-response","222","212927","0.0-1.0-305.0-0.0","0","0","32185","","null","","","null","33","","","","","","","","","","","","","","","",""
"","ITI","","html-keyboard-response","223","213930","0.0-1.0-306.0","0","0","32185","","null","","","null","33","","","","","","","","","","","","","","","NaN",""
"","S1","","html-keyboard-response","224","214183","0.0-1.0-308.0","0","0","32185","","null","","","null","34","","","","","","","","","","","","","","","",""
"","ISI","","html-keyboard-response","225","215186","0.0-1.0-309.0","0","0","32185","","388","","","75","34","k","","","","","","","","","","","","","","",""
"","S2","","html-keyboard-response","226","215439","0.0-1.0-310.0","0","0","32185","","null","","","null","34","","NaN","","","","","","","","","","","","","",""
"","response","","html-keyboard-response","227","215870","0.0-1.0-311.0-0.0","0","0","32185","","427","","","68","34","","","1","34","training","adjacent","FG","6","7","N.jpg","L.jpg","0","1","0","",""
"","feedback","","html-keyboard-response","228","216873","0.0-1.0-312.0-0.0","0","0","32185","","null","","","null","34","","","","","","","","","","","","","","","",""
"","time_out","","html-keyboard-response","229","218875","0.0-1.0-314.0-0.0","0","0","32185","","null","","","null","34","","","","","","","","","","","","","","","",""
"","ITI","","html-keyboard-response","230","219878","0.0-1.0-315.0","0","0","32185","","null","","","null","34","","","","","","","","","","","","","","","NaN",""
"","S1","","html-keyboard-response","231","220131","0.0-1.0-317.0","0","0","32185","","null","","","null","35","","","","","","","","","","","","","","","",""
"","ISI","","html-keyboard-response","232","221134","0.0-1.0-318.0","0","0","32185","","null","","","null","35","NaN","","","","","","","","","","","","","","",""
"","S2","","html-keyboard-response","233","221339","0.0-1.0-319.0","0","0","32185","","201","","","75","35","","k","1","35","training","adjacent","FE","6","5","N.jpg","R.jpg","1","0","0","",""
"","feedback","","html-keyboard-response","234","222343","0.0-1.0-321.0-0.0","0","0","32185","","null","","","null","35","","","","","","","","","","","","","","","",""
"","time_out","","html-keyboard-response","235","224346","0.0-1.0-323.0-0.0","0","0","32185","","null","","","null","35","","","","","","","","","","","","","","","",""
"","ITI","","html-keyboard-response","236","225350","0.0-1.0-324.0","0","0","32185","","null","","","null","35","","","","","","","","","","","","","","","NaN",""
"","S1","","html-keyboard-response","237","225604","0.0-1.0-326.0","0","0","32185","","null","","","null","36","","","","","","","","","","","","","","","",""
"","ISI","","html-keyboard-response","238","226608","0.0-1.0-327.0","0","0","32185","","null","","","null","36","NaN","","","","","","","","","","","","","","",""
"","S2","","html-keyboard-response","239","226861","0.0-1.0-328.0","0","0","32185","","null","","","null","36","","NaN","","","","","","","","","","","","","",""
"","response","","html-keyboard-response","240","226872","0.0-1.0-329.0-0.0","0","0","32185","","11","","","68","36","","","1","36","training","adjacent","CB","3","2","M.jpg","O.jpg","0","0","1","",""
"","feedback","","html-keyboard-response","241","227875","0.0-1.0-330.0-0.0","0","0","32185","","null","","","null","36","","","","","","","","","","","","","","","",""
"","ITI","","html-keyboard-response","242","228877","0.0-1.0-333.0","0","0","32185","","null","","","null","36","","","","","","","","","","","","","","","NaN",""
"","S1","","html-keyboard-response","243","229130","0.0-1.0-335.0","0","0","32185","","null","","","null","37","","","","","","","","","","","","","","","",""
"","ISI","","html-keyboard-response","244","230132","0.0-1.0-336.0","0","0","32185","","null","","","null","37","NaN","","","","","","","","","","","","","","",""
"","S2","","html-keyboard-response","245","230387","0.0-1.0-337.0","0","0","32185","","null","","","null","37","","NaN","","","","","","","","","","","","","",""
"","response","","html-keyboard-response","246","230394","0.0-1.0-338.0-0.0","0","0","32185","","3","","","68","37","","","1","37","training","adjacent","ED","5","4","R.jpg","P.jpg","0","0","1","",""
"","feedback","","html-keyboard-response","247","231399","0.0-1.0-339.0-0.0","0","0","32185","","null","","","null","37","","","","","","","","","","","","","","","",""
"","ITI","","html-keyboard-response","248","232403","0.0-1.0-342.0","0","0","32185","","null","","","null","37","","","","","","","","","","","","","","","NaN",""
"","S1","","html-keyboard-response","249","232656","0.0-1.0-344.0","0","0","32185","","null","","","null","38","","","","","","","","","","","","","","","",""
"","ISI","","html-keyboard-response","250","233660","0.0-1.0-345.0","0","0","32185","","null","","","null","38","NaN","","","","","","","","","","","","","","",""
"","S2","","html-keyboard-response","251","233776","0.0-1.0-346.0","0","0","32185","","113","","","68","38","","d","1","38","training","adjacent","EF","5","6","R.jpg","N.jpg","0","1","0","",""
"","feedback","","html-keyboard-response","252","234779","0.0-1.0-348.0-0.0","0","0","32185","","null","","","null","38","","","","","","","","","","","","","","","",""
"","time_out","","html-keyboard-response","253","236782","0.0-1.0-350.0-0.0","0","0","32185","","null","","","null","38","","","","","","","","","","","","","","","",""
"","ITI","","html-keyboard-response","254","237787","0.0-1.0-351.0","0","0","32185","","null","","","null","38","","","","","","","","","","","","","","","NaN",""
"","S1","","html-keyboard-response","255","238040","0.0-1.0-353.0","0","0","32185","","null","","","null","39","","","","","","","","","","","","","","","",""
"","ISI","","html-keyboard-response","256","239044","0.0-1.0-354.0","0","0","32185","","null","","","null","39","NaN","","","","","","","","","","","","","","",""
"","S2","","html-keyboard-response","257","239254","0.0-1.0-355.0","0","0","32185","","205","","","68","39","","d","1","39","training","adjacent","BC","2","3","O.jpg","M.jpg","0","1","0","",""
"","feedback","","html-keyboard-response","258","240259","0.0-1.0-357.0-0.0","0","0","32185","","null","","","null","39","","","","","","","","","","","","","","","",""
"","time_out","","html-keyboard-response","259","242262","0.0-1.0-359.0-0.0","0","0","32185","","null","","","null","39","","","","","","","","","","","","","","","",""
"","ITI","","html-keyboard-response","260","243266","0.0-1.0-360.0","0","0","32185","","null","","","null","39","","","","","","","","","","","","","","","NaN",""
"","S1","","html-keyboard-response","261","243521","0.0-1.0-362.0","0","0","32185","","null","","","null","40","","","","","","","","","","","","","","","",""
"","ISI","","html-keyboard-response","262","244524","0.0-1.0-363.0","0","0","32185","","null","","","null","40","NaN","","","","","","","","","","","","","","",""
"","S2","","html-keyboard-response","263","244744","0.0-1.0-364.0","0","0","32185","","217","","","68","40","","d","1","40","training","adjacent","DC","4","3","P.jpg","M.jpg","0","0","1","",""
"","feedback","","html-keyboard-response","264","245749","0.0-1.0-366.0-0.0","0","0","32185","","null","","","null","40","","","","","","","","","","","","","","","",""
"","ITI","","html-keyboard-response","265","246753","0.0-1.0-369.0","0","0","32185","","null","","","null","40","","","","","","","","","","","","","","","NaN",""
"","S1","","html-keyboard-response","266","247006","0.0-1.0-371.0","0","0","32185","","null","","","null","41","","","","","","","","","","","","","","","",""
"","ISI","","html-keyboard-response","267","248009","0.0-1.0-372.0","0","0","32185","","null","","","null","41","NaN","","","","","","","","","","","","","","",""
"","S2","","html-keyboard-response","268","248090","0.0-1.0-373.0","0","0","32185","","78","","","68","41","","d","1","41","training","adjacent","BA","2","1","O.jpg","Q.jpg","0","0","1","",""
"","feedback","","html-keyboard-response","269","249094","0.0-1.0-375.0-0.0","0","0","32185","","null","","","null","41","","","","","","","","","","","","","","","",""
"","ITI","","html-keyboard-response","270","250096","0.0-1.0-378.0","0","0","32185","","null","","","null","41","","","","","","","","","","","","","","","NaN",""
"","S1","","html-keyboard-response","271","250349","0.0-1.0-380.0","0","0","32185","","null","","","null","42","","","","","","","","","","","","","","","",""
"","ISI","","html-keyboard-response","272","251353","0.0-1.0-381.0","0","0","32185","","null","","","null","42","NaN","","","","","","","","","","","","","","",""
"","S2","","html-keyboard-response","273","251359","0.0-1.0-382.0","0","0","32185","","2","","","68","42","","d","1","42","training","adjacent","ED","5","4","R.jpg","P.jpg","0","0","1","",""
"","feedback","","html-keyboard-response","274","252363","0.0-1.0-384.0-0.0","0","0","32185","","null","","","null","42","","","","","","","","","","","","","","","",""
"","ITI","","html-keyboard-response","275","253368","0.0-1.0-387.0","0","0","32185","","null","","","null","42","","","","","","","","","","","","","","","NaN",""
"","S1","","html-keyboard-response","276","253622","0.0-1.0-389.0","0","0","32185","","null","","","null","43","","","","","","","","","","","","","","","",""
"","ISI","","html-keyboard-response","277","254624","0.0-1.0-390.0","0","0","32185","","null","","","null","43","NaN","","","","","","","","","","","","","","",""
"","S2","","html-keyboard-response","278","254832","0.0-1.0-391.0","0","0","32185","","206","","","68","43","","d","1","43","training","adjacent","FG","6","7","N.jpg","L.jpg","0","1","0","",""
"","feedback","","html-keyboard-response","279","255835","0.0-1.0-393.0-0.0","0","0","32185","","null","","","null","43","","","","","","","","","","","","","","","",""
"","time_out","","html-keyboard-response","280","257838","0.0-1.0-395.0-0.0","0","0","32185","","null","","","null","43","","","","","","","","","","","","","","","",""
"","ITI","","html-keyboard-response","281","258842","0.0-1.0-396.0","0","0","32185","","null","","","null","43","","","","","","","","","","","","","","","NaN",""
"","S1","","html-keyboard-response","282","259097","0.0-1.0-398.0","0","0","32185","","null","","","null","44","","","","","","","","","","","","","","","",""
"","ISI","","html-keyboard-response","283","260114","0.0-1.0-399.0","0","0","32185","","848","","","68","44","d","","","","","","","","","","","","","","",""
"","S2","","html-keyboard-response","284","260369","0.0-1.0-400.0","0","0","32185","","null","","","null","44","","NaN","","","","","","","","","","","","","",""
"","response","","html-keyboard-response","285","260401","0.0-1.0-401.0-0.0","0","0","32185","","30","","","68","44","","","1","44","training","adjacent","DC","4","3","P.jpg","M.jpg","0","0","1","",""
"","feedback","","html-keyboard-response","286","261404","0.0-1.0-402.0-0.0","0","0","32185","","null","","","null","44","","","","","","","","","","","","","","","",""
"","ITI","","html-keyboard-response","287","262407","0.0-1.0-405.0","0","0","32185","","null","","","null","44","","","","","","","","","","","","","","","NaN",""
"","S1","","html-keyboard-response","288","262662","0.0-1.0-407.0","0","0","32185","","null","","","null","45","","","","","","","","","","","","","","","",""
"","ISI","","html-keyboard-response","289","263665","0.0-1.0-408.0","0","0","32185","","null","","","null","45","NaN","","","","","","","","","","","","","","",""
"","S2","","html-keyboard-response","290","263841","0.0-1.0-409.0","0","0","32185","","173","","","68","45","","d","1","45","training","adjacent","AB","1","2","Q.jpg","O.jpg","0","1","0","",""
"","feedback","","html-keyboard-response","291","264843","0.0-1.0-411.0-0.0","0","0","32185","","null","","","null","45","","","","","","","","","","","","","","","",""
"","time_out","","html-keyboard-response","292","266846","0.0-1.0-413.0-0.0","0","0","32185","","null","","","null","45","","","","","","","","","","","","","","","",""
"","ITI","","html-keyboard-response","293","267850","0.0-1.0-414.0","0","0","32185","","null","","","null","45","","","","","","","","","","","","","","","NaN",""
"","S1","","html-keyboard-response","294","268105","0.0-1.0-416.0","0","0","32185","","null","","","null","46","","","","","","","","","","","","","","","",""
"","ISI","","html-keyboard-response","295","269112","0.0-1.0-417.0","0","0","32185","","870","","","68","46","d","","","","","","","","","","","","","","",""
"","S2","","html-keyboard-response","296","269335","0.0-1.0-418.0","0","0","32185","","221","","","68","46","","d","1","46","training","adjacent","CB","3","2","M.jpg","O.jpg","0","0","1","",""
"","feedback","","html-keyboard-response","297","270338","0.0-1.0-420.0-0.0","0","0","32185","","null","","","null","46","","","","","","","","","","","","","","","",""
"","ITI","","html-keyboard-response","298","271341","0.0-1.0-423.0","0","0","32185","","null","","","null","46","","","","","","","","","","","","","","","NaN",""
"","S1","","html-keyboard-response","299","271594","0.0-1.0-425.0","0","0","32185","","null","","","null","47","","","","","","","","","","","","","","","",""
"","ISI","","html-keyboard-response","300","272598","0.0-1.0-426.0","0","0","32185","","null","","","null","47","NaN","","","","","","","","","","","","","","",""
"","S2","","html-keyboard-response","301","272663","0.0-1.0-427.0","0","0","32185","","63","","","68","47","","d","1","47","training","adjacent","FG","6","7","N.jpg","L.jpg","0","1","0","",""
"","feedback","","html-keyboard-response","302","273665","0.0-1.0-429.0-0.0","0","0","32185","","null","","","null","47","","","","","","","","","","","","","","","",""
"","time_out","","html-keyboard-response","303","275669","0.0-1.0-431.0-0.0","0","0","32185","","null","","","null","47","","","","","","","","","","","","","","","",""
"","ITI","","html-keyboard-response","304","276672","0.0-1.0-432.0","0","0","32185","","null","","","null","47","","","","","","","","","","","","","","","NaN",""
"","block_over","","html-keyboard-response","305","280959","0.0-1.0-433.0-0.0","0","0","32185","","4283","","","32","47","","","","","","","","","","","","","","","",""
"","S1","","html-keyboard-response","306","281213","0.0-1.0-434.0","0","0","32185","","null","","","null","48","","","","","","","","","","","","","","","",""
"","ISI","","html-keyboard-response","307","282218","0.0-1.0-435.0","0","0","32185","","null","","","null","48","NaN","","","","","","","","","","","","","","",""
"","S2","","html-keyboard-response","308","282472","0.0-1.0-436.0","0","0","32185","","null","","","null","48","","NaN","","","","","","","","","","","","","",""
"","response","","html-keyboard-response","309","283114","0.0-1.0-437.0-0.0","0","0","32185","","639","","","75","48","","","2","48","training","adjacent","CB","3","2","M.jpg","O.jpg","1","0","0","",""
"","feedback","","html-keyboard-response","310","284119","0.0-1.0-438.0-0.0","0","0","32185","","null","","","null","48","","","","","","","","","","","","","","","",""
"","time_out","","html-keyboard-response","311","286121","0.0-1.0-440.0-0.0","0","0","32185","","null","","","null","48","","","","","","","","","","","","","","","",""
"","ITI","","html-keyboard-response","312","287125","0.0-1.0-441.0","0","0","32185","","null","","","null","48","","","","","","","","","","","","","","","NaN",""
"","S1","","html-keyboard-response","313","287379","0.0-1.0-443.0","0","0","32185","","null","","","null","49","","","","","","","","","","","","","","","",""
"","ISI","","html-keyboard-response","314","288382","0.0-1.0-444.0","0","0","32185","","null","","","null","49","NaN","","","","","","","","","","","","","","",""
"","S2","","html-keyboard-response","315","288636","0.0-1.0-445.0","0","0","32185","","null","","","null","49","","NaN","","","","","","","","","","","","","",""
"","response","","html-keyboard-response","316","289232","0.0-1.0-446.0-0.0","0","0","32185","","592","","","68","49","","","2","49","training","adjacent","DE","4","5","P.jpg","R.jpg","0","1","0","",""
"","feedback","","html-keyboard-response","317","290237","0.0-1.0-447.0-0.0","0","0","32185","","null","","","null","49","","","","","","","","","","","","","","","",""
"","time_out","","html-keyboard-response","318","292241","0.0-1.0-449.0-0.0","0","0","32185","","null","","","null","49","","","","","","","","","","","","","","","",""
"","ITI","","html-keyboard-response","319","293244","0.0-1.0-450.0","0","0","32185","","null","","","null","49","","","","","","","","","","","","","","","NaN",""
"","S1","","html-keyboard-response","320","293498","0.0-1.0-452.0","0","0","32185","","null","","","null","50","","","","","","","","","","","","","","","",""
"","ISI","","html-keyboard-response","321","294501","0.0-1.0-453.0","0","0","32185","","null","","","null","50","NaN","","","","","","","","","","","","","","",""
"","S2","","html-keyboard-response","322","294753","0.0-1.0-454.0","0","0","32185","","249","","","75","50","","k","2","50","training","adjacent","CB","3","2","M.jpg","O.jpg","1","0","0","",""
"","feedback","","html-keyboard-response","323","295758","0.0-1.0-456.0-0.0","0","0","32185","","null","","","null","50","","","","","","","","","","","","","","","",""
"","time_out","","html-keyboard-response","324","297762","0.0-1.0-458.0-0.0","0","0","32185","","null","","","null","50","","","","","","","","","","","","","","","",""
"","ITI","","html-keyboard-response","325","298766","0.0-1.0-459.0","0","0","32185","","null","","","null","50","","","","","","","","","","","","","","","NaN",""
"","S1","","html-keyboard-response","326","299020","0.0-1.0-461.0","0","0","32185","","null","","","null","51","","","","","","","","","","","","","","","",""
"","ISI","","html-keyboard-response","327","300024","0.0-1.0-462.0","0","0","32185","","null","","","null","51","NaN","","","","","","","","","","","","","","",""
"","S2","","html-keyboard-response","328","300221","0.0-1.0-463.0","0","0","32185","","194","","","68","51","","d","2","51","training","adjacent","ED","5","4","R.jpg","P.jpg","0","0","1","",""
"","feedback","","html-keyboard-response","329","301223","0.0-1.0-465.0-0.0","0","0","32185","","null","","","null","51","","","","","","","","","","","","","","","",""
"","ITI","","html-keyboard-response","330","302225","0.0-1.0-468.0","0","0","32185","","null","","","null","51","","","","","","","","","","","","","","","NaN",""
"","S1","","html-keyboard-response","331","302479","0.0-1.0-470.0","0","0","32185","","null","","","null","52","","","","","","","","","","","","","","","",""
"","ISI","","html-keyboard-response","332","303482","0.0-1.0-471.0","0","0","32185","","null","","","null","52","NaN","","","","","","","","","","","","","","",""
"","S2","","html-keyboard-response","333","303737","0.0-1.0-472.0","0","0","32185","","null","","","null","52","","NaN","","","","","","","","","","","","","",""
"","response","","html-keyboard-response","334","303905","0.0-1.0-473.0-0.0","0","0","32185","","164","","","75","52","","","2","52","training","adjacent","DE","4","5","P.jpg","R.jpg","1","1","1","",""
"","feedback","","html-keyboard-response","335","304910","0.0-1.0-474.0-0.0","0","0","32185","","null","","","null","52","","","","","","","","","","","","","","","",""
"","ITI","","html-keyboard-response","336","305913","0.0-1.0-477.0","0","0","32185","","null","","","null","52","","","","","","","","","","","","","","","NaN",""
"","S1","","html-keyboard-response","337","306166","0.0-1.0-479.0","0","0","32185","","null","","","null","53","","","","","","","","","","","","","","","",""
"","ISI","","html-keyboard-response","338","307169","0.0-1.0-480.0","0","0","32185","","null","","","null","53","NaN","","","","","","","","","","","","","","",""
"","S2","","html-keyboard-response","339","307422","0.0-1.0-481.0","0","0","32185","","null","","","null","53","","NaN","","","","","","","","","","","","","",""
"","response","","html-keyboard-response","340","307911","0.0-1.0-482.0-0.0","0","0","32185","","487","","","68","53","","","2","53","training","adjacent","CD","3","4","M.jpg","P.jpg","0","1","0","",""
"","feedback","","html-keyboard-response","341","308914","0.0-1.0-483.0-0.0","0","0","32185","","null","","","null","53","","","","","","","","","","","","","","","",""
"","time_out","","html-keyboard-response","342","310917","0.0-1.0-485.0-0.0","0","0","32185","","null","","","null","53","","","","","","","","","","","","","","","",""
"","ITI","","html-keyboard-response","343","311920","0.0-1.0-486.0","0","0","32185","","null","","","null","53","","","","","","","","","","","","","","","NaN",""
"","S1","","html-keyboard-response","344","312173","0.0-1.0-488.0","0","0","32185","","null","","","null","54","","","","","","","","","","","","","","","",""
"","ISI","","html-keyboard-response","345","313175","0.0-1.0-489.0","0","0","32185","","null","","","null","54","NaN","","","","","","","","","","","","","","",""
"","S2","","html-keyboard-response","346","313386","0.0-1.0-490.0","0","0","32185","","208","","","68","54","","d","2","54","training","adjacent","FG","6","7","N.jpg","L.jpg","0","1","0","",""
"","feedback","","html-keyboard-response","347","314389","0.0-1.0-492.0-0.0","0","0","32185","","null","","","null","54","","","","","","","","","","","","","","","",""
"","time_out","","html-keyboard-response","348","316392","0.0-1.0-494.0-0.0","0","0","32185","","null","","","null","54","","","","","","","","","","","","","","","",""
"","ITI","","html-keyboard-response","349","317395","0.0-1.0-495.0","0","0","32185","","null","","","null","54","","","","","","","","","","","","","","","NaN",""
"","S1","","html-keyboard-response","350","317650","0.0-1.0-497.0","0","0","32185","","null","","","null","55","","","","","","","","","","","","","","","",""
"","ISI","","html-keyboard-response","351","318653","0.0-1.0-498.0","0","0","32185","","null","","","null","55","NaN","","","","","","","","","","","","","","",""
"","S2","","html-keyboard-response","352","318867","0.0-1.0-499.0","0","0","32185","","211","","","75","55","","k","2","55","training","adjacent","DC","4","3","P.jpg","M.jpg","1","0","0","",""
"","feedback","","html-keyboard-response","353","319870","0.0-1.0-501.0-0.0","0","0","32185","","null","","","null","55","","","","","","","","","","","","","","","",""
"","time_out","","html-keyboard-response","354","321872","0.0-1.0-503.0-0.0","0","0","32185","","null","","","null","55","","","","","","","","","","","","","","","",""
"","ITI","","html-keyboard-response","355","322874","0.0-1.0-504.0","0","0","32185","","null","","","null","55","","","","","","","","","","","","","","","NaN",""
"","S1","","html-keyboard-response","356","323127","0.0-1.0-506.0","0","0","32185","","null","","","null","56","","","","","","","","","","","","","","","",""
"","ISI","","html-keyboard-response","357","324131","0.0-1.0-507.0","0","0","32185","","563","","","68","56","d","","","","","","","","","","","","","","",""
"","S2","","html-keyboard-response","358","324384","0.0-1.0-508.0","0","0","32185","","null","","","null","56","","NaN","","","","","","","","","","","","","",""
"","response","","html-keyboard-response","359","324568","0.0-1.0-509.0-0.0","0","0","32185","","181","","","68","56","","","2","56","training","adjacent","CB","3","2","M.jpg","O.jpg","0","0","1","",""
"","feedback","","html-keyboard-response","360","325571","0.0-1.0-510.0-0.0","0","0","32185","","null","","","null","56","","","","","","","","","","","","","","","",""
"","ITI","","html-keyboard-response","361","326575","0.0-1.0-513.0","0","0","32185","","null","","","null","56","","","","","","","","","","","","","","","NaN",""
"","S1","","html-keyboard-response","362","326828","0.0-1.0-515.0","0","0","32185","","null","","","null","57","","","","","","","","","","","","","","","",""
"","ISI","","html-keyboard-response","363","327832","0.0-1.0-516.0","0","0","32185","","null","","","null","57","NaN","","","","","","","","","","","","","","",""
"","S2","","html-keyboard-response","364","328086","0.0-1.0-517.0","0","0","32185","","null","","","null","57","","NaN","","","","","","","","","","","","","",""
"","response","","html-keyboard-response","365","329026","0.0-1.0-518.0-0.0","0","0","32185","","937","","","68","57","","","2","57","training","adjacent","BA","2","1","O.jpg","Q.jpg","0","0","1","",""
"","feedback","","html-keyboard-response","366","330031","0.0-1.0-519.0-0.0","0","0","32185","","null","","","null","57","","","","","","","","","","","","","","","",""
"","ITI","","html-keyboard-response","367","331035","0.0-1.0-522.0","0","0","32185","","null","","","null","57","","","","","","","","","","","","","","","NaN",""
"","S1","","html-keyboard-response","368","331296","0.0-1.0-524.0","0","0","32185","","null","","","null","58","","","","","","","","","","","","","","","",""
"","ISI","","html-keyboard-response","369","332300","0.0-1.0-525.0","0","0","32185","","null","","","null","58","NaN","","","","","","","","","","","","","","",""
"","S2","","html-keyboard-response","370","332554","0.0-1.0-526.0","0","0","32185","","null","","","null","58","","NaN","","","","","","","","","","","","","",""
"","response","","html-keyboard-response","371","332822","0.0-1.0-527.0-0.0","0","0","32185","","267","","","68","58","","","2","58","training","adjacent","DC","4","3","P.jpg","M.jpg","0","0","1","",""
"","feedback","","html-keyboard-response","372","333825","0.0-1.0-528.0-0.0","0","0","32185","","null","","","null","58","","","","","","","","","","","","","","","",""
"","ITI","","html-keyboard-response","373","334830","0.0-1.0-531.0","0","0","32185","","null","","","null","58","","","","","","","","","","","","","","","NaN",""
"","S1","","html-keyboard-response","374","335084","0.0-1.0-533.0","0","0","32185","","null","","","null","59","","","","","","","","","","","","","","","",""
"","ISI","","html-keyboard-response","375","336089","0.0-1.0-534.0","0","0","32185","","null","","","null","59","NaN","","","","","","","","","","","","","","",""
"","S2","","html-keyboard-response","376","336342","0.0-1.0-535.0","0","0","32185","","null","","","null","59","","NaN","","","","","","","","","","","","","",""
"","response","","html-keyboard-response","377","336950","0.0-1.0-536.0-0.0","0","0","32185","","606","","","68","59","","","2","59","training","adjacent","EF","5","6","R.jpg","N.jpg","0","1","0","",""
"","feedback","","html-keyboard-response","378","337954","0.0-1.0-537.0-0.0","0","0","32185","","null","","","null","59","","","","","","","","","","","","","","","",""
"","time_out","","html-keyboard-response","379","339959","0.0-1.0-539.0-0.0","0","0","32185","","null","","","null","59","","","","","","","","","","","","","","","",""
"","ITI","","html-keyboard-response","380","340962","0.0-1.0-540.0","0","0","32185","","null","","","null","59","","","","","","","","","","","","","","","NaN",""
"","S1","","html-keyboard-response","381","341216","0.0-1.0-542.0","0","0","32185","","null","","","null","60","","","","","","","","","","","","","","","",""
"","ISI","","html-keyboard-response","382","342220","0.0-1.0-543.0","0","0","32185","","null","","","null","60","NaN","","","","","","","","","","","","","","",""
"","S2","","html-keyboard-response","383","342474","0.0-1.0-544.0","0","0","32185","","null","","","null","60","","NaN","","","","","","","","","","","","","",""
"","response","","html-keyboard-response","384","343168","0.0-1.0-545.0-0.0","0","0","32185","","692","","","68","60","","","2","60","training","adjacent","DE","4","5","P.jpg","R.jpg","0","1","0","",""
"","feedback","","html-keyboard-response","385","344170","0.0-1.0-546.0-0.0","0","0","32185","","null","","","null","60","","","","","","","","","","","","","","","",""
"","time_out","","html-keyboard-response","386","346172","0.0-1.0-548.0-0.0","0","0","32185","","null","","","null","60","","","","","","","","","","","","","","","",""
"","ITI","","html-keyboard-response","387","347174","0.0-1.0-549.0","0","0","32185","","null","","","null","60","","","","","","","","","","","","","","","NaN",""
"","S1","","html-keyboard-response","388","347427","0.0-1.0-551.0","0","0","32185","","null","","","null","61","","","","","","","","","","","","","","","",""
"","ISI","","html-keyboard-response","389","348430","0.0-1.0-552.0","0","0","32185","","691","","","68","61","d","","","","","","","","","","","","","","",""
"","S2","","html-keyboard-response","390","348541","0.0-1.0-553.0","0","0","32185","","109","","","68","61","","d","2","61","training","adjacent","CD","3","4","M.jpg","P.jpg","0","1","0","",""
"","feedback","","html-keyboard-response","391","349544","0.0-1.0-555.0-0.0","0","0","32185","","null","","","null","61","","","","","","","","","","","","","","","",""
"","time_out","","html-keyboard-response","392","351547","0.0-1.0-557.0-0.0","0","0","32185","","null","","","null","61","","","","","","","","","","","","","","","",""
"","ITI","","html-keyboard-response","393","352551","0.0-1.0-558.0","0","0","32185","","null","","","null","61","","","","","","","","","","","","","","","NaN",""
"","S1","","html-keyboard-response","394","352805","0.0-1.0-560.0","0","0","32185","","null","","","null","62","","","","","","","","","","","","","","","",""
"","ISI","","html-keyboard-response","395","353809","0.0-1.0-561.0","0","0","32185","","null","","","null","62","NaN","","","","","","","","","","","","","","",""
"","S2","","html-keyboard-response","396","354063","0.0-1.0-562.0","0","0","32185","","null","","","null","62","","NaN","","","","","","","","","","","","","",""
"","response","","html-keyboard-response","397","355230","0.0-1.0-563.0-0.0","0","0","32185","","1164","","","68","62","","","2","62","training","adjacent","ED","5","4","R.jpg","P.jpg","0","0","1","",""
"","feedback","","html-keyboard-response","398","356234","0.0-1.0-564.0-0.0","0","0","32185","","null","","","null","62","","","","","","","","","","","","","","","",""
"","ITI","","html-keyboard-response","399","357239","0.0-1.0-567.0","0","0","32185","","null","","","null","62","","","","","","","","","","","","","","","NaN",""
"","S1","","html-keyboard-response","400","357493","0.0-1.0-569.0","0","0","32185","","null","","","null","63","","","","","","","","","","","","","","","",""
"","ISI","","html-keyboard-response","401","358496","0.0-1.0-570.0","0","0","32185","","null","","","null","63","NaN","","","","","","","","","","","","","","",""
"","S2","","html-keyboard-response","402","358750","0.0-1.0-571.0","0","0","32185","","null","","","null","63","","NaN","","","","","","","","","","","","","",""
"","response","","html-keyboard-response","403","359398","0.0-1.0-572.0-0.0","0","0","32185","","645","","","68","63","","","2","63","training","adjacent","DE","4","5","P.jpg","R.jpg","0","1","0","",""
"","feedback","","html-keyboard-response","404","360402","0.0-1.0-573.0-0.0","0","0","32185","","null","","","null","63","","","","","","","","","","","","","","","",""
"","time_out","","html-keyboard-response","405","362405","0.0-1.0-575.0-0.0","0","0","32185","","null","","","null","63","","","","","","","","","","","","","","","",""
"","ITI","","html-keyboard-response","406","363409","0.0-1.0-576.0","0","0","32185","","null","","","null","63","","","","","","","","","","","","","","","NaN",""
"","S1","","html-keyboard-response","407","363664","0.0-1.0-578.0","0","0","32185","","null","","","null","64","","","","","","","","","","","","","","","",""
"","ISI","","html-keyboard-response","408","364667","0.0-1.0-579.0","0","0","32185","","null","","","null","64","NaN","","","","","","","","","","","","","","",""
"","S2","","html-keyboard-response","409","364921","0.0-1.0-580.0","0","0","32185","","null","","","null","64","","NaN","","","","","","","","","","","","","",""
"","response","","html-keyboard-response","410","365439","0.0-1.0-581.0-0.0","0","0","32185","","514","","","75","64","","","2","64","training","adjacent","CD","3","4","M.jpg","P.jpg","1","1","1","",""
"","feedback","","html-keyboard-response","411","366443","0.0-1.0-582.0-0.0","0","0","32185","","null","","","null","64","","","","","","","","","","","","","","","",""
"","ITI","","html-keyboard-response","412","367446","0.0-1.0-585.0","0","0","32185","","null","","","null","64","","","","","","","","","","","","","","","NaN",""
"","S1","","html-keyboard-response","413","367701","0.0-1.0-587.0","0","0","32185","","null","","","null","65","","","","","","","","","","","","","","","",""
"","ISI","","html-keyboard-response","414","368705","0.0-1.0-588.0","0","0","32185","","null","","","null","65","NaN","","","","","","","","","","","","","","",""
"","S2","","html-keyboard-response","415","368782","0.0-1.0-589.0","0","0","32185","","74","","","68","65","","d","2","65","training","adjacent","GF","7","6","L.jpg","N.jpg","0","0","1","",""
"","feedback","","html-keyboard-response","416","369787","0.0-1.0-591.0-0.0","0","0","32185","","null","","","null","65","","","","","","","","","","","","","","","",""
"","ITI","","html-keyboard-response","417","370790","0.0-1.0-594.0","0","0","32185","","null","","","null","65","","","","","","","","","","","","","","","NaN",""
"","S1","","html-keyboard-response","418","371044","0.0-1.0-596.0","0","0","32185","","null","","","null","66","","","","","","","","","","","","","","","",""
"","ISI","","html-keyboard-response","419","372047","0.0-1.0-597.0","0","0","32185","","null","","","null","66","NaN","","","","","","","","","","","","","","",""
"","S2","","html-keyboard-response","420","372302","0.0-1.0-598.0","0","0","32185","","null","","","null","66","","NaN","","","","","","","","","","","","","",""
"","response","","html-keyboard-response","421","372863","0.0-1.0-599.0-0.0","0","0","32185","","560","","","68","66","","","2","66","training","adjacent","AB","1","2","Q.jpg","O.jpg","0","1","0","",""
"","feedback","","html-keyboard-response","422","373866","0.0-1.0-600.0-0.0","0","0","32185","","null","","","null","66","","","","","","","","","","","","","","","",""
"","time_out","","html-keyboard-response","423","375868","0.0-1.0-602.0-0.0","0","0","32185","","null","","","null","66","","","","","","","","","","","","","","","",""
"","ITI","","html-keyboard-response","424","376871","0.0-1.0-603.0","0","0","32185","","null","","","null","66","","","","","","","","","","","","","","","NaN",""
"","S1","","html-keyboard-response","425","377126","0.0-1.0-605.0","0","0","32185","","null","","","null","67","","","","","","","","","","","","","","","",""
"","ISI","","html-keyboard-response","426","378130","0.0-1.0-606.0","0","0","32185","","478","","","75","67","k","","","","","","","","","","","","","","",""
"","S2","","html-keyboard-response","427","378134","0.0-1.0-607.0","0","0","32185","","0","","","75","67","","k","2","67","training","adjacent","ED","5","4","R.jpg","P.jpg","1","0","0","",""
"","feedback","","html-keyboard-response","428","379138","0.0-1.0-609.0-0.0","0","0","32185","","null","","","null","67","","","","","","","","","","","","","","","",""
"","time_out","","html-keyboard-response","429","381142","0.0-1.0-611.0-0.0","0","0","32185","","null","","","null","67","","","","","","","","","","","","","","","",""
"","ITI","","html-keyboard-response","430","382143","0.0-1.0-612.0","0","0","32185","","null","","","null","67","","","","","","","","","","","","","","","NaN",""
"","S1","","html-keyboard-response","431","382396","0.0-1.0-614.0","0","0","32185","","null","","","null","68","","","","","","","","","","","","","","","",""
"","ISI","","html-keyboard-response","432","383399","0.0-1.0-615.0","0","0","32185","","null","","","null","68","NaN","","","","","","","","","","","","","","",""
"","S2","","html-keyboard-response","433","383637","0.0-1.0-616.0","0","0","32185","","234","","","68","68","","d","2","68","training","adjacent","FG","6","7","N.jpg","L.jpg","0","1","0","",""
"","feedback","","html-keyboard-response","434","384642","0.0-1.0-618.0-0.0","0","0","32185","","null","","","null","68","","","","","","","","","","","","","","","",""
"","time_out","","html-keyboard-response","435","386646","0.0-1.0-620.0-0.0","0","0","32185","","null","","","null","68","","","","","","","","","","","","","","","",""
"","ITI","","html-keyboard-response","436","387650","0.0-1.0-621.0","0","0","32185","","null","","","null","68","","","","","","","","","","","","","","","NaN",""
"","S1","","html-keyboard-response","437","387904","0.0-1.0-623.0","0","0","32185","","null","","","null","69","","","","","","","","","","","","","","","",""
"","ISI","","html-keyboard-response","438","388907","0.0-1.0-624.0","0","0","32185","","803","","","68","69","d","","","","","","","","","","","","","","",""
"","S2","","html-keyboard-response","439","389161","0.0-1.0-625.0","0","0","32185","","null","","","null","69","","NaN","","","","","","","","","","","","","",""
"","response","","html-keyboard-response","440","389342","0.0-1.0-626.0-0.0","0","0","32185","","181","","","68","69","","","2","69","training","adjacent","FG","6","7","N.jpg","L.jpg","0","1","0","",""
"","feedback","","html-keyboard-response","441","390346","0.0-1.0-627.0-0.0","0","0","32185","","null","","","null","69","","","","","","","","","","","","","","","",""
"","time_out","","html-keyboard-response","442","392350","0.0-1.0-629.0-0.0","0","0","32185","","null","","","null","69","","","","","","","","","","","","","","","",""
"","ITI","","html-keyboard-response","443","393353","0.0-1.0-630.0","0","0","32185","","null","","","null","69","","","","","","","","","","","","","","","NaN",""
"","S1","","html-keyboard-response","444","393608","0.0-1.0-632.0","0","0","32185","","null","","","null","70","","","","","","","","","","","","","","","",""
"","ISI","","html-keyboard-response","445","394611","0.0-1.0-633.0","0","0","32185","","null","","","null","70","NaN","","","","","","","","","","","","","","",""
"","S2","","html-keyboard-response","446","394864","0.0-1.0-634.0","0","0","32185","","null","","","null","70","","NaN","","","","","","","","","","","","","",""
"","response","","html-keyboard-response","447","395232","0.0-1.0-635.0-0.0","0","0","32185","","366","","","68","70","","","2","70","training","adjacent","FG","6","7","N.jpg","L.jpg","0","1","0","",""
"","feedback","","html-keyboard-response","448","396237","0.0-1.0-636.0-0.0","0","0","32185","","null","","","null","70","","","","","","","","","","","","","","","",""
"","time_out","","html-keyboard-response","449","398241","0.0-1.0-638.0-0.0","0","0","32185","","null","","","null","70","","","","","","","","","","","","","","","",""
"","ITI","","html-keyboard-response","450","399245","0.0-1.0-639.0","0","0","32185","","null","","","null","70","","","","","","","","","","","","","","","NaN",""
"","S1","","html-keyboard-response","451","399501","0.0-1.0-641.0","0","0","32185","","null","","","null","71","","","","","","","","","","","","","","","",""
"","ISI","","html-keyboard-response","452","400504","0.0-1.0-642.0","0","0","32185","","null","","","null","71","NaN","","","","","","","","","","","","","","",""
"","S2","","html-keyboard-response","453","400585","0.0-1.0-643.0","0","0","32185","","78","","","68","71","","d","2","71","training","adjacent","CD","3","4","M.jpg","P.jpg","0","1","0","",""
"","feedback","","html-keyboard-response","454","401589","0.0-1.0-645.0-0.0","0","0","32185","","null","","","null","71","","","","","","","","","","","","","","","",""
"","time_out","","html-keyboard-response","455","403591","0.0-1.0-647.0-0.0","0","0","32185","","null","","","null","71","","","","","","","","","","","","","","","",""
"","ITI","","html-keyboard-response","456","404595","0.0-1.0-648.0","0","0","32185","","null","","","null","71","","","","","","","","","","","","","","","NaN",""
"","S1","","html-keyboard-response","457","404851","0.0-1.0-650.0","0","0","32185","","null","","","null","72","","","","","","","","","","","","","","","",""
"","ISI","","html-keyboard-response","458","405855","0.0-1.0-651.0","0","0","32185","","null","","","null","72","NaN","","","","","","","","","","","","","","",""
"","S2","","html-keyboard-response","459","405861","0.0-1.0-652.0","0","0","32185","","3","","","75","72","","k","2","72","training","adjacent","BA","2","1","O.jpg","Q.jpg","1","0","0","",""
"","feedback","","html-keyboard-response","460","406864","0.0-1.0-654.0-0.0","0","0","32185","","null","","","null","72","","","","","","","","","","","","","","","",""
"","time_out","","html-keyboard-response","461","408867","0.0-1.0-656.0-0.0","0","0","32185","","null","","","null","72","","","","","","","","","","","","","","","",""
"","ITI","","html-keyboard-response","462","409870","0.0-1.0-657.0","0","0","32185","","null","","","null","72","","","","","","","","","","","","","","","NaN",""
"","S1","","html-keyboard-response","463","410123","0.0-1.0-659.0","0","0","32185","","null","","","null","73","","","","","","","","","","","","","","","",""
"","ISI","","html-keyboard-response","464","411126","0.0-1.0-660.0","0","0","32185","","null","","","null","73","NaN","","","","","","","","","","","","","","",""
"","S2","","html-keyboard-response","465","411380","0.0-1.0-661.0","0","0","32185","","null","","","null","73","","NaN","","","","","","","","","","","","","",""
"","response","","html-keyboard-response","466","411574","0.0-1.0-662.0-0.0","0","0","32185","","190","","","68","73","","","2","73","training","adjacent","AB","1","2","Q.jpg","O.jpg","0","1","0","",""
"","feedback","","html-keyboard-response","467","412580","0.0-1.0-663.0-0.0","0","0","32185","","null","","","null","73","","","","","","","","","","","","","","","",""
"","time_out","","html-keyboard-response","468","414584","0.0-1.0-665.0-0.0","0","0","32185","","null","","","null","73","","","","","","","","","","","","","","","",""
"","ITI","","html-keyboard-response","469","415588","0.0-1.0-666.0","0","0","32185","","null","","","null","73","","","","","","","","","","","","","","","NaN",""
"","S1","","html-keyboard-response","470","415841","0.0-1.0-668.0","0","0","32185","","null","","","null","74","","","","","","","","","","","","","","","",""
"","ISI","","html-keyboard-response","471","416845","0.0-1.0-669.0","0","0","32185","","null","","","null","74","NaN","","","","","","","","","","","","","","",""
"","S2","","html-keyboard-response","472","417099","0.0-1.0-670.0","0","0","32185","","null","","","null","74","","NaN","","","","","","","","","","","","","",""
"","response","","html-keyboard-response","473","417129","0.0-1.0-671.0-0.0","0","0","32185","","27","","","68","74","","","2","74","training","adjacent","EF","5","6","R.jpg","N.jpg","0","1","0","",""
"","feedback","","html-keyboard-response","474","418134","0.0-1.0-672.0-0.0","0","0","32185","","null","","","null","74","","","","","","","","","","","","","","","",""
"","time_out","","html-keyboard-response","475","420137","0.0-1.0-674.0-0.0","0","0","32185","","null","","","null","74","","","","","","","","","","","","","","","",""
"","ITI","","html-keyboard-response","476","421140","0.0-1.0-675.0","0","0","32185","","null","","","null","74","","","","","","","","","","","","","","","NaN",""
"","S1","","html-keyboard-response","477","421394","0.0-1.0-677.0","0","0","32185","","null","","","null","75","","","","","","","","","","","","","","","",""
"","ISI","","html-keyboard-response","478","422400","0.0-1.0-678.0","0","0","32185","","null","","","null","75","NaN","","","","","","","","","","","","","","",""
"","S2","","html-keyboard-response","479","422654","0.0-1.0-679.0","0","0","32185","","null","","","null","75","","NaN","","","","","","","","","","","","","",""
"","response","","html-keyboard-response","480","423372","0.0-1.0-680.0-0.0","0","0","32185","","713","","","68","75","","","2","75","training","adjacent","DC","4","3","P.jpg","M.jpg","0","0","1","",""
"","feedback","","html-keyboard-response","481","424377","0.0-1.0-681.0-0.0","0","0","32185","","null","","","null","75","","","","","","","","","","","","","","","",""
"","ITI","","html-keyboard-response","482","425381","0.0-1.0-684.0","0","0","32185","","null","","","null","75","","","","","","","","","","","","","","","NaN",""
"","S1","","html-keyboard-response","483","425635","0.0-1.0-686.0","0","0","32185","","null","","","null","76","","","","","","","","","","","","","","","",""
"","ISI","","html-keyboard-response","484","426638","0.0-1.0-687.0","0","0","32185","","null","","","null","76","NaN","","","","","","","","","","","","","","",""
"","S2","","html-keyboard-response","485","426891","0.0-1.0-688.0","0","0","32185","","null","","","null","76","","NaN","","","","","","","","","","","","","",""
"","response","","html-keyboard-response","486","427457","0.0-1.0-689.0-0.0","0","0","32185","","563","","","68","76","","","2","76","training","adjacent","BA","2","1","O.jpg","Q.jpg","0","0","1","",""
"","feedback","","html-keyboard-response","487","428461","0.0-1.0-690.0-0.0","0","0","32185","","null","","","null","76","","","","","","","","","","","","","","","",""
"","ITI","","html-keyboard-response","488","429466","0.0-1.0-693.0","0","0","32185","","null","","","null","76","","","","","","","","","","","","","","","NaN",""
"","S1","","html-keyboard-response","489","429720","0.0-1.0-695.0","0","0","32185","","null","","","null","77","","","","","","","","","","","","","","","",""
"","ISI","","html-keyboard-response","490","430723","0.0-1.0-696.0","0","0","32185","","977","","","68","77","d","","","","","","","","","","","","","","",""
"","S2","","html-keyboard-response","491","430976","0.0-1.0-697.0","0","0","32185","","null","","","null","77","","NaN","","","","","","","","","","","","","",""
"","response","","html-keyboard-response","492","431090","0.0-1.0-698.0-0.0","0","0","32185","","111","","","68","77","","","2","77","training","adjacent","BC","2","3","O.jpg","M.jpg","0","1","0","",""
"","feedback","","html-keyboard-response","493","432095","0.0-1.0-699.0-0.0","0","0","32185","","null","","","null","77","","","","","","","","","","","","","","","",""
"","time_out","","html-keyboard-response","494","434100","0.0-1.0-701.0-0.0","0","0","32185","","null","","","null","77","","","","","","","","","","","","","","","",""
"","ITI","","html-keyboard-response","495","435104","0.0-1.0-702.0","0","0","32185","","null","","","null","77","","","","","","","","","","","","","","","NaN",""
"","S1","","html-keyboard-response","496","435358","0.0-1.0-704.0","0","0","32185","","null","","","null","78","","","","","","","","","","","","","","","",""
"","ISI","","html-keyboard-response","497","436361","0.0-1.0-705.0","0","0","32185","","null","","","null","78","NaN","","","","","","","","","","","","","","",""
"","S2","","html-keyboard-response","498","436615","0.0-1.0-706.0","0","0","32185","","null","","","null","78","","NaN","","","","","","","","","","","","","",""
"","response","","html-keyboard-response","499","437182","0.0-1.0-707.0-0.0","0","0","32185","","565","","","75","78","","","2","78","training","adjacent","GF","7","6","L.jpg","N.jpg","1","0","0","",""
"","feedback","","html-keyboard-response","500","438185","0.0-1.0-708.0-0.0","0","0","32185","","null","","","null","78","","","","","","","","","","","","","","","",""
"","time_out","","html-keyboard-response","501","440188","0.0-1.0-710.0-0.0","0","0","32185","","null","","","null","78","","","","","","","","","","","","","","","",""
"","ITI","","html-keyboard-response","502","441190","0.0-1.0-711.0","0","0","32185","","null","","","null","78","","","","","","","","","","","","","","","NaN",""
"","S1","","html-keyboard-response","503","441444","0.0-1.0-713.0","0","0","32185","","null","","","null","79","","","","","","","","","","","","","","","",""
"","ISI","","html-keyboard-response","504","442447","0.0-1.0-714.0","0","0","32185","","null","","","null","79","NaN","","","","","","","","","","","","","","",""
"","S2","","html-keyboard-response","505","442700","0.0-1.0-715.0","0","0","32185","","null","","","null","79","","NaN","","","","","","","","","","","","","",""
"","response","","html-keyboard-response","506","442920","0.0-1.0-716.0-0.0","0","0","32185","","219","","","68","79","","","2","79","training","adjacent","GF","7","6","L.jpg","N.jpg","0","0","1","",""
"","feedback","","html-keyboard-response","507","443923","0.0-1.0-717.0-0.0","0","0","32185","","null","","","null","79","","","","","","","","","","","","","","","",""
"","ITI","","html-keyboard-response","508","444925","0.0-1.0-720.0","0","0","32185","","null","","","null","79","","","","","","","","","","","","","","","NaN",""
"","S1","","html-keyboard-response","509","445179","0.0-1.0-722.0","0","0","32185","","null","","","null","80","","","","","","","","","","","","","","","",""
"","ISI","","html-keyboard-response","510","446182","0.0-1.0-723.0","0","0","32185","","null","","","null","80","NaN","","","","","","","","","","","","","","",""
"","S2","","html-keyboard-response","511","446435","0.0-1.0-724.0","0","0","32185","","null","","","null","80","","NaN","","","","","","","","","","","","","",""
"","response","","html-keyboard-response","512","446474","0.0-1.0-725.0-0.0","0","0","32185","","35","","","75","80","","","2","80","training","adjacent","EF","5","6","R.jpg","N.jpg","1","1","1","",""
"","feedback","","html-keyboard-response","513","447479","0.0-1.0-726.0-0.0","0","0","32185","","null","","","null","80","","","","","","","","","","","","","","","",""
"","ITI","","html-keyboard-response","514","448483","0.0-1.0-729.0","0","0","32185","","null","","","null","80","","","","","","","","","","","","","","","NaN",""
"","S1","","html-keyboard-response","515","448737","0.0-1.0-731.0","0","0","32185","","null","","","null","81","","","","","","","","","","","","","","","",""
"","ISI","","html-keyboard-response","516","449740","0.0-1.0-732.0","0","0","32185","","null","","","null","81","NaN","","","","","","","","","","","","","","",""
"","S2","","html-keyboard-response","517","449995","0.0-1.0-733.0","0","0","32185","","null","","","null","81","","NaN","","","","","","","","","","","","","",""
"","response","","html-keyboard-response","518","451749","0.0-1.0-734.0-0.0","0","0","32185","","null","","","null","81","","","2","81","training","adjacent","DC","4","3","P.jpg","M.jpg","NaN","0","0","",""
"","too_slow_prompt","","html-keyboard-response","519","452754","0.0-1.0-736.0-0.0","1","0","32185","","null","","","null","","","","","","","","","","","","","","","","",""
"","time_out","","html-keyboard-response","520","454759","0.0-1.0-737.0-0.0","0","0","32185","","null","","","null","81","","","","","","","","","","","","","","","",""
"","ITI","","html-keyboard-response","521","455762","0.0-1.0-738.0","0","0","32185","","null","","","null","81","","","","","","","","","","","","","","","NaN",""
"","S1","","html-keyboard-response","522","456016","0.0-1.0-740.0","0","0","32185","","null","","","null","82","","","","","","","","","","","","","","","",""
"","ISI","","html-keyboard-response","523","457019","0.0-1.0-741.0","0","0","32185","","242","","","68","82","d","","","","","","","","","","","","","","",""
"","S2","","html-keyboard-response","524","457273","0.0-1.0-742.0","0","0","32185","","null","","","null","82","","NaN","","","","","","","","","","","","","",""
"","response","","html-keyboard-response","525","457767","0.0-1.0-743.0-0.0","0","0","32185","","493","","","68","82","","","2","82","training","adjacent","GF","7","6","L.jpg","N.jpg","0","0","1","",""
"","feedback","","html-keyboard-response","526","458771","0.0-1.0-744.0-0.0","0","0","32185","","null","","","null","82","","","","","","","","","","","","","","","",""
"","ITI","","html-keyboard-response","527","459776","0.0-1.0-747.0","0","0","32185","","null","","","null","82","","","","","","","","","","","","","","","NaN",""
"","S1","","html-keyboard-response","528","460030","0.0-1.0-749.0","0","0","32185","","null","","","null","83","","","","","","","","","","","","","","","",""
"","ISI","","html-keyboard-response","529","461034","0.0-1.0-750.0","0","0","32185","","null","","","null","83","NaN","","","","","","","","","","","","","","",""
"","S2","","html-keyboard-response","530","461287","0.0-1.0-751.0","0","0","32185","","null","","","null","83","","NaN","","","","","","","","","","","","","",""
"","response","","html-keyboard-response","531","462389","0.0-1.0-752.0-0.0","0","0","32185","","1099","","","75","83","","","2","83","training","adjacent","BC","2","3","O.jpg","M.jpg","1","1","1","",""
"","feedback","","html-keyboard-response","532","463394","0.0-1.0-753.0-0.0","0","0","32185","","null","","","null","83","","","","","","","","","","","","","","","",""
"","ITI","","html-keyboard-response","533","464398","0.0-1.0-756.0","0","0","32185","","null","","","null","83","","","","","","","","","","","","","","","NaN",""
"","S1","","html-keyboard-response","534","464651","0.0-1.0-758.0","0","0","32185","","null","","","null","84","","","","","","","","","","","","","","","",""
"","ISI","","html-keyboard-response","535","465655","0.0-1.0-759.0","0","0","32185","","null","","","null","84","NaN","","","","","","","","","","","","","","",""
"","S2","","html-keyboard-response","536","465909","0.0-1.0-760.0","0","0","32185","","null","","","null","84","","NaN","","","","","","","","","","","","","",""
"","response","","html-keyboard-response","537","467662","0.0-1.0-761.0-0.0","0","0","32185","","null","","","null","84","","","2","84","training","adjacent","FE","6","5","N.jpg","R.jpg","NaN","0","0","",""
"","too_slow_prompt","","html-keyboard-response","538","468664","0.0-1.0-763.0-0.0","1","0","32185","","null","","","null","","","","","","","","","","","","","","","","",""
"","time_out","","html-keyboard-response","539","470668","0.0-1.0-764.0-0.0","0","0","32185","","null","","","null","84","","","","","","","","","","","","","","","",""
"","ITI","","html-keyboard-response","540","471671","0.0-1.0-765.0","0","0","32185","","null","","","null","84","","","","","","","","","","","","","","","NaN",""
"","S1","","html-keyboard-response","541","471925","0.0-1.0-767.0","0","0","32185","","null","","","null","85","","","","","","","","","","","","","","","",""
"","ISI","","html-keyboard-response","542","472929","0.0-1.0-768.0","0","0","32185","","null","","","null","85","NaN","","","","","","","","","","","","","","",""
"","S2","","html-keyboard-response","543","473183","0.0-1.0-769.0","0","0","32185","","null","","","null","85","","NaN","","","","","","","","","","","","","",""
"","response","","html-keyboard-response","544","473415","0.0-1.0-770.0-0.0","0","0","32185","","230","","","68","85","","","2","85","training","adjacent","ED","5","4","R.jpg","P.jpg","0","0","1","",""
"","feedback","","html-keyboard-response","545","474419","0.0-1.0-771.0-0.0","0","0","32185","","null","","","null","85","","","","","","","","","","","","","","","",""
"","ITI","","html-keyboard-response","546","475425","0.0-1.0-774.0","0","0","32185","","null","","","null","85","","","","","","","","","","","","","","","NaN",""
"","S1","","html-keyboard-response","547","475680","0.0-1.0-776.0","0","0","32185","","null","","","null","86","","","","","","","","","","","","","","","",""
"","ISI","","html-keyboard-response","548","476684","0.0-1.0-777.0","0","0","32185","","null","","","null","86","NaN","","","","","","","","","","","","","","",""
"","S2","","html-keyboard-response","549","476938","0.0-1.0-778.0","0","0","32185","","null","","","null","86","","NaN","","","","","","","","","","","","","",""
"","response","","html-keyboard-response","550","477538","0.0-1.0-779.0-0.0","0","0","32185","","597","","","68","86","","","2","86","training","adjacent","BA","2","1","O.jpg","Q.jpg","0","0","1","",""
"","feedback","","html-keyboard-response","551","478542","0.0-1.0-780.0-0.0","0","0","32185","","null","","","null","86","","","","","","","","","","","","","","","",""
"","ITI","","html-keyboard-response","552","479548","0.0-1.0-783.0","0","0","32185","","null","","","null","86","","","","","","","","","","","","","","","NaN",""
"","S1","","html-keyboard-response","553","479803","0.0-1.0-785.0","0","0","32185","","null","","","null","87","","","","","","","","","","","","","","","",""
"","ISI","","html-keyboard-response","554","480807","0.0-1.0-786.0","0","0","32185","","null","","","null","87","NaN","","","","","","","","","","","","","","",""
"","S2","","html-keyboard-response","555","480985","0.0-1.0-787.0","0","0","32185","","174","","","68","87","","d","2","87","training","adjacent","AB","1","2","Q.jpg","O.jpg","0","1","0","",""
"","feedback","","html-keyboard-response","556","481991","0.0-1.0-789.0-0.0","0","0","32185","","null","","","null","87","","","","","","","","","","","","","","","",""
"","time_out","","html-keyboard-response","557","483995","0.0-1.0-791.0-0.0","0","0","32185","","null","","","null","87","","","","","","","","","","","","","","","",""
"","ITI","","html-keyboard-response","558","485006","0.0-1.0-792.0","0","0","32185","","null","","","null","87","","","","","","","","","","","","","","","NaN",""
"","S1","","html-keyboard-response","559","485259","0.0-1.0-794.0","0","0","32185","","null","","","null","88","","","","","","","","","","","","","","","",""
"","ISI","","html-keyboard-response","560","486263","0.0-1.0-795.0","0","0","32185","","null","","","null","88","NaN","","","","","","","","","","","","","","",""
"","S2","","html-keyboard-response","561","486510","0.0-1.0-796.0","0","0","32185","","245","","","68","88","","d","2","88","training","adjacent","BC","2","3","O.jpg","M.jpg","0","1","0","",""
"","feedback","","html-keyboard-response","562","487513","0.0-1.0-798.0-0.0","0","0","32185","","null","","","null","88","","","","","","","","","","","","","","","",""
"","time_out","","html-keyboard-response","563","489516","0.0-1.0-800.0-0.0","0","0","32185","","null","","","null","88","","","","","","","","","","","","","","","",""
"","ITI","","html-keyboard-response","564","490520","0.0-1.0-801.0","0","0","32185","","null","","","null","88","","","","","","","","","","","","","","","NaN",""
"","S1","","html-keyboard-response","565","490775","0.0-1.0-803.0","0","0","32185","","null","","","null","89","","","","","","","","","","","","","","","",""
"","ISI","","html-keyboard-response","566","491776","0.0-1.0-804.0","0","0","32185","","null","","","null","89","NaN","","","","","","","","","","","","","","",""
"","S2","","html-keyboard-response","567","492030","0.0-1.0-805.0","0","0","32185","","null","","","null","89","","NaN","","","","","","","","","","","","","",""
"","response","","html-keyboard-response","568","492033","0.0-1.0-806.0-0.0","0","0","32185","","1","","","68","89","","","2","89","training","adjacent","FE","6","5","N.jpg","R.jpg","0","0","1","",""
"","feedback","","html-keyboard-response","569","493036","0.0-1.0-807.0-0.0","0","0","32185","","null","","","null","89","","","","","","","","","","","","","","","",""
"","ITI","","html-keyboard-response","570","494040","0.0-1.0-810.0","0","0","32185","","null","","","null","89","","","","","","","","","","","","","","","NaN",""
"","S1","","html-keyboard-response","571","494294","0.0-1.0-812.0","0","0","32185","","null","","","null","90","","","","","","","","","","","","","","","",""
"","ISI","","html-keyboard-response","572","495297","0.0-1.0-813.0","0","0","32185","","null","","","null","90","NaN","","","","","","","","","","","","","","",""
"","S2","","html-keyboard-response","573","495546","0.0-1.0-814.0","0","0","32185","","245","","","68","90","","d","2","90","training","adjacent","FE","6","5","N.jpg","R.jpg","0","0","1","",""
"","feedback","","html-keyboard-response","574","496551","0.0-1.0-816.0-0.0","0","0","32185","","null","","","null","90","","","","","","","","","","","","","","","",""
"","ITI","","html-keyboard-response","575","497554","0.0-1.0-819.0","0","0","32185","","null","","","null","90","","","","","","","","","","","","","","","NaN",""
"","S1","","html-keyboard-response","576","497809","0.0-1.0-821.0","0","0","32185","","null","","","null","91","","","","","","","","","","","","","","","",""
"","ISI","","html-keyboard-response","577","498812","0.0-1.0-822.0","0","0","32185","","null","","","null","91","NaN","","","","","","","","","","","","","","",""
"","S2","","html-keyboard-response","578","499028","0.0-1.0-823.0","0","0","32185","","212","","","68","91","","d","2","91","training","adjacent","EF","5","6","R.jpg","N.jpg","0","1","0","",""
"","feedback","","html-keyboard-response","579","500033","0.0-1.0-825.0-0.0","0","0","32185","","null","","","null","91","","","","","","","","","","","","","","","",""
"","time_out","","html-keyboard-response","580","502037","0.0-1.0-827.0-0.0","0","0","32185","","null","","","null","91","","","","","","","","","","","","","","","",""
"","ITI","","html-keyboard-response","581","503041","0.0-1.0-828.0","0","0","32185","","null","","","null","91","","","","","","","","","","","","","","","NaN",""
"","S1","","html-keyboard-response","582","503296","0.0-1.0-830.0","0","0","32185","","null","","","null","92","","","","","","","","","","","","","","","",""
"","ISI","","html-keyboard-response","583","504300","0.0-1.0-831.0","0","0","32185","","null","","","null","92","NaN","","","","","","","","","","","","","","",""
