"success","ttype","start_time","trial_type","trial_index","time_elapsed","internal_node_id","warning","missed_checkup","PID","view_history","rt","responses","repeat_instructions","key_press","index","keypress_isi","keypress_S2","block","trial_num","phase","group_type","pair_type","S1_stim","S2_stim","S1_img","S2_img","S1_chosen","S1_higher","accuracy","keypress_iti","total_bonus_tally"
"true","full_screen","d07282022hr2229","fullscreen","0","12102","0.0-0.0","0","0","27636","","","","","","","","","","","","","","","","","","","","","",""
"","instructions","","instructions","1","1225870","0.0-1.0-0.0-0.0","0","0","27636","[{""page_index"":0,""viewing_time"":6024},{""page_index"":1,""viewing_time"":1196178},{""page_index"":2,""viewing_time"":9717},{""page_index"":3,""viewing_time"":1840}]","1213760","","","","","","","","","","","","","","","","","","","",""
"","comprehension_check","","survey-multi-choice","2","1249996","0.0-1.0-0.0-1.0","0","0","27636","","24116","{""Q0"":""True"",""Q1"":""True"",""Q2"":""When you see the prompt 'MAKE A CHOICE' after the second image was presented"",""Q3"":""Green mark"",""Q4"":""either D or K""}","0","","","","","","","","","","","","","","","","","",""
"","start_exp","","html-keyboard-response","3","1252718","0.0-1.0-1.0","0","0","27636","","2718","","","32","","","","","","","","","","","","","","","","",""
"","S1","","html-keyboard-response","4","1252978","0.0-1.0-2.0","0","0","27636","","null","","","null","0","","","","","","","","","","","","","","","",""
"","ISI","","html-keyboard-response","5","1254988","0.0-1.0-3.0","0","0","27636","","683","","","68","0","d","","","","","","","","","","","","","","",""
"","S2","","html-keyboard-response","6","1255248","0.0-1.0-4.0","0","0","27636","","null","","","null","0","","NaN","","","","","","","","","","","","","",""
"","response","","html-keyboard-response","7","1255927","0.0-1.0-5.0","0","0","27636","","677","","","75","0","","","1","0","training","adjacent","EF","5","6","M.jpg","L.jpg","0","1","0","",""
"","feedback","","html-keyboard-response","8","1256938","0.0-1.0-6.0-0.0","0","0","27636","","null","","","null","0","","","","","","","","","","","","","","","",""
"","time_out","","html-keyboard-response","9","1258948","0.0-1.0-8.0-0.0","0","0","27636","","null","","","null","0","","","","","","","","","","","","","","","",""
"","ITI","","html-keyboard-response","10","1259957","0.0-1.0-9.0","0","0","27636","","null","","","null","0","","","","","","","","","","","","","","","NaN",""
"","S1","","html-keyboard-response","11","1260218","0.0-1.0-11.0","0","0","27636","","null","","","null","1","","","","","","","","","","","","","","","",""
"","ISI","","html-keyboard-response","12","1262228","0.0-1.0-12.0","0","0","27636","","null","","","null","1","NaN","","","","","","","","","","","","","","",""
"","S2","","html-keyboard-response","13","1262487","0.0-1.0-13.0","0","0","27636","","null","","","null","1","","NaN","","","","","","","","","","","","","",""
"","response","","html-keyboard-response","14","1262821","0.0-1.0-14.0","0","0","27636","","332","","","75","1","","","1","1","training","adjacent","BA","2","1","P.jpg","N.jpg","0","0","1","",""
"","feedback","","html-keyboard-response","15","1263827","0.0-1.0-15.0-0.0","0","0","27636","","null","","","null","1","","","","","","","","","","","","","","","",""
"","ITI","","html-keyboard-response","16","1264837","0.0-1.0-18.0","0","0","27636","","null","","","null","1","","","","","","","","","","","","","","","NaN",""
"","S1","","html-keyboard-response","17","1265098","0.0-1.0-20.0","0","0","27636","","null","","","null","2","","","","","","","","","","","","","","","",""
"","ISI","","html-keyboard-response","18","1267108","0.0-1.0-21.0","0","0","27636","","null","","","null","2","NaN","","","","","","","","","","","","","","",""
"","S2","","html-keyboard-response","19","1267368","0.0-1.0-22.0","0","0","27636","","null","","","null","2","","NaN","","","","","","","","","","","","","",""
"","response","","html-keyboard-response","20","1267622","0.0-1.0-23.0","0","0","27636","","252","","","75","2","","","1","2","training","adjacent","FG","6","7","L.jpg","O.jpg","0","1","0","",""
"","feedback","","html-keyboard-response","21","1268628","0.0-1.0-24.0-0.0","0","0","27636","","null","","","null","2","","","","","","","","","","","","","","","",""
"","time_out","","html-keyboard-response","22","1270638","0.0-1.0-26.0-0.0","0","0","27636","","null","","","null","2","","","","","","","","","","","","","","","",""
"","ITI","","html-keyboard-response","23","1271648","0.0-1.0-27.0","0","0","27636","","null","","","null","2","","","","","","","","","","","","","","","NaN",""
"","S1","","html-keyboard-response","24","1271907","0.0-1.0-29.0","0","0","27636","","null","","","null","3","","","","","","","","","","","","","","","",""
"","ISI","","html-keyboard-response","25","1273917","0.0-1.0-30.0","0","0","27636","","null","","","null","3","NaN","","","","","","","","","","","","","","",""
"","S2","","html-keyboard-response","26","1274177","0.0-1.0-31.0","0","0","27636","","null","","","null","3","","NaN","","","","","","","","","","","","","",""
"","response","","html-keyboard-response","27","1274599","0.0-1.0-32.0","0","0","27636","","419","","","68","3","","","1","3","training","adjacent","DE","4","5","Q.jpg","M.jpg","1","1","1","",""
"","feedback","","html-keyboard-response","28","1275607","0.0-1.0-33.0-0.0","0","0","27636","","null","","","null","3","","","","","","","","","","","","","","","",""
"","ITI","","html-keyboard-response","29","1276618","0.0-1.0-36.0","0","0","27636","","null","","","null","3","","","","","","","","","","","","","","","NaN",""
"","S1","","html-keyboard-response","30","1276877","0.0-1.0-38.0","0","0","27636","","null","","","null","4","","","","","","","","","","","","","","","",""
"","ISI","","html-keyboard-response","31","1278887","0.0-1.0-39.0","0","0","27636","","null","","","null","4","NaN","","","","","","","","","","","","","","",""
"","S2","","html-keyboard-response","32","1279148","0.0-1.0-40.0","0","0","27636","","null","","","null","4","","NaN","","","","","","","","","","","","","",""
"","response","","html-keyboard-response","33","1279989","0.0-1.0-41.0","0","0","27636","","839","","","75","4","","","1","4","training","adjacent","CD","3","4","R.jpg","Q.jpg","0","1","0","",""
"","feedback","","html-keyboard-response","34","1280998","0.0-1.0-42.0-0.0","0","0","27636","","null","","","null","4","","","","","","","","","","","","","","","",""
"","time_out","","html-keyboard-response","35","1283007","0.0-1.0-44.0-0.0","0","0","27636","","null","","","null","4","","","","","","","","","","","","","","","",""
"","ITI","","html-keyboard-response","36","1284019","0.0-1.0-45.0","0","0","27636","","null","","","null","4","","","","","","","","","","","","","","","NaN",""
"","S1","","html-keyboard-response","37","1284277","0.0-1.0-47.0","0","0","27636","","null","","","null","5","","","","","","","","","","","","","","","",""
"","ISI","","html-keyboard-response","38","1286287","0.0-1.0-48.0","0","0","27636","","null","","","null","5","NaN","","","","","","","","","","","","","","",""
"","S2","","html-keyboard-response","39","1286547","0.0-1.0-49.0","0","0","27636","","null","","","null","5","","NaN","","","","","","","","","","","","","",""
"","response","","html-keyboard-response","40","1286989","0.0-1.0-50.0","0","0","27636","","440","","","68","5","","","1","5","training","adjacent","CD","3","4","R.jpg","Q.jpg","1","1","1","",""
"","feedback","","html-keyboard-response","41","1287997","0.0-1.0-51.0-0.0","0","0","27636","","null","","","null","5","","","","","","","","","","","","","","","",""
"","ITI","","html-keyboard-response","42","1289007","0.0-1.0-54.0","0","0","27636","","null","","","null","5","","","","","","","","","","","","","","","NaN",""
"","S1","","html-keyboard-response","43","1289267","0.0-1.0-56.0","0","0","27636","","null","","","null","6","","","","","","","","","","","","","","","",""
"","ISI","","html-keyboard-response","44","1291277","0.0-1.0-57.0","0","0","27636","","null","","","null","6","NaN","","","","","","","","","","","","","","",""
"","S2","","html-keyboard-response","45","1291537","0.0-1.0-58.0","0","0","27636","","null","","","null","6","","NaN","","","","","","","","","","","","","",""
"","response","","html-keyboard-response","46","1292564","0.0-1.0-59.0","0","0","27636","","1027","","","68","6","","","1","6","training","adjacent","ED","5","4","M.jpg","Q.jpg","1","0","0","",""
"","feedback","","html-keyboard-response","47","1293566","0.0-1.0-60.0-0.0","0","0","27636","","null","","","null","6","","","","","","","","","","","","","","","",""
"","time_out","","html-keyboard-response","48","1295578","0.0-1.0-62.0-0.0","0","0","27636","","null","","","null","6","","","","","","","","","","","","","","","",""
"","ITI","","html-keyboard-response","49","1296586","0.0-1.0-63.0","0","0","27636","","null","","","null","6","","","","","","","","","","","","","","","NaN",""
"","S1","","html-keyboard-response","50","1296847","0.0-1.0-65.0","0","0","27636","","null","","","null","7","","","","","","","","","","","","","","","",""
"","ISI","","html-keyboard-response","51","1298856","0.0-1.0-66.0","0","0","27636","","null","","","null","7","NaN","","","","","","","","","","","","","","",""
"","S2","","html-keyboard-response","52","1299117","0.0-1.0-67.0","0","0","27636","","null","","","null","7","","NaN","","","","","","","","","","","","","",""
"","response","","html-keyboard-response","53","1300086","0.0-1.0-68.0","0","0","27636","","967","","","75","7","","","1","7","training","adjacent","CB","3","2","R.jpg","P.jpg","0","0","1","",""
"","feedback","","html-keyboard-response","54","1301097","0.0-1.0-69.0-0.0","0","0","27636","","null","","","null","7","","","","","","","","","","","","","","","",""
"","ITI","","html-keyboard-response","55","1302107","0.0-1.0-72.0","0","0","27636","","null","","","null","7","","","","","","","","","","","","","","","NaN",""
"","S1","","html-keyboard-response","56","1302367","0.0-1.0-74.0","0","0","27636","","null","","","null","8","","","","","","","","","","","","","","","",""
"","ISI","","html-keyboard-response","57","1304377","0.0-1.0-75.0","0","0","27636","","null","","","null","8","NaN","","","","","","","","","","","","","","",""
"","S2","","html-keyboard-response","58","1304637","0.0-1.0-76.0","0","0","27636","","null","","","null","8","","NaN","","","","","","","","","","","","","",""
"","response","","html-keyboard-response","59","1305109","0.0-1.0-77.0","0","0","27636","","469","","","75","8","","","1","8","training","adjacent","FG","6","7","L.jpg","O.jpg","0","1","0","",""
"","feedback","","html-keyboard-response","60","1306118","0.0-1.0-78.0-0.0","0","0","27636","","null","","","null","8","","","","","","","","","","","","","","","",""
"","time_out","","html-keyboard-response","61","1308127","0.0-1.0-80.0-0.0","0","0","27636","","null","","","null","8","","","","","","","","","","","","","","","",""
"","ITI","","html-keyboard-response","62","1309137","0.0-1.0-81.0","0","0","27636","","null","","","null","8","","","","","","","","","","","","","","","NaN",""
"","S1","","html-keyboard-response","63","1309397","0.0-1.0-83.0","0","0","27636","","null","","","null","9","","","","","","","","","","","","","","","",""
"","ISI","","html-keyboard-response","64","1311407","0.0-1.0-84.0","0","0","27636","","null","","","null","9","NaN","","","","","","","","","","","","","","",""
"","S2","","html-keyboard-response","65","1311667","0.0-1.0-85.0","0","0","27636","","null","","","null","9","","NaN","","","","","","","","","","","","","",""
"","response","","html-keyboard-response","66","1312381","0.0-1.0-86.0","0","0","27636","","711","","","68","9","","","1","9","training","adjacent","FE","6","5","L.jpg","M.jpg","1","0","0","",""
"","feedback","","html-keyboard-response","67","1313386","0.0-1.0-87.0-0.0","0","0","27636","","null","","","null","9","","","","","","","","","","","","","","","",""
"","time_out","","html-keyboard-response","68","1315397","0.0-1.0-89.0-0.0","0","0","27636","","null","","","null","9","","","","","","","","","","","","","","","",""
"","ITI","","html-keyboard-response","69","1316408","0.0-1.0-90.0","0","0","27636","","null","","","null","9","","","","","","","","","","","","","","","NaN",""
"","S1","","html-keyboard-response","70","1316667","0.0-1.0-92.0","0","0","27636","","null","","","null","10","","","","","","","","","","","","","","","",""
"","ISI","","html-keyboard-response","71","1318679","0.0-1.0-93.0","0","0","27636","","null","","","null","10","NaN","","","","","","","","","","","","","","",""
"","S2","","html-keyboard-response","72","1318938","0.0-1.0-94.0","0","0","27636","","null","","","null","10","","NaN","","","","","","","","","","","","","",""
"","response","","html-keyboard-response","73","1319556","0.0-1.0-95.0","0","0","27636","","616","","","75","10","","","1","10","training","adjacent","AB","1","2","N.jpg","P.jpg","0","1","0","",""
"","feedback","","html-keyboard-response","74","1320568","0.0-1.0-96.0-0.0","0","0","27636","","null","","","null","10","","","","","","","","","","","","","","","",""
"","time_out","","html-keyboard-response","75","1322578","0.0-1.0-98.0-0.0","0","0","27636","","null","","","null","10","","","","","","","","","","","","","","","",""
"","ITI","","html-keyboard-response","76","1323587","0.0-1.0-99.0","0","0","27636","","null","","","null","10","","","","","","","","","","","","","","","NaN",""
"","S1","","html-keyboard-response","77","1323847","0.0-1.0-101.0","0","0","27636","","null","","","null","11","","","","","","","","","","","","","","","",""
"","ISI","","html-keyboard-response","78","1325857","0.0-1.0-102.0","0","0","27636","","null","","","null","11","NaN","","","","","","","","","","","","","","",""
"","S2","","html-keyboard-response","79","1326118","0.0-1.0-103.0","0","0","27636","","null","","","null","11","","NaN","","","","","","","","","","","","","",""
"","response","","html-keyboard-response","80","1326444","0.0-1.0-104.0","0","0","27636","","325","","","68","11","","","1","11","training","adjacent","DE","4","5","Q.jpg","M.jpg","1","1","1","",""
"","feedback","","html-keyboard-response","81","1327447","0.0-1.0-105.0-0.0","0","0","27636","","null","","","null","11","","","","","","","","","","","","","","","",""
"","ITI","","html-keyboard-response","82","1328457","0.0-1.0-108.0","0","0","27636","","null","","","null","11","","","","","","","","","","","","","","","NaN",""
"","S1","","html-keyboard-response","83","1328717","0.0-1.0-110.0","0","0","27636","","null","","","null","12","","","","","","","","","","","","","","","",""
"","ISI","","html-keyboard-response","84","1330727","0.0-1.0-111.0","0","0","27636","","null","","","null","12","NaN","","","","","","","","","","","","","","",""
"","S2","","html-keyboard-response","85","1330988","0.0-1.0-112.0","0","0","27636","","null","","","null","12","","NaN","","","","","","","","","","","","","",""
"","response","","html-keyboard-response","86","1331829","0.0-1.0-113.0","0","0","27636","","839","","","68","12","","","1","12","training","adjacent","CB","3","2","R.jpg","P.jpg","1","0","0","",""
"","feedback","","html-keyboard-response","87","1332838","0.0-1.0-114.0-0.0","0","0","27636","","null","","","null","12","","","","","","","","","","","","","","","",""
"","time_out","","html-keyboard-response","88","1334848","0.0-1.0-116.0-0.0","0","0","27636","","null","","","null","12","","","","","","","","","","","","","","","",""
"","ITI","","html-keyboard-response","89","1335857","0.0-1.0-117.0","0","0","27636","","null","","","null","12","","","","","","","","","","","","","","","NaN",""
"","S1","","html-keyboard-response","90","1336117","0.0-1.0-119.0","0","0","27636","","null","","","null","13","","","","","","","","","","","","","","","",""
"","ISI","","html-keyboard-response","91","1338128","0.0-1.0-120.0","0","0","27636","","null","","","null","13","NaN","","","","","","","","","","","","","","",""
"","S2","","html-keyboard-response","92","1338387","0.0-1.0-121.0","0","0","27636","","null","","","null","13","","NaN","","","","","","","","","","","","","",""
"","response","","html-keyboard-response","93","1338780","0.0-1.0-122.0","0","0","27636","","390","","","68","13","","","1","13","training","adjacent","EF","5","6","M.jpg","L.jpg","1","1","1","",""
"","feedback","","html-keyboard-response","94","1339787","0.0-1.0-123.0-0.0","0","0","27636","","null","","","null","13","","","","","","","","","","","","","","","",""
"","ITI","","html-keyboard-response","95","1340797","0.0-1.0-126.0","0","0","27636","","null","","","null","13","","","","","","","","","","","","","","","NaN",""
"","S1","","html-keyboard-response","96","1341057","0.0-1.0-128.0","0","0","27636","","null","","","null","14","","","","","","","","","","","","","","","",""
"","ISI","","html-keyboard-response","97","1343067","0.0-1.0-129.0","0","0","27636","","null","","","null","14","NaN","","","","","","","","","","","","","","",""
"","S2","","html-keyboard-response","98","1343327","0.0-1.0-130.0","0","0","27636","","null","","","null","14","","NaN","","","","","","","","","","","","","",""
"","response","","html-keyboard-response","99","1343747","0.0-1.0-131.0","0","0","27636","","419","","","68","14","","","1","14","training","adjacent","DC","4","3","Q.jpg","R.jpg","1","0","0","",""
"","feedback","","html-keyboard-response","100","1344758","0.0-1.0-132.0-0.0","0","0","27636","","null","","","null","14","","","","","","","","","","","","","","","",""
"","time_out","","html-keyboard-response","101","1346767","0.0-1.0-134.0-0.0","0","0","27636","","null","","","null","14","","","","","","","","","","","","","","","",""
"","ITI","","html-keyboard-response","102","1347777","0.0-1.0-135.0","0","0","27636","","null","","","null","14","","","","","","","","","","","","","","","NaN",""
"","S1","","html-keyboard-response","103","1348037","0.0-1.0-137.0","0","0","27636","","null","","","null","15","","","","","","","","","","","","","","","",""
"","ISI","","html-keyboard-response","104","1350047","0.0-1.0-138.0","0","0","27636","","null","","","null","15","NaN","","","","","","","","","","","","","","",""
"","S2","","html-keyboard-response","105","1350308","0.0-1.0-139.0","0","0","27636","","null","","","null","15","","NaN","","","","","","","","","","","","","",""
"","response","","html-keyboard-response","106","1351189","0.0-1.0-140.0","0","0","27636","","879","","","75","15","","","1","15","training","adjacent","BC","2","3","P.jpg","R.jpg","0","1","0","",""
"","feedback","","html-keyboard-response","107","1352197","0.0-1.0-141.0-0.0","0","0","27636","","null","","","null","15","","","","","","","","","","","","","","","",""
"","time_out","","html-keyboard-response","108","1354206","0.0-1.0-143.0-0.0","0","0","27636","","null","","","null","15","","","","","","","","","","","","","","","",""
"","ITI","","html-keyboard-response","109","1355217","0.0-1.0-144.0","0","0","27636","","null","","","null","15","","","","","","","","","","","","","","","NaN",""
"","S1","","html-keyboard-response","110","1355477","0.0-1.0-146.0","0","0","27636","","null","","","null","16","","","","","","","","","","","","","","","",""
"","ISI","","html-keyboard-response","111","1357487","0.0-1.0-147.0","0","0","27636","","null","","","null","16","NaN","","","","","","","","","","","","","","",""
"","S2","","html-keyboard-response","112","1357746","0.0-1.0-148.0","0","0","27636","","null","","","null","16","","NaN","","","","","","","","","","","","","",""
"","response","","html-keyboard-response","113","1358339","0.0-1.0-149.0","0","0","27636","","592","","","75","16","","","1","16","training","adjacent","AB","1","2","N.jpg","P.jpg","0","1","0","",""
"","feedback","","html-keyboard-response","114","1359349","0.0-1.0-150.0-0.0","0","0","27636","","null","","","null","16","","","","","","","","","","","","","","","",""
"","time_out","","html-keyboard-response","115","1361359","0.0-1.0-152.0-0.0","0","0","27636","","null","","","null","16","","","","","","","","","","","","","","","",""
"","ITI","","html-keyboard-response","116","1362369","0.0-1.0-153.0","0","0","27636","","null","","","null","16","","","","","","","","","","","","","","","NaN",""
"","S1","","html-keyboard-response","117","1362628","0.0-1.0-155.0","0","0","27636","","null","","","null","17","","","","","","","","","","","","","","","",""
"","ISI","","html-keyboard-response","118","1364639","0.0-1.0-156.0","0","0","27636","","null","","","null","17","NaN","","","","","","","","","","","","","","",""
"","S2","","html-keyboard-response","119","1364899","0.0-1.0-157.0","0","0","27636","","null","","","null","17","","NaN","","","","","","","","","","","","","",""
"","response","","html-keyboard-response","120","1365331","0.0-1.0-158.0","0","0","27636","","430","","","68","17","","","1","17","training","adjacent","DE","4","5","Q.jpg","M.jpg","1","1","1","",""
"","feedback","","html-keyboard-response","121","1366339","0.0-1.0-159.0-0.0","0","0","27636","","null","","","null","17","","","","","","","","","","","","","","","",""
"","ITI","","html-keyboard-response","122","1367348","0.0-1.0-162.0","0","0","27636","","null","","","null","17","","","","","","","","","","","","","","","NaN",""
"","S1","","html-keyboard-response","123","1367608","0.0-1.0-164.0","0","0","27636","","null","","","null","18","","","","","","","","","","","","","","","",""
"","ISI","","html-keyboard-response","124","1369619","0.0-1.0-165.0","0","0","27636","","null","","","null","18","NaN","","","","","","","","","","","","","","",""
"","S2","","html-keyboard-response","125","1369880","0.0-1.0-166.0","0","0","27636","","null","","","null","18","","NaN","","","","","","","","","","","","","",""
"","response","","html-keyboard-response","126","1370835","0.0-1.0-167.0","0","0","27636","","954","","","75","18","","","1","18","training","adjacent","BA","2","1","P.jpg","N.jpg","0","0","1","",""
"","feedback","","html-keyboard-response","127","1371839","0.0-1.0-168.0-0.0","0","0","27636","","null","","","null","18","","","","","","","","","","","","","","","",""
"","ITI","","html-keyboard-response","128","1372848","0.0-1.0-171.0","0","0","27636","","null","","","null","18","","","","","","","","","","","","","","","NaN",""
"","S1","","html-keyboard-response","129","1373109","0.0-1.0-173.0","0","0","27636","","null","","","null","19","","","","","","","","","","","","","","","",""
"","ISI","","html-keyboard-response","130","1375118","0.0-1.0-174.0","0","0","27636","","null","","","null","19","NaN","","","","","","","","","","","","","","",""
"","S2","","html-keyboard-response","131","1375379","0.0-1.0-175.0","0","0","27636","","null","","","null","19","","NaN","","","","","","","","","","","","","",""
"","response","","html-keyboard-response","132","1376467","0.0-1.0-176.0","0","0","27636","","1086","","","75","19","","","1","19","training","adjacent","CB","3","2","R.jpg","P.jpg","0","0","1","",""
"","feedback","","html-keyboard-response","133","1377478","0.0-1.0-177.0-0.0","0","0","27636","","null","","","null","19","","","","","","","","","","","","","","","",""
"","ITI","","html-keyboard-response","134","1378489","0.0-1.0-180.0","0","0","27636","","null","","","null","19","","","","","","","","","","","","","","","NaN",""
"","S1","","html-keyboard-response","135","1378748","0.0-1.0-182.0","0","0","27636","","null","","","null","20","","","","","","","","","","","","","","","",""
"","ISI","","html-keyboard-response","136","1380758","0.0-1.0-183.0","0","0","27636","","null","","","null","20","NaN","","","","","","","","","","","","","","",""
"","S2","","html-keyboard-response","137","1381019","0.0-1.0-184.0","0","0","27636","","null","","","null","20","","NaN","","","","","","","","","","","","","",""
"","response","","html-keyboard-response","138","1381587","0.0-1.0-185.0","0","0","27636","","566","","","68","20","","","1","20","training","adjacent","DC","4","3","Q.jpg","R.jpg","1","0","0","",""
"","feedback","","html-keyboard-response","139","1382599","0.0-1.0-186.0-0.0","0","0","27636","","null","","","null","20","","","","","","","","","","","","","","","",""
"","time_out","","html-keyboard-response","140","1384609","0.0-1.0-188.0-0.0","0","0","27636","","null","","","null","20","","","","","","","","","","","","","","","",""
"","ITI","","html-keyboard-response","141","1385619","0.0-1.0-189.0","0","0","27636","","null","","","null","20","","","","","","","","","","","","","","","NaN",""
"","S1","","html-keyboard-response","142","1385882","0.0-1.0-191.0","0","0","27636","","null","","","null","21","","","","","","","","","","","","","","","",""
"","ISI","","html-keyboard-response","143","1387888","0.0-1.0-192.0","0","0","27636","","null","","","null","21","NaN","","","","","","","","","","","","","","",""
"","S2","","html-keyboard-response","144","1388148","0.0-1.0-193.0","0","0","27636","","null","","","null","21","","NaN","","","","","","","","","","","","","",""
"","response","","html-keyboard-response","145","1388562","0.0-1.0-194.0","0","0","27636","","412","","","68","21","","","1","21","training","adjacent","FG","6","7","L.jpg","O.jpg","1","1","1","",""
"","feedback","","html-keyboard-response","146","1389568","0.0-1.0-195.0-0.0","0","0","27636","","null","","","null","21","","","","","","","","","","","","","","","",""
"","ITI","","html-keyboard-response","147","1390579","0.0-1.0-198.0","0","0","27636","","null","","","null","21","","","","","","","","","","","","","","","NaN",""
"","S1","","html-keyboard-response","148","1390838","0.0-1.0-200.0","0","0","27636","","null","","","null","22","","","","","","","","","","","","","","","",""
"","ISI","","html-keyboard-response","149","1392849","0.0-1.0-201.0","0","0","27636","","null","","","null","22","NaN","","","","","","","","","","","","","","",""
"","S2","","html-keyboard-response","150","1393109","0.0-1.0-202.0","0","0","27636","","null","","","null","22","","NaN","","","","","","","","","","","","","",""
"","response","","html-keyboard-response","151","1393906","0.0-1.0-203.0","0","0","27636","","795","","","75","22","","","1","22","training","adjacent","CB","3","2","R.jpg","P.jpg","0","0","1","",""
"","feedback","","html-keyboard-response","152","1394908","0.0-1.0-204.0-0.0","0","0","27636","","null","","","null","22","","","","","","","","","","","","","","","",""
"","ITI","","html-keyboard-response","153","1395918","0.0-1.0-207.0","0","0","27636","","null","","","null","22","","","","","","","","","","","","","","","NaN",""
"","S1","","html-keyboard-response","154","1396178","0.0-1.0-209.0","0","0","27636","","null","","","null","23","","","","","","","","","","","","","","","",""
"","ISI","","html-keyboard-response","155","1398188","0.0-1.0-210.0","0","0","27636","","null","","","null","23","NaN","","","","","","","","","","","","","","",""
"","S2","","html-keyboard-response","156","1398448","0.0-1.0-211.0","0","0","27636","","null","","","null","23","","NaN","","","","","","","","","","","","","",""
"","response","","html-keyboard-response","157","1399146","0.0-1.0-212.0","0","0","27636","","697","","","68","23","","","1","23","training","adjacent","FE","6","5","L.jpg","M.jpg","1","0","0","",""
"","feedback","","html-keyboard-response","158","1400158","0.0-1.0-213.0-0.0","0","0","27636","","null","","","null","23","","","","","","","","","","","","","","","",""
"","time_out","","html-keyboard-response","159","1402168","0.0-1.0-215.0-0.0","0","0","27636","","null","","","null","23","","","","","","","","","","","","","","","",""
"","ITI","","html-keyboard-response","160","1403179","0.0-1.0-216.0","0","0","27636","","null","","","null","23","","","","","","","","","","","","","","","NaN",""
"","S1","","html-keyboard-response","161","1403439","0.0-1.0-218.0","0","0","27636","","null","","","null","24","","","","","","","","","","","","","","","",""
"","ISI","","html-keyboard-response","162","1405448","0.0-1.0-219.0","0","0","27636","","null","","","null","24","NaN","","","","","","","","","","","","","","",""
"","S2","","html-keyboard-response","163","1405708","0.0-1.0-220.0","0","0","27636","","null","","","null","24","","NaN","","","","","","","","","","","","","",""
"","response","","html-keyboard-response","164","1407059","0.0-1.0-221.0","0","0","27636","","1348","","","75","24","","","1","24","training","adjacent","GF","7","6","O.jpg","L.jpg","0","0","1","",""
"","feedback","","html-keyboard-response","165","1408068","0.0-1.0-222.0-0.0","0","0","27636","","null","","","null","24","","","","","","","","","","","","","","","",""
"","ITI","","html-keyboard-response","166","1409078","0.0-1.0-225.0","0","0","27636","","null","","","null","24","","","","","","","","","","","","","","","NaN",""
"","S1","","html-keyboard-response","167","1409338","0.0-1.0-227.0","0","0","27636","","null","","","null","25","","","","","","","","","","","","","","","",""
"","ISI","","html-keyboard-response","168","1411348","0.0-1.0-228.0","0","0","27636","","null","","","null","25","NaN","","","","","","","","","","","","","","",""
"","S2","","html-keyboard-response","169","1411608","0.0-1.0-229.0","0","0","27636","","null","","","null","25","","NaN","","","","","","","","","","","","","",""
"","response","","html-keyboard-response","170","1412490","0.0-1.0-230.0","0","0","27636","","880","","","75","25","","","1","25","training","adjacent","BA","2","1","P.jpg","N.jpg","0","0","1","",""
"","feedback","","html-keyboard-response","171","1413498","0.0-1.0-231.0-0.0","0","0","27636","","null","","","null","25","","","","","","","","","","","","","","","",""
"","ITI","","html-keyboard-response","172","1414508","0.0-1.0-234.0","0","0","27636","","null","","","null","25","","","","","","","","","","","","","","","NaN",""
"","S1","","html-keyboard-response","173","1414767","0.0-1.0-236.0","0","0","27636","","null","","","null","26","","","","","","","","","","","","","","","",""
"","ISI","","html-keyboard-response","174","1416777","0.0-1.0-237.0","0","0","27636","","null","","","null","26","NaN","","","","","","","","","","","","","","",""
"","S2","","html-keyboard-response","175","1417038","0.0-1.0-238.0","0","0","27636","","null","","","null","26","","NaN","","","","","","","","","","","","","",""
"","response","","html-keyboard-response","176","1417938","0.0-1.0-239.0","0","0","27636","","899","","","68","26","","","1","26","training","adjacent","ED","5","4","M.jpg","Q.jpg","1","0","0","",""
"","feedback","","html-keyboard-response","177","1418948","0.0-1.0-240.0-0.0","0","0","27636","","null","","","null","26","","","","","","","","","","","","","","","",""
"","time_out","","html-keyboard-response","178","1420958","0.0-1.0-242.0-0.0","0","0","27636","","null","","","null","26","","","","","","","","","","","","","","","",""
"","ITI","","html-keyboard-response","179","1421968","0.0-1.0-243.0","0","0","27636","","null","","","null","26","","","","","","","","","","","","","","","NaN",""
"","S1","","html-keyboard-response","180","1422228","0.0-1.0-245.0","0","0","27636","","null","","","null","27","","","","","","","","","","","","","","","",""
"","ISI","","html-keyboard-response","181","1424238","0.0-1.0-246.0","0","0","27636","","null","","","null","27","NaN","","","","","","","","","","","","","","",""
"","S2","","html-keyboard-response","182","1424498","0.0-1.0-247.0","0","0","27636","","null","","","null","27","","NaN","","","","","","","","","","","","","",""
"","response","","html-keyboard-response","183","1425265","0.0-1.0-248.0","0","0","27636","","766","","","68","27","","","1","27","training","adjacent","BA","2","1","P.jpg","N.jpg","1","0","0","",""
"","feedback","","html-keyboard-response","184","1426268","0.0-1.0-249.0-0.0","0","0","27636","","null","","","null","27","","","","","","","","","","","","","","","",""
"","time_out","","html-keyboard-response","185","1428279","0.0-1.0-251.0-0.0","0","0","27636","","null","","","null","27","","","","","","","","","","","","","","","",""
"","ITI","","html-keyboard-response","186","1429290","0.0-1.0-252.0","0","0","27636","","null","","","null","27","","","","","","","","","","","","","","","NaN",""
"","S1","","html-keyboard-response","187","1429549","0.0-1.0-254.0","0","0","27636","","null","","","null","28","","","","","","","","","","","","","","","",""
"","ISI","","html-keyboard-response","188","1431560","0.0-1.0-255.0","0","0","27636","","null","","","null","28","NaN","","","","","","","","","","","","","","",""
"","S2","","html-keyboard-response","189","1431819","0.0-1.0-256.0","0","0","27636","","null","","","null","28","","NaN","","","","","","","","","","","","","",""
"","response","","html-keyboard-response","190","1432793","0.0-1.0-257.0","0","0","27636","","972","","","75","28","","","1","28","training","adjacent","ED","5","4","M.jpg","Q.jpg","0","0","1","",""
"","feedback","","html-keyboard-response","191","1433800","0.0-1.0-258.0-0.0","0","0","27636","","null","","","null","28","","","","","","","","","","","","","","","",""
"","ITI","","html-keyboard-response","192","1434809","0.0-1.0-261.0","0","0","27636","","null","","","null","28","","","","","","","","","","","","","","","NaN",""
"","S1","","html-keyboard-response","193","1435069","0.0-1.0-263.0","0","0","27636","","null","","","null","29","","","","","","","","","","","","","","","",""
"","ISI","","html-keyboard-response","194","1437079","0.0-1.0-264.0","0","0","27636","","null","","","null","29","NaN","","","","","","","","","","","","","","",""
"","S2","","html-keyboard-response","195","1437339","0.0-1.0-265.0","0","0","27636","","null","","","null","29","","NaN","","","","","","","","","","","","","",""
"","response","","html-keyboard-response","196","1438425","0.0-1.0-266.0","0","0","27636","","1084","","","75","29","","","1","29","training","adjacent","CD","3","4","R.jpg","Q.jpg","0","1","0","",""
"","feedback","","html-keyboard-response","197","1439429","0.0-1.0-267.0-0.0","0","0","27636","","null","","","null","29","","","","","","","","","","","","","","","",""
"","time_out","","html-keyboard-response","198","1441439","0.0-1.0-269.0-0.0","0","0","27636","","null","","","null","29","","","","","","","","","","","","","","","",""
"","ITI","","html-keyboard-response","199","1442448","0.0-1.0-270.0","0","0","27636","","null","","","null","29","","","","","","","","","","","","","","","NaN",""
"","S1","","html-keyboard-response","200","1442710","0.0-1.0-272.0","0","0","27636","","null","","","null","30","","","","","","","","","","","","","","","",""
"","ISI","","html-keyboard-response","201","1444719","0.0-1.0-273.0","0","0","27636","","null","","","null","30","NaN","","","","","","","","","","","","","","",""
"","S2","","html-keyboard-response","202","1444979","0.0-1.0-274.0","0","0","27636","","null","","","null","30","","NaN","","","","","","","","","","","","","",""
"","response","","html-keyboard-response","203","1445418","0.0-1.0-275.0","0","0","27636","","435","","","68","30","","","1","30","training","adjacent","GF","7","6","O.jpg","L.jpg","1","0","0","",""
"","feedback","","html-keyboard-response","204","1446430","0.0-1.0-276.0-0.0","0","0","27636","","null","","","null","30","","","","","","","","","","","","","","","",""
"","time_out","","html-keyboard-response","205","1448439","0.0-1.0-278.0-0.0","0","0","27636","","null","","","null","30","","","","","","","","","","","","","","","",""
"","ITI","","html-keyboard-response","206","1449450","0.0-1.0-279.0","0","0","27636","","null","","","null","30","","","","","","","","","","","","","","","NaN",""
"","S1","","html-keyboard-response","207","1449709","0.0-1.0-281.0","0","0","27636","","null","","","null","31","","","","","","","","","","","","","","","",""
"","ISI","","html-keyboard-response","208","1451719","0.0-1.0-282.0","0","0","27636","","null","","","null","31","NaN","","","","","","","","","","","","","","",""
"","S2","","html-keyboard-response","209","1451978","0.0-1.0-283.0","0","0","27636","","null","","","null","31","","NaN","","","","","","","","","","","","","",""
"","response","","html-keyboard-response","210","1452713","0.0-1.0-284.0","0","0","27636","","732","","","75","31","","","1","31","training","adjacent","EF","5","6","M.jpg","L.jpg","0","1","0","",""
"","feedback","","html-keyboard-response","211","1453719","0.0-1.0-285.0-0.0","0","0","27636","","null","","","null","31","","","","","","","","","","","","","","","",""
"","time_out","","html-keyboard-response","212","1455729","0.0-1.0-287.0-0.0","0","0","27636","","null","","","null","31","","","","","","","","","","","","","","","",""
"","ITI","","html-keyboard-response","213","1456739","0.0-1.0-288.0","0","0","27636","","null","","","null","31","","","","","","","","","","","","","","","NaN",""
"","S1","","html-keyboard-response","214","1456999","0.0-1.0-290.0","0","0","27636","","null","","","null","32","","","","","","","","","","","","","","","",""
"","ISI","","html-keyboard-response","215","1459010","0.0-1.0-291.0","0","0","27636","","null","","","null","32","NaN","","","","","","","","","","","","","","",""
"","S2","","html-keyboard-response","216","1459269","0.0-1.0-292.0","0","0","27636","","null","","","null","32","","NaN","","","","","","","","","","","","","",""
"","response","","html-keyboard-response","217","1460490","0.0-1.0-293.0","0","0","27636","","1219","","","75","32","","","1","32","training","adjacent","BC","2","3","P.jpg","R.jpg","0","1","0","",""
"","feedback","","html-keyboard-response","218","1461499","0.0-1.0-294.0-0.0","0","0","27636","","null","","","null","32","","","","","","","","","","","","","","","",""
"","time_out","","html-keyboard-response","219","1463509","0.0-1.0-296.0-0.0","0","0","27636","","null","","","null","32","","","","","","","","","","","","","","","",""
"","ITI","","html-keyboard-response","220","1464522","0.0-1.0-297.0","0","0","27636","","null","","","null","32","","","","","","","","","","","","","","","NaN",""
"","S1","","html-keyboard-response","221","1464778","0.0-1.0-299.0","0","0","27636","","null","","","null","33","","","","","","","","","","","","","","","",""
"","ISI","","html-keyboard-response","222","1466788","0.0-1.0-300.0","0","0","27636","","null","","","null","33","NaN","","","","","","","","","","","","","","",""
"","S2","","html-keyboard-response","223","1467050","0.0-1.0-301.0","0","0","27636","","null","","","null","33","","NaN","","","","","","","","","","","","","",""
"","response","","html-keyboard-response","224","1467984","0.0-1.0-302.0","0","0","27636","","933","","","75","33","","","1","33","training","adjacent","FE","6","5","L.jpg","M.jpg","0","0","1","",""
"","feedback","","html-keyboard-response","225","1468989","0.0-1.0-303.0-0.0","0","0","27636","","null","","","null","33","","","","","","","","","","","","","","","",""
"","ITI","","html-keyboard-response","226","1469998","0.0-1.0-306.0","0","0","27636","","null","","","null","33","","","","","","","","","","","","","","","NaN",""
"","S1","","html-keyboard-response","227","1470259","0.0-1.0-308.0","0","0","27636","","null","","","null","34","","","","","","","","","","","","","","","",""
"","ISI","","html-keyboard-response","228","1472269","0.0-1.0-309.0","0","0","27636","","null","","","null","34","NaN","","","","","","","","","","","","","","",""
"","S2","","html-keyboard-response","229","1472530","0.0-1.0-310.0","0","0","27636","","null","","","null","34","","NaN","","","","","","","","","","","","","",""
"","response","","html-keyboard-response","230","1473521","0.0-1.0-311.0","0","0","27636","","989","","","75","34","","","1","34","training","adjacent","AB","1","2","N.jpg","P.jpg","0","1","0","",""
"","feedback","","html-keyboard-response","231","1474528","0.0-1.0-312.0-0.0","0","0","27636","","null","","","null","34","","","","","","","","","","","","","","","",""
"","time_out","","html-keyboard-response","232","1476540","0.0-1.0-314.0-0.0","0","0","27636","","null","","","null","34","","","","","","","","","","","","","","","",""
"","ITI","","html-keyboard-response","233","1477549","0.0-1.0-315.0","0","0","27636","","null","","","null","34","","","","","","","","","","","","","","","NaN",""
"","S1","","html-keyboard-response","234","1477809","0.0-1.0-317.0","0","0","27636","","null","","","null","35","","","","","","","","","","","","","","","",""
"","ISI","","html-keyboard-response","235","1479818","0.0-1.0-318.0","0","0","27636","","null","","","null","35","NaN","","","","","","","","","","","","","","",""
"","S2","","html-keyboard-response","236","1480078","0.0-1.0-319.0","0","0","27636","","null","","","null","35","","NaN","","","","","","","","","","","","","",""
"","response","","html-keyboard-response","237","1481351","0.0-1.0-320.0","0","0","27636","","1271","","","75","35","","","1","35","training","adjacent","GF","7","6","O.jpg","L.jpg","0","0","1","",""
"","feedback","","html-keyboard-response","238","1482362","0.0-1.0-321.0-0.0","0","0","27636","","null","","","null","35","","","","","","","","","","","","","","","",""
"","ITI","","html-keyboard-response","239","1483368","0.0-1.0-324.0","0","0","27636","","null","","","null","35","","","","","","","","","","","","","","","NaN",""
"","S1","","html-keyboard-response","240","1483629","0.0-1.0-326.0","0","0","27636","","null","","","null","36","","","","","","","","","","","","","","","",""
"","ISI","","html-keyboard-response","241","1485638","0.0-1.0-327.0","0","0","27636","","null","","","null","36","NaN","","","","","","","","","","","","","","",""
"","S2","","html-keyboard-response","242","1485898","0.0-1.0-328.0","0","0","27636","","null","","","null","36","","NaN","","","","","","","","","","","","","",""
"","response","","html-keyboard-response","243","1486841","0.0-1.0-329.0","0","0","27636","","939","","","68","36","","","1","36","training","adjacent","BC","2","3","P.jpg","R.jpg","1","1","1","",""
"","feedback","","html-keyboard-response","244","1487849","0.0-1.0-330.0-0.0","0","0","27636","","null","","","null","36","","","","","","","","","","","","","","","",""
"","ITI","","html-keyboard-response","245","1488858","0.0-1.0-333.0","0","0","27636","","null","","","null","36","","","","","","","","","","","","","","","NaN",""
"","S1","","html-keyboard-response","246","1489119","0.0-1.0-335.0","0","0","27636","","null","","","null","37","","","","","","","","","","","","","","","",""
"","ISI","","html-keyboard-response","247","1491128","0.0-1.0-336.0","0","0","27636","","null","","","null","37","NaN","","","","","","","","","","","","","","",""
"","S2","","html-keyboard-response","248","1491388","0.0-1.0-337.0","0","0","27636","","null","","","null","37","","NaN","","","","","","","","","","","","","",""
"","response","","html-keyboard-response","249","1491947","0.0-1.0-338.0","0","0","27636","","556","","","68","37","","","1","37","training","adjacent","AB","1","2","N.jpg","P.jpg","1","1","1","",""
"","feedback","","html-keyboard-response","250","1492958","0.0-1.0-339.0-0.0","0","0","27636","","null","","","null","37","","","","","","","","","","","","","","","",""
"","ITI","","html-keyboard-response","251","1493969","0.0-1.0-342.0","0","0","27636","","null","","","null","37","","","","","","","","","","","","","","","NaN",""
"","S1","","html-keyboard-response","252","1494229","0.0-1.0-344.0","0","0","27636","","null","","","null","38","","","","","","","","","","","","","","","",""
"","ISI","","html-keyboard-response","253","1496238","0.0-1.0-345.0","0","0","27636","","null","","","null","38","NaN","","","","","","","","","","","","","","",""
"","S2","","html-keyboard-response","254","1496498","0.0-1.0-346.0","0","0","27636","","null","","","null","38","","NaN","","","","","","","","","","","","","",""
"","response","","html-keyboard-response","255","1497040","0.0-1.0-347.0","0","0","27636","","541","","","68","38","","","1","38","training","adjacent","BC","2","3","P.jpg","R.jpg","1","1","1","",""
"","feedback","","html-keyboard-response","256","1498048","0.0-1.0-348.0-0.0","0","0","27636","","null","","","null","38","","","","","","","","","","","","","","","",""
"","ITI","","html-keyboard-response","257","1499058","0.0-1.0-351.0","0","0","27636","","null","","","null","38","","","","","","","","","","","","","","","NaN",""
"","S1","","html-keyboard-response","258","1499318","0.0-1.0-353.0","0","0","27636","","null","","","null","39","","","","","","","","","","","","","","","",""
"","ISI","","html-keyboard-response","259","1501329","0.0-1.0-354.0","0","0","27636","","null","","","null","39","NaN","","","","","","","","","","","","","","",""
"","S2","","html-keyboard-response","260","1501589","0.0-1.0-355.0","0","0","27636","","null","","","null","39","","NaN","","","","","","","","","","","","","",""
"","response","","html-keyboard-response","261","1502703","0.0-1.0-356.0","0","0","27636","","1113","","","68","39","","","1","39","training","adjacent","DC","4","3","Q.jpg","R.jpg","1","0","0","",""
"","feedback","","html-keyboard-response","262","1503708","0.0-1.0-357.0-0.0","0","0","27636","","null","","","null","39","","","","","","","","","","","","","","","",""
"","time_out","","html-keyboard-response","263","1505719","0.0-1.0-359.0-0.0","0","0","27636","","null","","","null","39","","","","","","","","","","","","","","","",""
"","ITI","","html-keyboard-response","264","1506728","0.0-1.0-360.0","0","0","27636","","null","","","null","39","","","","","","","","","","","","","","","NaN",""
"","block_over","","html-keyboard-response","265","1512735","0.0-1.0-361.0-0.0","0","0","27636","","6004","","","32","39","","","","","","","","","","","","","","","",""
"","S1","","html-keyboard-response","266","1512987","0.0-1.0-362.0","0","0","27636","","null","","","null","40","","","","","","","","","","","","","","","",""
"","ISI","","html-keyboard-response","267","1514998","0.0-1.0-363.0","0","0","27636","","null","","","null","40","NaN","","","","","","","","","","","","","","",""
"","S2","","html-keyboard-response","268","1515258","0.0-1.0-364.0","0","0","27636","","null","","","null","40","","NaN","","","","","","","","","","","","","",""
"","response","","html-keyboard-response","269","1516127","0.0-1.0-365.0","0","0","27636","","868","","","75","40","","","2","40","training","adjacent","CD","3","4","R.jpg","Q.jpg","0","1","0","",""
"","feedback","","html-keyboard-response","270","1517138","0.0-1.0-366.0-0.0","0","0","27636","","null","","","null","40","","","","","","","","","","","","","","","",""
"","time_out","","html-keyboard-response","271","1519148","0.0-1.0-368.0-0.0","0","0","27636","","null","","","null","40","","","","","","","","","","","","","","","",""
"","ITI","","html-keyboard-response","272","1520158","0.0-1.0-369.0","0","0","27636","","null","","","null","40","","","","","","","","","","","","","","","NaN",""
"","S1","","html-keyboard-response","273","1520418","0.0-1.0-371.0","0","0","27636","","null","","","null","41","","","","","","","","","","","","","","","",""
"","ISI","","html-keyboard-response","274","1522429","0.0-1.0-372.0","0","0","27636","","null","","","null","41","NaN","","","","","","","","","","","","","","",""
"","S2","","html-keyboard-response","275","1522688","0.0-1.0-373.0","0","0","27636","","null","","","null","41","","NaN","","","","","","","","","","","","","",""
"","response","","html-keyboard-response","276","1523375","0.0-1.0-374.0","0","0","27636","","685","","","75","41","","","2","41","training","adjacent","GF","7","6","O.jpg","L.jpg","0","0","1","",""
"","feedback","","html-keyboard-response","277","1524379","0.0-1.0-375.0-0.0","0","0","27636","","null","","","null","41","","","","","","","","","","","","","","","",""
"","ITI","","html-keyboard-response","278","1525388","0.0-1.0-378.0","0","0","27636","","null","","","null","41","","","","","","","","","","","","","","","NaN",""
"","S1","","html-keyboard-response","279","1525648","0.0-1.0-380.0","0","0","27636","","null","","","null","42","","","","","","","","","","","","","","","",""
"","ISI","","html-keyboard-response","280","1527658","0.0-1.0-381.0","0","0","27636","","null","","","null","42","NaN","","","","","","","","","","","","","","",""
"","S2","","html-keyboard-response","281","1527918","0.0-1.0-382.0","0","0","27636","","null","","","null","42","","NaN","","","","","","","","","","","","","",""
"","response","","html-keyboard-response","282","1529296","0.0-1.0-383.0","0","0","27636","","1376","","","75","42","","","2","42","training","adjacent","DC","4","3","Q.jpg","R.jpg","0","0","1","",""
"","feedback","","html-keyboard-response","283","1530307","0.0-1.0-384.0-0.0","0","0","27636","","null","","","null","42","","","","","","","","","","","","","","","",""
"","ITI","","html-keyboard-response","284","1531318","0.0-1.0-387.0","0","0","27636","","null","","","null","42","","","","","","","","","","","","","","","NaN",""
"","S1","","html-keyboard-response","285","1531577","0.0-1.0-389.0","0","0","27636","","null","","","null","43","","","","","","","","","","","","","","","",""
"","ISI","","html-keyboard-response","286","1533588","0.0-1.0-390.0","0","0","27636","","null","","","null","43","NaN","","","","","","","","","","","","","","",""
"","S2","","html-keyboard-response","287","1533848","0.0-1.0-391.0","0","0","27636","","null","","","null","43","","NaN","","","","","","","","","","","","","",""
"","response","","html-keyboard-response","288","1534759","0.0-1.0-392.0","0","0","27636","","909","","","68","43","","","2","43","training","adjacent","DE","4","5","Q.jpg","M.jpg","1","1","1","",""
"","feedback","","html-keyboard-response","289","1535768","0.0-1.0-393.0-0.0","0","0","27636","","null","","","null","43","","","","","","","","","","","","","","","",""
"","ITI","","html-keyboard-response","290","1536778","0.0-1.0-396.0","0","0","27636","","null","","","null","43","","","","","","","","","","","","","","","NaN",""
"","S1","","html-keyboard-response","291","1537037","0.0-1.0-398.0","0","0","27636","","null","","","null","44","","","","","","","","","","","","","","","",""
"","ISI","","html-keyboard-response","292","1539047","0.0-1.0-399.0","0","0","27636","","null","","","null","44","NaN","","","","","","","","","","","","","","",""
"","S2","","html-keyboard-response","293","1539307","0.0-1.0-400.0","0","0","27636","","null","","","null","44","","NaN","","","","","","","","","","","","","",""
"","response","","html-keyboard-response","294","1540015","0.0-1.0-401.0","0","0","27636","","705","","","68","44","","","2","44","training","adjacent","AB","1","2","N.jpg","P.jpg","1","1","1","",""
"","feedback","","html-keyboard-response","295","1541028","0.0-1.0-402.0-0.0","0","0","27636","","null","","","null","44","","","","","","","","","","","","","","","",""
"","ITI","","html-keyboard-response","296","1542037","0.0-1.0-405.0","0","0","27636","","null","","","null","44","","","","","","","","","","","","","","","NaN",""
"","S1","","html-keyboard-response","297","1542297","0.0-1.0-407.0","0","0","27636","","null","","","null","45","","","","","","","","","","","","","","","",""
"","ISI","","html-keyboard-response","298","1544307","0.0-1.0-408.0","0","0","27636","","null","","","null","45","NaN","","","","","","","","","","","","","","",""
"","S2","","html-keyboard-response","299","1544568","0.0-1.0-409.0","0","0","27636","","null","","","null","45","","NaN","","","","","","","","","","","","","",""
"","response","","html-keyboard-response","300","1545448","0.0-1.0-410.0","0","0","27636","","878","","","68","45","","","2","45","training","adjacent","DC","4","3","Q.jpg","R.jpg","1","0","0","",""
"","feedback","","html-keyboard-response","301","1546457","0.0-1.0-411.0-0.0","0","0","27636","","null","","","null","45","","","","","","","","","","","","","","","",""
"","time_out","","html-keyboard-response","302","1548468","0.0-1.0-413.0-0.0","0","0","27636","","null","","","null","45","","","","","","","","","","","","","","","",""
"","ITI","","html-keyboard-response","303","1549478","0.0-1.0-414.0","0","0","27636","","null","","","null","45","","","","","","","","","","","","","","","NaN",""
"","S1","","html-keyboard-response","304","1549738","0.0-1.0-416.0","0","0","27636","","null","","","null","46","","","","","","","","","","","","","","","",""
"","ISI","","html-keyboard-response","305","1551748","0.0-1.0-417.0","0","0","27636","","null","","","null","46","NaN","","","","","","","","","","","","","","",""
"","S2","","html-keyboard-response","306","1552008","0.0-1.0-418.0","0","0","27636","","null","","","null","46","","NaN","","","","","","","","","","","","","",""
"","response","","html-keyboard-response","307","1552695","0.0-1.0-419.0","0","0","27636","","685","","","68","46","","","2","46","training","adjacent","FG","6","7","L.jpg","O.jpg","1","1","1","",""
"","feedback","","html-keyboard-response","308","1553698","0.0-1.0-420.0-0.0","0","0","27636","","null","","","null","46","","","","","","","","","","","","","","","",""
"","ITI","","html-keyboard-response","309","1554707","0.0-1.0-423.0","0","0","27636","","null","","","null","46","","","","","","","","","","","","","","","NaN",""
"","S1","","html-keyboard-response","310","1554968","0.0-1.0-425.0","0","0","27636","","null","","","null","47","","","","","","","","","","","","","","","",""
"","ISI","","html-keyboard-response","311","1556978","0.0-1.0-426.0","0","0","27636","","null","","","null","47","NaN","","","","","","","","","","","","","","",""
"","S2","","html-keyboard-response","312","1557237","0.0-1.0-427.0","0","0","27636","","null","","","null","47","","NaN","","","","","","","","","","","","","",""
"","response","","html-keyboard-response","313","1557519","0.0-1.0-428.0","0","0","27636","","278","","","68","47","","","2","47","training","adjacent","FG","6","7","L.jpg","O.jpg","1","1","1","",""
"","feedback","","html-keyboard-response","314","1558528","0.0-1.0-429.0-0.0","0","0","27636","","null","","","null","47","","","","","","","","","","","","","","","",""
"","ITI","","html-keyboard-response","315","1559538","0.0-1.0-432.0","0","0","27636","","null","","","null","47","","","","","","","","","","","","","","","NaN",""
"","S1","","html-keyboard-response","316","1559797","0.0-1.0-434.0","0","0","27636","","null","","","null","48","","","","","","","","","","","","","","","",""
"","ISI","","html-keyboard-response","317","1561808","0.0-1.0-435.0","0","0","27636","","null","","","null","48","NaN","","","","","","","","","","","","","","",""
"","S2","","html-keyboard-response","318","1562068","0.0-1.0-436.0","0","0","27636","","null","","","null","48","","NaN","","","","","","","","","","","","","",""
"","response","","html-keyboard-response","319","1563134","0.0-1.0-437.0","0","0","27636","","1064","","","75","48","","","2","48","training","adjacent","ED","5","4","M.jpg","Q.jpg","0","0","1","",""
"","feedback","","html-keyboard-response","320","1564137","0.0-1.0-438.0-0.0","0","0","27636","","null","","","null","48","","","","","","","","","","","","","","","",""
"","ITI","","html-keyboard-response","321","1565147","0.0-1.0-441.0","0","0","27636","","null","","","null","48","","","","","","","","","","","","","","","NaN",""
"","S1","","html-keyboard-response","322","1565406","0.0-1.0-443.0","0","0","27636","","null","","","null","49","","","","","","","","","","","","","","","",""
"","ISI","","html-keyboard-response","323","1567417","0.0-1.0-444.0","0","0","27636","","null","","","null","49","NaN","","","","","","","","","","","","","","",""
"","S2","","html-keyboard-response","324","1567678","0.0-1.0-445.0","0","0","27636","","null","","","null","49","","NaN","","","","","","","","","","","","","",""
"","response","","html-keyboard-response","325","1567917","0.0-1.0-446.0","0","0","27636","","238","","","68","49","","","2","49","training","adjacent","DE","4","5","Q.jpg","M.jpg","1","1","1","",""
"","feedback","","html-keyboard-response","326","1568927","0.0-1.0-447.0-0.0","0","0","27636","","null","","","null","49","","","","","","","","","","","","","","","",""
"","ITI","","html-keyboard-response","327","1569937","0.0-1.0-450.0","0","0","27636","","null","","","null","49","","","","","","","","","","","","","","","NaN",""
"","S1","","html-keyboard-response","328","1570198","0.0-1.0-452.0","0","0","27636","","null","","","null","50","","","","","","","","","","","","","","","",""
"","ISI","","html-keyboard-response","329","1572208","0.0-1.0-453.0","0","0","27636","","null","","","null","50","NaN","","","","","","","","","","","","","","",""
"","S2","","html-keyboard-response","330","1572466","0.0-1.0-454.0","0","0","27636","","null","","","null","50","","NaN","","","","","","","","","","","","","",""
"","response","","html-keyboard-response","331","1573854","0.0-1.0-455.0","0","0","27636","","1385","","","68","50","","","2","50","training","adjacent","CB","3","2","R.jpg","P.jpg","1","0","0","",""
"","feedback","","html-keyboard-response","332","1574858","0.0-1.0-456.0-0.0","0","0","27636","","null","","","null","50","","","","","","","","","","","","","","","",""
"","time_out","","html-keyboard-response","333","1576867","0.0-1.0-458.0-0.0","0","0","27636","","null","","","null","50","","","","","","","","","","","","","","","",""
"","ITI","","html-keyboard-response","334","1577877","0.0-1.0-459.0","0","0","27636","","null","","","null","50","","","","","","","","","","","","","","","NaN",""
"","S1","","html-keyboard-response","335","1578137","0.0-1.0-461.0","0","0","27636","","null","","","null","51","","","","","","","","","","","","","","","",""
"","ISI","","html-keyboard-response","336","1580146","0.0-1.0-462.0","0","0","27636","","null","","","null","51","NaN","","","","","","","","","","","","","","",""
"","S2","","html-keyboard-response","337","1580407","0.0-1.0-463.0","0","0","27636","","null","","","null","51","","NaN","","","","","","","","","","","","","",""
"","response","","html-keyboard-response","338","1581069","0.0-1.0-464.0","0","0","27636","","660","","","75","51","","","2","51","training","adjacent","BC","2","3","P.jpg","R.jpg","0","1","0","",""
"","feedback","","html-keyboard-response","339","1582077","0.0-1.0-465.0-0.0","0","0","27636","","null","","","null","51","","","","","","","","","","","","","","","",""
"","time_out","","html-keyboard-response","340","1584087","0.0-1.0-467.0-0.0","0","0","27636","","null","","","null","51","","","","","","","","","","","","","","","",""
"","ITI","","html-keyboard-response","341","1585098","0.0-1.0-468.0","0","0","27636","","null","","","null","51","","","","","","","","","","","","","","","NaN",""
"","S1","","html-keyboard-response","342","1585357","0.0-1.0-470.0","0","0","27636","","null","","","null","52","","","","","","","","","","","","","","","",""
"","ISI","","html-keyboard-response","343","1587368","0.0-1.0-471.0","0","0","27636","","null","","","null","52","NaN","","","","","","","","","","","","","","",""
"","S2","","html-keyboard-response","344","1587626","0.0-1.0-472.0","0","0","27636","","null","","","null","52","","NaN","","","","","","","","","","","","","",""
"","response","","html-keyboard-response","345","1588398","0.0-1.0-473.0","0","0","27636","","769","","","75","52","","","2","52","training","adjacent","FE","6","5","L.jpg","M.jpg","0","0","1","",""
"","feedback","","html-keyboard-response","346","1589408","0.0-1.0-474.0-0.0","0","0","27636","","null","","","null","52","","","","","","","","","","","","","","","",""
"","ITI","","html-keyboard-response","347","1590419","0.0-1.0-477.0","0","0","27636","","null","","","null","52","","","","","","","","","","","","","","","NaN",""
"","S1","","html-keyboard-response","348","1590676","0.0-1.0-479.0","0","0","27636","","null","","","null","53","","","","","","","","","","","","","","","",""
"","ISI","","html-keyboard-response","349","1592687","0.0-1.0-480.0","0","0","27636","","null","","","null","53","NaN","","","","","","","","","","","","","","",""
"","S2","","html-keyboard-response","350","1592948","0.0-1.0-481.0","0","0","27636","","null","","","null","53","","NaN","","","","","","","","","","","","","",""
"","response","","html-keyboard-response","351","1593861","0.0-1.0-482.0","0","0","27636","","912","","","75","53","","","2","53","training","adjacent","CB","3","2","R.jpg","P.jpg","0","0","1","",""
"","feedback","","html-keyboard-response","352","1594867","0.0-1.0-483.0-0.0","0","0","27636","","null","","","null","53","","","","","","","","","","","","","","","",""
"","ITI","","html-keyboard-response","353","1595876","0.0-1.0-486.0","0","0","27636","","null","","","null","53","","","","","","","","","","","","","","","NaN",""
"","S1","","html-keyboard-response","354","1596137","0.0-1.0-488.0","0","0","27636","","null","","","null","54","","","","","","","","","","","","","","","",""
"","ISI","","html-keyboard-response","355","1598147","0.0-1.0-489.0","0","0","27636","","null","","","null","54","NaN","","","","","","","","","","","","","","",""
"","S2","","html-keyboard-response","356","1598407","0.0-1.0-490.0","0","0","27636","","null","","","null","54","","NaN","","","","","","","","","","","","","",""
"","response","","html-keyboard-response","357","1599037","0.0-1.0-491.0","0","0","27636","","628","","","68","54","","","2","54","training","adjacent","BA","2","1","P.jpg","N.jpg","1","0","0","",""
"","feedback","","html-keyboard-response","358","1600046","0.0-1.0-492.0-0.0","0","0","27636","","null","","","null","54","","","","","","","","","","","","","","","",""
"","time_out","","html-keyboard-response","359","1602057","0.0-1.0-494.0-0.0","0","0","27636","","null","","","null","54","","","","","","","","","","","","","","","",""
"","ITI","","html-keyboard-response","360","1603066","0.0-1.0-495.0","0","0","27636","","null","","","null","54","","","","","","","","","","","","","","","NaN",""
"","S1","","html-keyboard-response","361","1603326","0.0-1.0-497.0","0","0","27636","","null","","","null","55","","","","","","","","","","","","","","","",""
"","ISI","","html-keyboard-response","362","1605336","0.0-1.0-498.0","0","0","27636","","null","","","null","55","NaN","","","","","","","","","","","","","","",""
"","S2","","html-keyboard-response","363","1605597","0.0-1.0-499.0","0","0","27636","","null","","","null","55","","NaN","","","","","","","","","","","","","",""
"","response","","html-keyboard-response","364","1606125","0.0-1.0-500.0","0","0","27636","","526","","","75","55","","","2","55","training","adjacent","ED","5","4","M.jpg","Q.jpg","0","0","1","",""
"","feedback","","html-keyboard-response","365","1607137","0.0-1.0-501.0-0.0","0","0","27636","","null","","","null","55","","","","","","","","","","","","","","","",""
"","ITI","","html-keyboard-response","366","1608146","0.0-1.0-504.0","0","0","27636","","null","","","null","55","","","","","","","","","","","","","","","NaN",""
"","S1","","html-keyboard-response","367","1608406","0.0-1.0-506.0","0","0","27636","","null","","","null","56","","","","","","","","","","","","","","","",""
"","ISI","","html-keyboard-response","368","1610417","0.0-1.0-507.0","0","0","27636","","null","","","null","56","NaN","","","","","","","","","","","","","","",""
"","S2","","html-keyboard-response","369","1610677","0.0-1.0-508.0","0","0","27636","","null","","","null","56","","NaN","","","","","","","","","","","","","",""
"","response","","html-keyboard-response","370","1611085","0.0-1.0-509.0","0","0","27636","","406","","","75","56","","","2","56","training","adjacent","ED","5","4","M.jpg","Q.jpg","0","0","1","",""
"","feedback","","html-keyboard-response","371","1612096","0.0-1.0-510.0-0.0","0","0","27636","","null","","","null","56","","","","","","","","","","","","","","","",""
"","ITI","","html-keyboard-response","372","1613106","0.0-1.0-513.0","0","0","27636","","null","","","null","56","","","","","","","","","","","","","","","NaN",""
"","S1","","html-keyboard-response","373","1613367","0.0-1.0-515.0","0","0","27636","","null","","","null","57","","","","","","","","","","","","","","","",""
"","ISI","","html-keyboard-response","374","1615376","0.0-1.0-516.0","0","0","27636","","null","","","null","57","NaN","","","","","","","","","","","","","","",""
"","S2","","html-keyboard-response","375","1615636","0.0-1.0-517.0","0","0","27636","","null","","","null","57","","NaN","","","","","","","","","","","","","",""
"","response","","html-keyboard-response","376","1616229","0.0-1.0-518.0","0","0","27636","","591","","","68","57","","","2","57","training","adjacent","EF","5","6","M.jpg","L.jpg","1","1","1","",""
"","feedback","","html-keyboard-response","377","1617236","0.0-1.0-519.0-0.0","0","0","27636","","null","","","null","57","","","","","","","","","","","","","","","",""
"","ITI","","html-keyboard-response","378","1618247","0.0-1.0-522.0","0","0","27636","","null","","","null","57","","","","","","","","","","","","","","","NaN",""
"","S1","","html-keyboard-response","379","1618507","0.0-1.0-524.0","0","0","27636","","null","","","null","58","","","","","","","","","","","","","","","",""
"","ISI","","html-keyboard-response","380","1620516","0.0-1.0-525.0","0","0","27636","","null","","","null","58","NaN","","","","","","","","","","","","","","",""
"","S2","","html-keyboard-response","381","1620776","0.0-1.0-526.0","0","0","27636","","null","","","null","58","","NaN","","","","","","","","","","","","","",""
"","response","","html-keyboard-response","382","1621293","0.0-1.0-527.0","0","0","27636","","515","","","68","58","","","2","58","training","adjacent","FE","6","5","L.jpg","M.jpg","1","0","0","",""
"","feedback","","html-keyboard-response","383","1622296","0.0-1.0-528.0-0.0","0","0","27636","","null","","","null","58","","","","","","","","","","","","","","","",""
"","time_out","","html-keyboard-response","384","1624305","0.0-1.0-530.0-0.0","0","0","27636","","null","","","null","58","","","","","","","","","","","","","","","",""
"","ITI","","html-keyboard-response","385","1625316","0.0-1.0-531.0","0","0","27636","","null","","","null","58","","","","","","","","","","","","","","","NaN",""
"","S1","","html-keyboard-response","386","1625576","0.0-1.0-533.0","0","0","27636","","null","","","null","59","","","","","","","","","","","","","","","",""
"","ISI","","html-keyboard-response","387","1627586","0.0-1.0-534.0","0","0","27636","","null","","","null","59","NaN","","","","","","","","","","","","","","",""
"","S2","","html-keyboard-response","388","1627846","0.0-1.0-535.0","0","0","27636","","null","","","null","59","","NaN","","","","","","","","","","","","","",""
"","response","","html-keyboard-response","389","1628909","0.0-1.0-536.0","0","0","27636","","1061","","","68","59","","","2","59","training","adjacent","DC","4","3","Q.jpg","R.jpg","1","0","0","",""
"","feedback","","html-keyboard-response","390","1629916","0.0-1.0-537.0-0.0","0","0","27636","","null","","","null","59","","","","","","","","","","","","","","","",""
"","time_out","","html-keyboard-response","391","1631926","0.0-1.0-539.0-0.0","0","0","27636","","null","","","null","59","","","","","","","","","","","","","","","",""
"","ITI","","html-keyboard-response","392","1632936","0.0-1.0-540.0","0","0","27636","","null","","","null","59","","","","","","","","","","","","","","","NaN",""
"","S1","","html-keyboard-response","393","1633196","0.0-1.0-542.0","0","0","27636","","null","","","null","60","","","","","","","","","","","","","","","",""
"","ISI","","html-keyboard-response","394","1635205","0.0-1.0-543.0","0","0","27636","","null","","","null","60","NaN","","","","","","","","","","","","","","",""
"","S2","","html-keyboard-response","395","1635465","0.0-1.0-544.0","0","0","27636","","null","","","null","60","","NaN","","","","","","","","","","","","","",""
"","response","","html-keyboard-response","396","1636036","0.0-1.0-545.0","0","0","27636","","569","","","68","60","","","2","60","training","adjacent","GF","7","6","O.jpg","L.jpg","1","0","0","",""
"","feedback","","html-keyboard-response","397","1637046","0.0-1.0-546.0-0.0","0","0","27636","","null","","","null","60","","","","","","","","","","","","","","","",""
"","time_out","","html-keyboard-response","398","1639056","0.0-1.0-548.0-0.0","0","0","27636","","null","","","null","60","","","","","","","","","","","","","","","",""
"","ITI","","html-keyboard-response","399","1640065","0.0-1.0-549.0","0","0","27636","","null","","","null","60","","","","","","","","","","","","","","","NaN",""
"","S1","","html-keyboard-response","400","1640325","0.0-1.0-551.0","0","0","27636","","null","","","null","61","","","","","","","","","","","","","","","",""
"","ISI","","html-keyboard-response","401","1642337","0.0-1.0-552.0","0","0","27636","","null","","","null","61","NaN","","","","","","","","","","","","","","",""
"","S2","","html-keyboard-response","402","1642596","0.0-1.0-553.0","0","0","27636","","null","","","null","61","","NaN","","","","","","","","","","","","","",""
"","response","","html-keyboard-response","403","1643013","0.0-1.0-554.0","0","0","27636","","414","","","68","61","","","2","61","training","adjacent","CD","3","4","R.jpg","Q.jpg","1","1","1","",""
"","feedback","","html-keyboard-response","404","1644015","0.0-1.0-555.0-0.0","0","0","27636","","null","","","null","61","","","","","","","","","","","","","","","",""
"","ITI","","html-keyboard-response","405","1645026","0.0-1.0-558.0","0","0","27636","","null","","","null","61","","","","","","","","","","","","","","","NaN",""
"","S1","","html-keyboard-response","406","1645285","0.0-1.0-560.0","0","0","27636","","null","","","null","62","","","","","","","","","","","","","","","",""
"","ISI","","html-keyboard-response","407","1647295","0.0-1.0-561.0","0","0","27636","","null","","","null","62","NaN","","","","","","","","","","","","","","",""
"","S2","","html-keyboard-response","408","1647556","0.0-1.0-562.0","0","0","27636","","null","","","null","62","","NaN","","","","","","","","","","","","","",""
"","response","","html-keyboard-response","409","1648180","0.0-1.0-563.0","0","0","27636","","621","","","75","62","","","2","62","training","adjacent","CB","3","2","R.jpg","P.jpg","0","0","1","",""
"","feedback","","html-keyboard-response","410","1649185","0.0-1.0-564.0-0.0","0","0","27636","","null","","","null","62","","","","","","","","","","","","","","","",""
"","ITI","","html-keyboard-response","411","1650195","0.0-1.0-567.0","0","0","27636","","null","","","null","62","","","","","","","","","","","","","","","NaN",""
"","S1","","html-keyboard-response","412","1650457","0.0-1.0-569.0","0","0","27636","","null","","","null","63","","","","","","","","","","","","","","","",""
"","ISI","","html-keyboard-response","413","1652466","0.0-1.0-570.0","0","0","27636","","null","","","null","63","NaN","","","","","","","","","","","","","","",""
"","S2","","html-keyboard-response","414","1652725","0.0-1.0-571.0","0","0","27636","","null","","","null","63","","NaN","","","","","","","","","","","","","",""
"","response","","html-keyboard-response","415","1652939","0.0-1.0-572.0","0","0","27636","","212","","","75","63","","","2","63","training","adjacent","GF","7","6","O.jpg","L.jpg","0","0","1","",""
"","feedback","","html-keyboard-response","416","1653946","0.0-1.0-573.0-0.0","0","0","27636","","null","","","null","63","","","","","","","","","","","","","","","",""
"","ITI","","html-keyboard-response","417","1654956","0.0-1.0-576.0","0","0","27636","","null","","","null","63","","","","","","","","","","","","","","","NaN",""
"","S1","","html-keyboard-response","418","1655215","0.0-1.0-578.0","0","0","27636","","null","","","null","64","","","","","","","","","","","","","","","",""
"","ISI","","html-keyboard-response","419","1657225","0.0-1.0-579.0","0","0","27636","","null","","","null","64","NaN","","","","","","","","","","","","","","",""
"","S2","","html-keyboard-response","420","1657487","0.0-1.0-580.0","0","0","27636","","null","","","null","64","","NaN","","","","","","","","","","","","","",""
"","response","","html-keyboard-response","421","1658060","0.0-1.0-581.0","0","0","27636","","571","","","75","64","","","2","64","training","adjacent","BA","2","1","P.jpg","N.jpg","0","0","1","",""
"","feedback","","html-keyboard-response","422","1659066","0.0-1.0-582.0-0.0","0","0","27636","","null","","","null","64","","","","","","","","","","","","","","","",""
"","ITI","","html-keyboard-response","423","1660076","0.0-1.0-585.0","0","0","27636","","null","","","null","64","","","","","","","","","","","","","","","NaN",""
"","S1","","html-keyboard-response","424","1660336","0.0-1.0-587.0","0","0","27636","","null","","","null","65","","","","","","","","","","","","","","","",""
"","ISI","","html-keyboard-response","425","1662346","0.0-1.0-588.0","0","0","27636","","null","","","null","65","NaN","","","","","","","","","","","","","","",""
"","S2","","html-keyboard-response","426","1662605","0.0-1.0-589.0","0","0","27636","","null","","","null","65","","NaN","","","","","","","","","","","","","",""
"","response","","html-keyboard-response","427","1663499","0.0-1.0-590.0","0","0","27636","","891","","","75","65","","","2","65","training","adjacent","BC","2","3","P.jpg","R.jpg","0","1","0","",""
"","feedback","","html-keyboard-response","428","1664505","0.0-1.0-591.0-0.0","0","0","27636","","null","","","null","65","","","","","","","","","","","","","","","",""
"","time_out","","html-keyboard-response","429","1666514","0.0-1.0-593.0-0.0","0","0","27636","","null","","","null","65","","","","","","","","","","","","","","","",""
"","ITI","","html-keyboard-response","430","1667525","0.0-1.0-594.0","0","0","27636","","null","","","null","65","","","","","","","","","","","","","","","NaN",""
"","S1","","html-keyboard-response","431","1667786","0.0-1.0-596.0","0","0","27636","","null","","","null","66","","","","","","","","","","","","","","","",""
"","ISI","","html-keyboard-response","432","1669795","0.0-1.0-597.0","0","0","27636","","null","","","null","66","NaN","","","","","","","","","","","","","","",""
"","S2","","html-keyboard-response","433","1670055","0.0-1.0-598.0","0","0","27636","","null","","","null","66","","NaN","","","","","","","","","","","","","",""
"","response","","html-keyboard-response","434","1671156","0.0-1.0-599.0","0","0","27636","","1098","","","68","66","","","2","66","training","adjacent","DE","4","5","Q.jpg","M.jpg","1","1","1","",""
"","feedback","","html-keyboard-response","435","1672165","0.0-1.0-600.0-0.0","0","0","27636","","null","","","null","66","","","","","","","","","","","","","","","",""
"","ITI","","html-keyboard-response","436","1673175","0.0-1.0-603.0","0","0","27636","","null","","","null","66","","","","","","","","","","","","","","","NaN",""
"","S1","","html-keyboard-response","437","1673436","0.0-1.0-605.0","0","0","27636","","null","","","null","67","","","","","","","","","","","","","","","",""
"","ISI","","html-keyboard-response","438","1675446","0.0-1.0-606.0","0","0","27636","","null","","","null","67","NaN","","","","","","","","","","","","","","",""
"","S2","","html-keyboard-response","439","1675705","0.0-1.0-607.0","0","0","27636","","null","","","null","67","","NaN","","","","","","","","","","","","","",""
"","response","","html-keyboard-response","440","1676963","0.0-1.0-608.0","0","0","27636","","1256","","","75","67","","","2","67","training","adjacent","DC","4","3","Q.jpg","R.jpg","0","0","1","",""
"","feedback","","html-keyboard-response","441","1677975","0.0-1.0-609.0-0.0","0","0","27636","","null","","","null","67","","","","","","","","","","","","","","","",""
"","ITI","","html-keyboard-response","442","1678985","0.0-1.0-612.0","0","0","27636","","null","","","null","67","","","","","","","","","","","","","","","NaN",""
"","S1","","html-keyboard-response","443","1679246","0.0-1.0-614.0","0","0","27636","","null","","","null","68","","","","","","","","","","","","","","","",""
"","ISI","","html-keyboard-response","444","1681255","0.0-1.0-615.0","0","0","27636","","null","","","null","68","NaN","","","","","","","","","","","","","","",""
"","S2","","html-keyboard-response","445","1681515","0.0-1.0-616.0","0","0","27636","","null","","","null","68","","NaN","","","","","","","","","","","","","",""
"","response","","html-keyboard-response","446","1682764","0.0-1.0-617.0","0","0","27636","","1247","","","75","68","","","2","68","training","adjacent","BC","2","3","P.jpg","R.jpg","0","1","0","",""
"","feedback","","html-keyboard-response","447","1683775","0.0-1.0-618.0-0.0","0","0","27636","","null","","","null","68","","","","","","","","","","","","","","","",""
"","time_out","","html-keyboard-response","448","1685785","0.0-1.0-620.0-0.0","0","0","27636","","null","","","null","68","","","","","","","","","","","","","","","",""
"","ITI","","html-keyboard-response","449","1686794","0.0-1.0-621.0","0","0","27636","","null","","","null","68","","","","","","","","","","","","","","","NaN",""
"","S1","","html-keyboard-response","450","1687055","0.0-1.0-623.0","0","0","27636","","null","","","null","69","","","","","","","","","","","","","","","",""
"","ISI","","html-keyboard-response","451","1689066","0.0-1.0-624.0","0","0","27636","","null","","","null","69","NaN","","","","","","","","","","","","","","",""
"","S2","","html-keyboard-response","452","1689325","0.0-1.0-625.0","0","0","27636","","null","","","null","69","","NaN","","","","","","","","","","","","","",""
"","response","","html-keyboard-response","453","1690482","0.0-1.0-626.0","0","0","27636","","1156","","","75","69","","","2","69","training","adjacent","FE","6","5","L.jpg","M.jpg","0","0","1","",""
"","feedback","","html-keyboard-response","454","1691485","0.0-1.0-627.0-0.0","0","0","27636","","null","","","null","69","","","","","","","","","","","","","","","",""
"","ITI","","html-keyboard-response","455","1692496","0.0-1.0-630.0","0","0","27636","","null","","","null","69","","","","","","","","","","","","","","","NaN",""
"","S1","","html-keyboard-response","456","1692755","0.0-1.0-632.0","0","0","27636","","null","","","null","70","","","","","","","","","","","","","","","",""
"","ISI","","html-keyboard-response","457","1694764","0.0-1.0-633.0","0","0","27636","","null","","","null","70","NaN","","","","","","","","","","","","","","",""
"","S2","","html-keyboard-response","458","1695024","0.0-1.0-634.0","0","0","27636","","null","","","null","70","","NaN","","","","","","","","","","","","","",""
"","response","","html-keyboard-response","459","1695715","0.0-1.0-635.0","0","0","27636","","689","","","75","70","","","2","70","training","adjacent","ED","5","4","M.jpg","Q.jpg","0","0","1","",""
"","feedback","","html-keyboard-response","460","1696725","0.0-1.0-636.0-0.0","0","0","27636","","null","","","null","70","","","","","","","","","","","","","","","",""
"","ITI","","html-keyboard-response","461","1697734","0.0-1.0-639.0","0","0","27636","","null","","","null","70","","","","","","","","","","","","","","","NaN",""
"","S1","","html-keyboard-response","462","1697996","0.0-1.0-641.0","0","0","27636","","null","","","null","71","","","","","","","","","","","","","","","",""
"","ISI","","html-keyboard-response","463","1700004","0.0-1.0-642.0","0","0","27636","","null","","","null","71","NaN","","","","","","","","","","","","","","",""
"","S2","","html-keyboard-response","464","1700265","0.0-1.0-643.0","0","0","27636","","null","","","null","71","","NaN","","","","","","","","","","","","","",""
"","response","","html-keyboard-response","465","1701147","0.0-1.0-644.0","0","0","27636","","880","","","68","71","","","2","71","training","adjacent","EF","5","6","M.jpg","L.jpg","1","1","1","",""
"","feedback","","html-keyboard-response","466","1702156","0.0-1.0-645.0-0.0","0","0","27636","","null","","","null","71","","","","","","","","","","","","","","","",""
"","ITI","","html-keyboard-response","467","1703165","0.0-1.0-648.0","0","0","27636","","null","","","null","71","","","","","","","","","","","","","","","NaN",""
"","S1","","html-keyboard-response","468","1703426","0.0-1.0-650.0","0","0","27636","","null","","","null","72","","","","","","","","","","","","","","","",""
"","ISI","","html-keyboard-response","469","1705436","0.0-1.0-651.0","0","0","27636","","null","","","null","72","NaN","","","","","","","","","","","","","","",""
"","S2","","html-keyboard-response","470","1705695","0.0-1.0-652.0","0","0","27636","","null","","","null","72","","NaN","","","","","","","","","","","","","",""
"","response","","html-keyboard-response","471","1706451","0.0-1.0-653.0","0","0","27636","","754","","","68","72","","","2","72","training","adjacent","DE","4","5","Q.jpg","M.jpg","1","1","1","",""
"","feedback","","html-keyboard-response","472","1707455","0.0-1.0-654.0-0.0","0","0","27636","","null","","","null","72","","","","","","","","","","","","","","","",""
"","ITI","","html-keyboard-response","473","1708457","0.0-1.0-657.0","0","0","27636","","null","","","null","72","","","","","","","","","","","","","","","NaN",""
"","S1","","html-keyboard-response","474","1708717","0.0-1.0-659.0","0","0","27636","","null","","","null","73","","","","","","","","","","","","","","","",""
"","ISI","","html-keyboard-response","475","1710729","0.0-1.0-660.0","0","0","27636","","null","","","null","73","NaN","","","","","","","","","","","","","","",""
"","S2","","html-keyboard-response","476","1710990","0.0-1.0-661.0","0","0","27636","","null","","","null","73","","NaN","","","","","","","","","","","","","",""
"","response","","html-keyboard-response","477","1711427","0.0-1.0-662.0","0","0","27636","","435","","","75","73","","","2","73","training","adjacent","BA","2","1","P.jpg","N.jpg","0","0","1","",""
"","feedback","","html-keyboard-response","478","1712431","0.0-1.0-663.0-0.0","0","0","27636","","null","","","null","73","","","","","","","","","","","","","","","",""
"","ITI","","html-keyboard-response","479","1713440","0.0-1.0-666.0","0","0","27636","","null","","","null","73","","","","","","","","","","","","","","","NaN",""
"","S1","","html-keyboard-response","480","1713699","0.0-1.0-668.0","0","0","27636","","null","","","null","74","","","","","","","","","","","","","","","",""
"","ISI","","html-keyboard-response","481","1715710","0.0-1.0-669.0","0","0","27636","","null","","","null","74","NaN","","","","","","","","","","","","","","",""
"","S2","","html-keyboard-response","482","1715971","0.0-1.0-670.0","0","0","27636","","null","","","null","74","","NaN","","","","","","","","","","","","","",""
"","response","","html-keyboard-response","483","1716587","0.0-1.0-671.0","0","0","27636","","614","","","68","74","","","2","74","training","adjacent","AB","1","2","N.jpg","P.jpg","1","1","1","",""
"","feedback","","html-keyboard-response","484","1717599","0.0-1.0-672.0-0.0","0","0","27636","","null","","","null","74","","","","","","","","","","","","","","","",""
"","ITI","","html-keyboard-response","485","1718609","0.0-1.0-675.0","0","0","27636","","null","","","null","74","","","","","","","","","","","","","","","NaN",""
"","S1","","html-keyboard-response","486","1718869","0.0-1.0-677.0","0","0","27636","","null","","","null","75","","","","","","","","","","","","","","","",""
"","ISI","","html-keyboard-response","487","1720879","0.0-1.0-678.0","0","0","27636","","null","","","null","75","NaN","","","","","","","","","","","","","","",""
"","S2","","html-keyboard-response","488","1721139","0.0-1.0-679.0","0","0","27636","","null","","","null","75","","NaN","","","","","","","","","","","","","",""
"","response","","html-keyboard-response","489","1721593","0.0-1.0-680.0","0","0","27636","","453","","","75","75","","","2","75","training","adjacent","EF","5","6","M.jpg","L.jpg","0","1","0","",""
"","feedback","","html-keyboard-response","490","1722599","0.0-1.0-681.0-0.0","0","0","27636","","null","","","null","75","","","","","","","","","","","","","","","",""
"","time_out","","html-keyboard-response","491","1724609","0.0-1.0-683.0-0.0","0","0","27636","","null","","","null","75","","","","","","","","","","","","","","","",""
"","ITI","","html-keyboard-response","492","1725619","0.0-1.0-684.0","0","0","27636","","null","","","null","75","","","","","","","","","","","","","","","NaN",""
"","S1","","html-keyboard-response","493","1725880","0.0-1.0-686.0","0","0","27636","","null","","","null","76","","","","","","","","","","","","","","","",""
"","ISI","","html-keyboard-response","494","1727890","0.0-1.0-687.0","0","0","27636","","null","","","null","76","NaN","","","","","","","","","","","","","","",""
"","S2","","html-keyboard-response","495","1728150","0.0-1.0-688.0","0","0","27636","","null","","","null","76","","NaN","","","","","","","","","","","","","",""
"","response","","html-keyboard-response","496","1729098","0.0-1.0-689.0","0","0","27636","","945","","","68","76","","","2","76","training","adjacent","CD","3","4","R.jpg","Q.jpg","1","1","1","",""
"","feedback","","html-keyboard-response","497","1730110","0.0-1.0-690.0-0.0","0","0","27636","","null","","","null","76","","","","","","","","","","","","","","","",""
"","ITI","","html-keyboard-response","498","1731119","0.0-1.0-693.0","0","0","27636","","null","","","null","76","","","","","","","","","","","","","","","NaN",""
"","S1","","html-keyboard-response","499","1731379","0.0-1.0-695.0","0","0","27636","","null","","","null","77","","","","","","","","","","","","","","","",""
"","ISI","","html-keyboard-response","500","1733390","0.0-1.0-696.0","0","0","27636","","null","","","null","77","NaN","","","","","","","","","","","","","","",""
"","S2","","html-keyboard-response","501","1733650","0.0-1.0-697.0","0","0","27636","","null","","","null","77","","NaN","","","","","","","","","","","","","",""
"","response","","html-keyboard-response","502","1734234","0.0-1.0-698.0","0","0","27636","","582","","","68","77","","","2","77","training","adjacent","FG","6","7","L.jpg","O.jpg","1","1","1","",""
"","feedback","","html-keyboard-response","503","1735239","0.0-1.0-699.0-0.0","0","0","27636","","null","","","null","77","","","","","","","","","","","","","","","",""
"","ITI","","html-keyboard-response","504","1736250","0.0-1.0-702.0","0","0","27636","","null","","","null","77","","","","","","","","","","","","","","","NaN",""
"","S1","","html-keyboard-response","505","1736509","0.0-1.0-704.0","0","0","27636","","null","","","null","78","","","","","","","","","","","","","","","",""
"","ISI","","html-keyboard-response","506","1738519","0.0-1.0-705.0","0","0","27636","","null","","","null","78","NaN","","","","","","","","","","","","","","",""
"","S2","","html-keyboard-response","507","1738781","0.0-1.0-706.0","0","0","27636","","null","","","null","78","","NaN","","","","","","","","","","","","","",""
"","response","","html-keyboard-response","508","1739209","0.0-1.0-707.0","0","0","27636","","427","","","68","78","","","2","78","training","adjacent","AB","1","2","N.jpg","P.jpg","1","1","1","",""
"","feedback","","html-keyboard-response","509","1740219","0.0-1.0-708.0-0.0","0","0","27636","","null","","","null","78","","","","","","","","","","","","","","","",""
"","ITI","","html-keyboard-response","510","1741229","0.0-1.0-711.0","0","0","27636","","null","","","null","78","","","","","","","","","","","","","","","NaN",""
"","S1","","html-keyboard-response","511","1741489","0.0-1.0-713.0","0","0","27636","","null","","","null","79","","","","","","","","","","","","","","","",""
"","ISI","","html-keyboard-response","512","1743500","0.0-1.0-714.0","0","0","27636","","null","","","null","79","NaN","","","","","","","","","","","","","","",""
"","S2","","html-keyboard-response","513","1743759","0.0-1.0-715.0","0","0","27636","","null","","","null","79","","NaN","","","","","","","","","","","","","",""
"","response","","html-keyboard-response","514","1744753","0.0-1.0-716.0","0","0","27636","","993","","","68","79","","","2","79","training","adjacent","CD","3","4","R.jpg","Q.jpg","1","1","1","",""
"","feedback","","html-keyboard-response","515","1745759","0.0-1.0-717.0-0.0","0","0","27636","","null","","","null","79","","","","","","","","","","","","","","","",""
"","ITI","","html-keyboard-response","516","1746769","0.0-1.0-720.0","0","0","27636","","null","","","null","79","","","","","","","","","","","","","","","NaN",""
"","block_over","","html-keyboard-response","517","1751785","0.0-1.0-721.0-0.0","0","0","27636","","5012","","","32","79","","","","","","","","","","","","","","","",""
"","S1","","html-keyboard-response","518","1752039","0.0-1.0-722.0","0","0","27636","","null","","","null","80","","","","","","","","","","","","","","","",""
"","ISI","","html-keyboard-response","519","1754049","0.0-1.0-723.0","0","0","27636","","null","","","null","80","NaN","","","","","","","","","","","","","","",""
"","S2","","html-keyboard-response","520","1754308","0.0-1.0-724.0","0","0","27636","","null","","","null","80","","NaN","","","","","","","","","","","","","",""
"","response","","html-keyboard-response","521","1755450","0.0-1.0-725.0","0","0","27636","","1139","","","75","80","","","3","80","training","adjacent","FG","6","7","L.jpg","O.jpg","0","1","0","",""
"","feedback","","html-keyboard-response","522","1756459","0.0-1.0-726.0-0.0","0","0","27636","","null","","","null","80","","","","","","","","","","","","","","","",""
"","time_out","","html-keyboard-response","523","1758469","0.0-1.0-728.0-0.0","0","0","27636","","null","","","null","80","","","","","","","","","","","","","","","",""
"","ITI","","html-keyboard-response","524","1759478","0.0-1.0-729.0","0","0","27636","","null","","","null","80","","","","","","","","","","","","","","","NaN",""
"","S1","","html-keyboard-response","525","1759739","0.0-1.0-731.0","0","0","27636","","null","","","null","81","","","","","","","","","","","","","","","",""
"","ISI","","html-keyboard-response","526","1761750","0.0-1.0-732.0","0","0","27636","","null","","","null","81","NaN","","","","","","","","","","","","","","",""
"","S2","","html-keyboard-response","527","1762008","0.0-1.0-733.0","0","0","27636","","null","","","null","81","","NaN","","","","","","","","","","","","","",""
"","response","","html-keyboard-response","528","1762921","0.0-1.0-734.0","0","0","27636","","910","","","75","81","","","3","81","training","adjacent","GF","7","6","O.jpg","L.jpg","0","0","1","",""
"","feedback","","html-keyboard-response","529","1763931","0.0-1.0-735.0-0.0","0","0","27636","","null","","","null","81","","","","","","","","","","","","","","","",""
"","ITI","","html-keyboard-response","530","1764940","0.0-1.0-738.0","0","0","27636","","null","","","null","81","","","","","","","","","","","","","","","NaN",""
"","S1","","html-keyboard-response","531","1765201","0.0-1.0-740.0","0","0","27636","","null","","","null","82","","","","","","","","","","","","","","","",""
"","ISI","","html-keyboard-response","532","1767212","0.0-1.0-741.0","0","0","27636","","null","","","null","82","NaN","","","","","","","","","","","","","","",""
"","S2","","html-keyboard-response","533","1767471","0.0-1.0-742.0","0","0","27636","","null","","","null","82","","NaN","","","","","","","","","","","","","",""
"","response","","html-keyboard-response","534","1768041","0.0-1.0-743.0","0","0","27636","","568","","","68","82","","","3","82","training","adjacent","CB","3","2","R.jpg","P.jpg","1","0","0","",""
"","feedback","","html-keyboard-response","535","1769051","0.0-1.0-744.0-0.0","0","0","27636","","null","","","null","82","","","","","","","","","","","","","","","",""
"","time_out","","html-keyboard-response","536","1771060","0.0-1.0-746.0-0.0","0","0","27636","","null","","","null","82","","","","","","","","","","","","","","","",""
"","ITI","","html-keyboard-response","537","1772071","0.0-1.0-747.0","0","0","27636","","null","","","null","82","","","","","","","","","","","","","","","NaN",""
"","S1","","html-keyboard-response","538","1772331","0.0-1.0-749.0","0","0","27636","","null","","","null","83","","","","","","","","","","","","","","","",""
"","ISI","","html-keyboard-response","539","1774341","0.0-1.0-750.0","0","0","27636","","null","","","null","83","NaN","","","","","","","","","","","","","","",""
"","S2","","html-keyboard-response","540","1774600","0.0-1.0-751.0","0","0","27636","","null","","","null","83","","NaN","","","","","","","","","","","","","",""
"","response","","html-keyboard-response","541","1775535","0.0-1.0-752.0","0","0","27636","","934","","","68","83","","","3","83","training","adjacent","CD","3","4","R.jpg","Q.jpg","1","1","1","",""
"","feedback","","html-keyboard-response","542","1776541","0.0-1.0-753.0-0.0","0","0","27636","","null","","","null","83","","","","","","","","","","","","","","","",""
"","ITI","","html-keyboard-response","543","1777551","0.0-1.0-756.0","0","0","27636","","null","","","null","83","","","","","","","","","","","","","","","NaN",""
"","S1","","html-keyboard-response","544","1777810","0.0-1.0-758.0","0","0","27636","","null","","","null","84","","","","","","","","","","","","","","","",""
"","ISI","","html-keyboard-response","545","1779820","0.0-1.0-759.0","0","0","27636","","null","","","null","84","NaN","","","","","","","","","","","","","","",""
"","S2","","html-keyboard-response","546","1780081","0.0-1.0-760.0","0","0","27636","","null","","","null","84","","NaN","","","","","","","","","","","","","",""
"","response","","html-keyboard-response","547","1781000","0.0-1.0-761.0","0","0","27636","","918","","","68","84","","","3","84","training","adjacent","FG","6","7","L.jpg","O.jpg","1","1","1","",""
"","feedback","","html-keyboard-response","548","1782011","0.0-1.0-762.0-0.0","0","0","27636","","null","","","null","84","","","","","","","","","","","","","","","",""
"","ITI","","html-keyboard-response","549","1783020","0.0-1.0-765.0","0","0","27636","","null","","","null","84","","","","","","","","","","","","","","","NaN",""
"","S1","","html-keyboard-response","550","1783281","0.0-1.0-767.0","0","0","27636","","null","","","null","85","","","","","","","","","","","","","","","",""
"","ISI","","html-keyboard-response","551","1785290","0.0-1.0-768.0","0","0","27636","","null","","","null","85","NaN","","","","","","","","","","","","","","",""
"","S2","","html-keyboard-response","552","1785550","0.0-1.0-769.0","0","0","27636","","null","","","null","85","","NaN","","","","","","","","","","","","","",""
"","response","","html-keyboard-response","553","1786512","0.0-1.0-770.0","0","0","27636","","959","","","75","85","","","3","85","training","adjacent","BC","2","3","P.jpg","R.jpg","0","1","0","",""
"","feedback","","html-keyboard-response","554","1787520","0.0-1.0-771.0-0.0","0","0","27636","","null","","","null","85","","","","","","","","","","","","","","","",""
"","time_out","","html-keyboard-response","555","1789530","0.0-1.0-773.0-0.0","0","0","27636","","null","","","null","85","","","","","","","","","","","","","","","",""
"","ITI","","html-keyboard-response","556","1790540","0.0-1.0-774.0","0","0","27636","","null","","","null","85","","","","","","","","","","","","","","","NaN",""
"","S1","","html-keyboard-response","557","1790800","0.0-1.0-776.0","0","0","27636","","null","","","null","86","","","","","","","","","","","","","","","",""
"","ISI","","html-keyboard-response","558","1792813","0.0-1.0-777.0","0","0","27636","","null","","","null","86","NaN","","","","","","","","","","","","","","",""
"","S2","","html-keyboard-response","559","1793070","0.0-1.0-778.0","0","0","27636","","null","","","null","86","","NaN","","","","","","","","","","","","","",""
"","response","","html-keyboard-response","560","1793889","0.0-1.0-779.0","0","0","27636","","816","","","75","86","","","3","86","training","adjacent","GF","7","6","O.jpg","L.jpg","0","0","1","",""
"","feedback","","html-keyboard-response","561","1794899","0.0-1.0-780.0-0.0","0","0","27636","","null","","","null","86","","","","","","","","","","","","","","","",""
"","ITI","","html-keyboard-response","562","1795911","0.0-1.0-783.0","0","0","27636","","null","","","null","86","","","","","","","","","","","","","","","NaN",""
"","S1","","html-keyboard-response","563","1796170","0.0-1.0-785.0","0","0","27636","","null","","","null","87","","","","","","","","","","","","","","","",""
"","ISI","","html-keyboard-response","564","1798179","0.0-1.0-786.0","0","0","27636","","null","","","null","87","NaN","","","","","","","","","","","","","","",""
"","S2","","html-keyboard-response","565","1798440","0.0-1.0-787.0","0","0","27636","","null","","","null","87","","NaN","","","","","","","","","","","","","",""
"","response","","html-keyboard-response","566","1799641","0.0-1.0-788.0","0","0","27636","","1199","","","75","87","","","3","87","training","adjacent","CB","3","2","R.jpg","P.jpg","0","0","1","",""
"","feedback","","html-keyboard-response","567","1800650","0.0-1.0-789.0-0.0","0","0","27636","","null","","","null","87","","","","","","","","","","","","","","","",""
"","ITI","","html-keyboard-response","568","1801659","0.0-1.0-792.0","0","0","27636","","null","","","null","87","","","","","","","","","","","","","","","NaN",""
"","S1","","html-keyboard-response","569","1801920","0.0-1.0-794.0","0","0","27636","","null","","","null","88","","","","","","","","","","","","","","","",""
"","ISI","","html-keyboard-response","570","1803930","0.0-1.0-795.0","0","0","27636","","null","","","null","88","NaN","","","","","","","","","","","","","","",""
"","S2","","html-keyboard-response","571","1804190","0.0-1.0-796.0","0","0","27636","","null","","","null","88","","NaN","","","","","","","","","","","","","",""
"","response","","html-keyboard-response","572","1805335","0.0-1.0-797.0","0","0","27636","","1143","","","75","88","","","3","88","training","adjacent","FE","6","5","L.jpg","M.jpg","0","0","1","",""
"","feedback","","html-keyboard-response","573","1806339","0.0-1.0-798.0-0.0","0","0","27636","","null","","","null","88","","","","","","","","","","","","","","","",""
"","ITI","","html-keyboard-response","574","1807350","0.0-1.0-801.0","0","0","27636","","null","","","null","88","","","","","","","","","","","","","","","NaN",""
"","S1","","html-keyboard-response","575","1807609","0.0-1.0-803.0","0","0","27636","","null","","","null","89","","","","","","","","","","","","","","","",""
"","ISI","","html-keyboard-response","576","1809619","0.0-1.0-804.0","0","0","27636","","null","","","null","89","NaN","","","","","","","","","","","","","","",""
"","S2","","html-keyboard-response","577","1809880","0.0-1.0-805.0","0","0","27636","","null","","","null","89","","NaN","","","","","","","","","","","","","",""
"","response","","html-keyboard-response","578","1810737","0.0-1.0-806.0","0","0","27636","","854","","","75","89","","","3","89","training","adjacent","DC","4","3","Q.jpg","R.jpg","0","0","1","",""
"","feedback","","html-keyboard-response","579","1811749","0.0-1.0-807.0-0.0","0","0","27636","","null","","","null","89","","","","","","","","","","","","","","","",""
"","ITI","","html-keyboard-response","580","1812760","0.0-1.0-810.0","0","0","27636","","null","","","null","89","","","","","","","","","","","","","","","NaN",""
"","S1","","html-keyboard-response","581","1813020","0.0-1.0-812.0","0","0","27636","","null","","","null","90","","","","","","","","","","","","","","","",""
