"success","ttype","start_time","trial_type","trial_index","time_elapsed","internal_node_id","warning","missed_checkup","PID","view_history","rt","responses","repeat_instructions","key_press","index","keypress_isi","keypress_S2","block","trial_num","phase","group_type","pair_type","S1_stim","S2_stim","S1_img","S2_img","S1_chosen","S1_higher","accuracy","keypress_iti","total_bonus_tally"
"true","full_screen","d07292022hr2032","fullscreen","0","55296","0.0-0.0","0","0","75101","","","","","","","","","","","","","","","","","","","","","",""
"","instructions","","instructions","1","7123047","0.0-1.0-0.0-0.0","0","0","75101","[{""page_index"":0,""viewing_time"":6995426},{""page_index"":1,""viewing_time"":45263},{""page_index"":2,""viewing_time"":24498},{""page_index"":3,""viewing_time"":2557}]","7067746","","","","","","","","","","","","","","","","","","","",""
"","comprehension_check","","survey-multi-choice","2","7153415","0.0-1.0-0.0-1.0","0","0","75101","","30347","{""Q0"":""True"",""Q1"":""D"",""Q2"":""When you see the prompt 'MAKE A CHOICE' after the second image was presented"",""Q3"":""Green mark"",""Q4"":""either D or K""}","1","","","","","","","","","","","","","","","","","",""
"","missed_instruction_checkup","","html-keyboard-response","3","7157216","0.0-1.0-0.0-2.0-0.0","0","1","75101","","3795","","","32","","","","","","","","","","","","","","","","",""
"","instructions","","instructions","4","7244958","0.0-1.0-0.1-0.1","0","0","75101","[{""page_index"":0,""viewing_time"":2461},{""page_index"":1,""viewing_time"":63955},{""page_index"":2,""viewing_time"":18776},{""page_index"":3,""viewing_time"":2544}]","87737","","","","","","","","","","","","","","","","","","","",""
"","comprehension_check","","survey-multi-choice","5","7321372","0.0-1.0-0.1-1.1","0","0","75101","","76400","{""Q0"":""True"",""Q1"":""K"",""Q2"":""When you see the prompt 'MAKE A CHOICE' after the second image was presented"",""Q3"":""Green mark"",""Q4"":""either D or K""}","0","","","","","","","","","","","","","","","","","",""
"","start_exp","","html-keyboard-response","6","7326546","0.0-1.0-1.0","0","0","75101","","5169","","","32","","","","","","","","","","","","","","","","",""
"","S1","","html-keyboard-response","7","7326854","0.0-1.0-2.0","0","0","75101","","null","","","null","0","","","","","","","","","","","","","","","",""
"","ISI","","html-keyboard-response","8","7328892","0.0-1.0-3.0","0","0","75101","","null","","","null","0","NaN","","","","","","","","","","","","","","",""
"","S2","","html-keyboard-response","9","7329148","0.0-1.0-4.0","0","0","75101","","null","","","null","0","","NaN","","","","","","","","","","","","","",""
"","response","","html-keyboard-response","10","7330729","0.0-1.0-5.0","0","0","75101","","1578","","","68","0","","","1","0","training","adjacent","FG","6","7","R.jpg","O.jpg","0","1","0","",""
"","feedback","","html-keyboard-response","11","7331736","0.0-1.0-6.0-0.0","0","0","75101","","null","","","null","0","","","","","","","","","","","","","","","",""
"","time_out","","html-keyboard-response","12","7333739","0.0-1.0-8.0-0.0","0","0","75101","","null","","","null","0","","","","","","","","","","","","","","","",""
"","ITI","","html-keyboard-response","13","7334775","0.0-1.0-9.0","0","0","75101","","null","","","null","0","","","","","","","","","","","","","","","NaN",""
"","S1","","html-keyboard-response","14","7335028","0.0-1.0-11.0","0","0","75101","","null","","","null","1","","","","","","","","","","","","","","","",""
"","ISI","","html-keyboard-response","15","7337031","0.0-1.0-12.0","0","0","75101","","null","","","null","1","NaN","","","","","","","","","","","","","","",""
"","S2","","html-keyboard-response","16","7337284","0.0-1.0-13.0","0","0","75101","","null","","","null","1","","NaN","","","","","","","","","","","","","",""
"","response","","html-keyboard-response","17","7337587","0.0-1.0-14.0","0","0","75101","","300","","","75","1","","","1","1","training","adjacent","BA","2","1","L.jpg","N.jpg","1","0","0","",""
"","feedback","","html-keyboard-response","18","7338653","0.0-1.0-15.0-0.0","0","0","75101","","null","","","null","1","","","","","","","","","","","","","","","",""
"","time_out","","html-keyboard-response","19","7340667","0.0-1.0-17.0-0.0","0","0","75101","","null","","","null","1","","","","","","","","","","","","","","","",""
"","ITI","","html-keyboard-response","20","7341670","0.0-1.0-18.0","0","0","75101","","null","","","null","1","","","","","","","","","","","","","","","NaN",""
"","S1","","html-keyboard-response","21","7341923","0.0-1.0-20.0","0","0","75101","","null","","","null","2","","","","","","","","","","","","","","","",""
"","ISI","","html-keyboard-response","22","7343926","0.0-1.0-21.0","0","0","75101","","null","","","null","2","NaN","","","","","","","","","","","","","","",""
"","S2","","html-keyboard-response","23","7344180","0.0-1.0-22.0","0","0","75101","","null","","","null","2","","NaN","","","","","","","","","","","","","",""
"","response","","html-keyboard-response","24","7344802","0.0-1.0-23.0","0","0","75101","","619","","","68","2","","","1","2","training","adjacent","DE","4","5","P.jpg","Q.jpg","0","1","0","",""
"","feedback","","html-keyboard-response","25","7345807","0.0-1.0-24.0-0.0","0","0","75101","","null","","","null","2","","","","","","","","","","","","","","","",""
"","time_out","","html-keyboard-response","26","7347814","0.0-1.0-26.0-0.0","0","0","75101","","null","","","null","2","","","","","","","","","","","","","","","",""
"","ITI","","html-keyboard-response","27","7348817","0.0-1.0-27.0","0","0","75101","","null","","","null","2","","","","","","","","","","","","","","","NaN",""
"","S1","","html-keyboard-response","28","7349070","0.0-1.0-29.0","0","0","75101","","null","","","null","3","","","","","","","","","","","","","","","",""
"","ISI","","html-keyboard-response","29","7351078","0.0-1.0-30.0","0","0","75101","","null","","","null","3","NaN","","","","","","","","","","","","","","",""
"","S2","","html-keyboard-response","30","7351335","0.0-1.0-31.0","0","0","75101","","null","","","null","3","","NaN","","","","","","","","","","","","","",""
"","response","","html-keyboard-response","31","7351536","0.0-1.0-32.0","0","0","75101","","197","","","75","3","","","1","3","training","adjacent","DC","4","3","P.jpg","M.jpg","1","0","0","",""
"","feedback","","html-keyboard-response","32","7352592","0.0-1.0-33.0-0.0","0","0","75101","","null","","","null","3","","","","","","","","","","","","","","","",""
"","time_out","","html-keyboard-response","33","7354595","0.0-1.0-35.0-0.0","0","0","75101","","null","","","null","3","","","","","","","","","","","","","","","",""
"","ITI","","html-keyboard-response","34","7355597","0.0-1.0-36.0","0","0","75101","","null","","","null","3","","","","","","","","","","","","","","","NaN",""
"","S1","","html-keyboard-response","35","7355850","0.0-1.0-38.0","0","0","75101","","null","","","null","4","","","","","","","","","","","","","","","",""
"","ISI","","html-keyboard-response","36","7357852","0.0-1.0-39.0","0","0","75101","","null","","","null","4","NaN","","","","","","","","","","","","","","",""
"","S2","","html-keyboard-response","37","7358105","0.0-1.0-40.0","0","0","75101","","null","","","null","4","","NaN","","","","","","","","","","","","","",""
"","response","","html-keyboard-response","38","7358810","0.0-1.0-41.0","0","0","75101","","702","","","68","4","","","1","4","training","adjacent","DE","4","5","P.jpg","Q.jpg","0","1","0","",""
"","feedback","","html-keyboard-response","39","7359817","0.0-1.0-42.0-0.0","0","0","75101","","null","","","null","4","","","","","","","","","","","","","","","",""
"","time_out","","html-keyboard-response","40","7361819","0.0-1.0-44.0-0.0","0","0","75101","","null","","","null","4","","","","","","","","","","","","","","","",""
"","ITI","","html-keyboard-response","41","7362864","0.0-1.0-45.0","0","0","75101","","null","","","null","4","","","","","","","","","","","","","","","NaN",""
"","S1","","html-keyboard-response","42","7363116","0.0-1.0-47.0","0","0","75101","","null","","","null","5","","","","","","","","","","","","","","","",""
"","ISI","","html-keyboard-response","43","7365126","0.0-1.0-48.0","0","0","75101","","null","","","null","5","NaN","","","","","","","","","","","","","","",""
"","S2","","html-keyboard-response","44","7365379","0.0-1.0-49.0","0","0","75101","","null","","","null","5","","NaN","","","","","","","","","","","","","",""
"","response","","html-keyboard-response","45","7365512","0.0-1.0-50.0","0","0","75101","","130","","","75","5","","","1","5","training","adjacent","AB","1","2","N.jpg","L.jpg","1","1","1","",""
"","feedback","","html-keyboard-response","46","7366651","0.0-1.0-51.0-0.0","0","0","75101","","null","","","null","5","","","","","","","","","","","","","","","",""
"","ITI","","html-keyboard-response","47","7367658","0.0-1.0-54.0","0","0","75101","","null","","","null","5","","","","","","","","","","","","","","","NaN",""
"","S1","","html-keyboard-response","48","7367910","0.0-1.0-56.0","0","0","75101","","null","","","null","6","","","","","","","","","","","","","","","",""
"","ISI","","html-keyboard-response","49","7369921","0.0-1.0-57.0","0","0","75101","","null","","","null","6","NaN","","","","","","","","","","","","","","",""
"","S2","","html-keyboard-response","50","7370174","0.0-1.0-58.0","0","0","75101","","null","","","null","6","","NaN","","","","","","","","","","","","","",""
"","response","","html-keyboard-response","51","7370856","0.0-1.0-59.0","0","0","75101","","678","","","75","6","","","1","6","training","adjacent","FG","6","7","R.jpg","O.jpg","1","1","1","",""
"","feedback","","html-keyboard-response","52","7371859","0.0-1.0-60.0-0.0","0","0","75101","","null","","","null","6","","","","","","","","","","","","","","","",""
"","ITI","","html-keyboard-response","53","7372863","0.0-1.0-63.0","0","0","75101","","null","","","null","6","","","","","","","","","","","","","","","NaN",""
"","S1","","html-keyboard-response","54","7373115","0.0-1.0-65.0","0","0","75101","","null","","","null","7","","","","","","","","","","","","","","","",""
"","ISI","","html-keyboard-response","55","7375126","0.0-1.0-66.0","0","0","75101","","null","","","null","7","NaN","","","","","","","","","","","","","","",""
"","S2","","html-keyboard-response","56","7375380","0.0-1.0-67.0","0","0","75101","","null","","","null","7","","NaN","","","","","","","","","","","","","",""
"","response","","html-keyboard-response","57","7376107","0.0-1.0-68.0","0","0","75101","","724","","","68","7","","","1","7","training","adjacent","ED","5","4","Q.jpg","P.jpg","0","0","1","",""
"","feedback","","html-keyboard-response","58","7377129","0.0-1.0-69.0-0.0","0","0","75101","","null","","","null","7","","","","","","","","","","","","","","","",""
"","ITI","","html-keyboard-response","59","7378135","0.0-1.0-72.0","0","0","75101","","null","","","null","7","","","","","","","","","","","","","","","NaN",""
"","S1","","html-keyboard-response","60","7378393","0.0-1.0-74.0","0","0","75101","","null","","","null","8","","","","","","","","","","","","","","","",""
"","ISI","","html-keyboard-response","61","7380430","0.0-1.0-75.0","0","0","75101","","null","","","null","8","NaN","","","","","","","","","","","","","","",""
"","S2","","html-keyboard-response","62","7380684","0.0-1.0-76.0","0","0","75101","","null","","","null","8","","NaN","","","","","","","","","","","","","",""
"","response","","html-keyboard-response","63","7381418","0.0-1.0-77.0","0","0","75101","","730","","","75","8","","","1","8","training","adjacent","CB","3","2","M.jpg","L.jpg","1","0","0","",""
"","feedback","","html-keyboard-response","64","7382427","0.0-1.0-78.0-0.0","0","0","75101","","null","","","null","8","","","","","","","","","","","","","","","",""
"","time_out","","html-keyboard-response","65","7384434","0.0-1.0-80.0-0.0","0","0","75101","","null","","","null","8","","","","","","","","","","","","","","","",""
"","ITI","","html-keyboard-response","66","7385436","0.0-1.0-81.0","0","0","75101","","null","","","null","8","","","","","","","","","","","","","","","NaN",""
"","S1","","html-keyboard-response","67","7385692","0.0-1.0-83.0","0","0","75101","","null","","","null","9","","","","","","","","","","","","","","","",""
"","ISI","","html-keyboard-response","68","7387726","0.0-1.0-84.0","0","0","75101","","null","","","null","9","NaN","","","","","","","","","","","","","","",""
"","S2","","html-keyboard-response","69","7387980","0.0-1.0-85.0","0","0","75101","","null","","","null","9","","NaN","","","","","","","","","","","","","",""
"","response","","html-keyboard-response","70","7388630","0.0-1.0-86.0","0","0","75101","","647","","","75","9","","","1","9","training","adjacent","DC","4","3","P.jpg","M.jpg","1","0","0","",""
"","feedback","","html-keyboard-response","71","7389632","0.0-1.0-87.0-0.0","0","0","75101","","null","","","null","9","","","","","","","","","","","","","","","",""
"","time_out","","html-keyboard-response","72","7391639","0.0-1.0-89.0-0.0","0","0","75101","","null","","","null","9","","","","","","","","","","","","","","","",""
"","ITI","","html-keyboard-response","73","7392773","0.0-1.0-90.0","0","0","75101","","null","","","null","9","","","","","","","","","","","","","","","NaN",""
"","S1","","html-keyboard-response","74","7393026","0.0-1.0-92.0","0","0","75101","","null","","","null","10","","","","","","","","","","","","","","","",""
"","ISI","","html-keyboard-response","75","7395031","0.0-1.0-93.0","0","0","75101","","null","","","null","10","NaN","","","","","","","","","","","","","","",""
"","S2","","html-keyboard-response","76","7395284","0.0-1.0-94.0","0","0","75101","","null","","","null","10","","NaN","","","","","","","","","","","","","",""
"","response","","html-keyboard-response","77","7396113","0.0-1.0-95.0","0","0","75101","","826","","","68","10","","","1","10","training","adjacent","FE","6","5","R.jpg","Q.jpg","0","0","1","",""
"","feedback","","html-keyboard-response","78","7397119","0.0-1.0-96.0-0.0","0","0","75101","","null","","","null","10","","","","","","","","","","","","","","","",""
"","ITI","","html-keyboard-response","79","7398121","0.0-1.0-99.0","0","0","75101","","null","","","null","10","","","","","","","","","","","","","","","NaN",""
"","S1","","html-keyboard-response","80","7398407","0.0-1.0-101.0","0","0","75101","","null","","","null","11","","","","","","","","","","","","","","","",""
"","ISI","","html-keyboard-response","81","7400438","0.0-1.0-102.0","0","0","75101","","null","","","null","11","NaN","","","","","","","","","","","","","","",""
"","S2","","html-keyboard-response","82","7400691","0.0-1.0-103.0","0","0","75101","","null","","","null","11","","NaN","","","","","","","","","","","","","",""
"","response","","html-keyboard-response","83","7402057","0.0-1.0-104.0","0","0","75101","","1354","","","75","11","","","1","11","training","adjacent","FE","6","5","R.jpg","Q.jpg","1","0","0","",""
"","feedback","","html-keyboard-response","84","7403100","0.0-1.0-105.0-0.0","0","0","75101","","null","","","null","11","","","","","","","","","","","","","","","",""
"","time_out","","html-keyboard-response","85","7405104","0.0-1.0-107.0-0.0","0","0","75101","","null","","","null","11","","","","","","","","","","","","","","","",""
"","ITI","","html-keyboard-response","86","7406110","0.0-1.0-108.0","0","0","75101","","null","","","null","11","","","","","","","","","","","","","","","NaN",""
"","S1","","html-keyboard-response","87","7406415","0.0-1.0-110.0","0","0","75101","","null","","","null","12","","","","","","","","","","","","","","","",""
"","ISI","","html-keyboard-response","88","7408433","0.0-1.0-111.0","0","0","75101","","null","","","null","12","NaN","","","","","","","","","","","","","","",""
"","S2","","html-keyboard-response","89","7408690","0.0-1.0-112.0","0","0","75101","","null","","","null","12","","NaN","","","","","","","","","","","","","",""
"","response","","html-keyboard-response","90","7409635","0.0-1.0-113.0","0","0","75101","","942","","","68","12","","","1","12","training","adjacent","FE","6","5","R.jpg","Q.jpg","0","0","1","",""
"","feedback","","html-keyboard-response","91","7410684","0.0-1.0-114.0-0.0","0","0","75101","","null","","","null","12","","","","","","","","","","","","","","","",""
"","ITI","","html-keyboard-response","92","7411690","0.0-1.0-117.0","0","0","75101","","null","","","null","12","","","","","","","","","","","","","","","NaN",""
"","S1","","html-keyboard-response","93","7411946","0.0-1.0-119.0","0","0","75101","","null","","","null","13","","","","","","","","","","","","","","","",""
"","ISI","","html-keyboard-response","94","7413949","0.0-1.0-120.0","0","0","75101","","null","","","null","13","NaN","","","","","","","","","","","","","","",""
"","S2","","html-keyboard-response","95","7414251","0.0-1.0-121.0","0","0","75101","","null","","","null","13","","NaN","","","","","","","","","","","","","",""
"","response","","html-keyboard-response","96","7414878","0.0-1.0-122.0","0","0","75101","","623","","","68","13","","","1","13","training","adjacent","FG","6","7","R.jpg","O.jpg","0","1","0","",""
"","feedback","","html-keyboard-response","97","7415881","0.0-1.0-123.0-0.0","0","0","75101","","null","","","null","13","","","","","","","","","","","","","","","",""
"","time_out","","html-keyboard-response","98","7417884","0.0-1.0-125.0-0.0","0","0","75101","","null","","","null","13","","","","","","","","","","","","","","","",""
"","ITI","","html-keyboard-response","99","7418889","0.0-1.0-126.0","0","0","75101","","null","","","null","13","","","","","","","","","","","","","","","NaN",""
"","S1","","html-keyboard-response","100","7419158","0.0-1.0-128.0","0","0","75101","","null","","","null","14","","","","","","","","","","","","","","","",""
"","ISI","","html-keyboard-response","101","7421163","0.0-1.0-129.0","0","0","75101","","null","","","null","14","NaN","","","","","","","","","","","","","","",""
"","S2","","html-keyboard-response","102","7421416","0.0-1.0-130.0","0","0","75101","","null","","","null","14","","NaN","","","","","","","","","","","","","",""
"","response","","html-keyboard-response","103","7422133","0.0-1.0-131.0","0","0","75101","","714","","","68","14","","","1","14","training","adjacent","EF","5","6","Q.jpg","R.jpg","0","1","0","",""
"","feedback","","html-keyboard-response","104","7423144","0.0-1.0-132.0-0.0","0","0","75101","","null","","","null","14","","","","","","","","","","","","","","","",""
"","time_out","","html-keyboard-response","105","7425158","0.0-1.0-134.0-0.0","0","0","75101","","null","","","null","14","","","","","","","","","","","","","","","",""
"","ITI","","html-keyboard-response","106","7426161","0.0-1.0-135.0","0","0","75101","","null","","","null","14","","","","","","","","","","","","","","","NaN",""
"","S1","","html-keyboard-response","107","7426417","0.0-1.0-137.0","0","0","75101","","null","","","null","15","","","","","","","","","","","","","","","",""
"","ISI","","html-keyboard-response","108","7428451","0.0-1.0-138.0","0","0","75101","","null","","","null","15","NaN","","","","","","","","","","","","","","",""
"","S2","","html-keyboard-response","109","7428704","0.0-1.0-139.0","0","0","75101","","null","","","null","15","","NaN","","","","","","","","","","","","","",""
"","response","","html-keyboard-response","110","7429459","0.0-1.0-140.0","0","0","75101","","752","","","75","15","","","1","15","training","adjacent","AB","1","2","N.jpg","L.jpg","1","1","1","",""
"","feedback","","html-keyboard-response","111","7430542","0.0-1.0-141.0-0.0","0","0","75101","","null","","","null","15","","","","","","","","","","","","","","","",""
"","ITI","","html-keyboard-response","112","7431545","0.0-1.0-144.0","0","0","75101","","null","","","null","15","","","","","","","","","","","","","","","NaN",""
"","S1","","html-keyboard-response","113","7431798","0.0-1.0-146.0","0","0","75101","","null","","","null","16","","","","","","","","","","","","","","","",""
"","ISI","","html-keyboard-response","114","7433801","0.0-1.0-147.0","0","0","75101","","null","","","null","16","NaN","","","","","","","","","","","","","","",""
"","S2","","html-keyboard-response","115","7434054","0.0-1.0-148.0","0","0","75101","","null","","","null","16","","NaN","","","","","","","","","","","","","",""
"","response","","html-keyboard-response","116","7434861","0.0-1.0-149.0","0","0","75101","","803","","","75","16","","","1","16","training","adjacent","DC","4","3","P.jpg","M.jpg","1","0","0","",""
"","feedback","","html-keyboard-response","117","7435864","0.0-1.0-150.0-0.0","0","0","75101","","null","","","null","16","","","","","","","","","","","","","","","",""
"","time_out","","html-keyboard-response","118","7437871","0.0-1.0-152.0-0.0","0","0","75101","","null","","","null","16","","","","","","","","","","","","","","","",""
"","ITI","","html-keyboard-response","119","7438874","0.0-1.0-153.0","0","0","75101","","null","","","null","16","","","","","","","","","","","","","","","NaN",""
"","S1","","html-keyboard-response","120","7439130","0.0-1.0-155.0","0","0","75101","","null","","","null","17","","","","","","","","","","","","","","","",""
"","ISI","","html-keyboard-response","121","7441133","0.0-1.0-156.0","0","0","75101","","null","","","null","17","NaN","","","","","","","","","","","","","","",""
"","S2","","html-keyboard-response","122","7441386","0.0-1.0-157.0","0","0","75101","","null","","","null","17","","NaN","","","","","","","","","","","","","",""
"","response","","html-keyboard-response","123","7441906","0.0-1.0-158.0","0","0","75101","","517","","","75","17","","","1","17","training","adjacent","DE","4","5","P.jpg","Q.jpg","1","1","1","",""
"","feedback","","html-keyboard-response","124","7442910","0.0-1.0-159.0-0.0","0","0","75101","","null","","","null","17","","","","","","","","","","","","","","","",""
"","ITI","","html-keyboard-response","125","7443917","0.0-1.0-162.0","0","0","75101","","null","","","null","17","","","","","","","","","","","","","","","NaN",""
"","S1","","html-keyboard-response","126","7444175","0.0-1.0-164.0","0","0","75101","","null","","","null","18","","","","","","","","","","","","","","","",""
"","ISI","","html-keyboard-response","127","7446177","0.0-1.0-165.0","0","0","75101","","null","","","null","18","NaN","","","","","","","","","","","","","","",""
"","S2","","html-keyboard-response","128","7446430","0.0-1.0-166.0","0","0","75101","","null","","","null","18","","NaN","","","","","","","","","","","","","",""
"","response","","html-keyboard-response","129","7447212","0.0-1.0-167.0","0","0","75101","","779","","","75","18","","","1","18","training","adjacent","AB","1","2","N.jpg","L.jpg","1","1","1","",""
"","feedback","","html-keyboard-response","130","7448218","0.0-1.0-168.0-0.0","0","0","75101","","null","","","null","18","","","","","","","","","","","","","","","",""
"","ITI","","html-keyboard-response","131","7449254","0.0-1.0-171.0","0","0","75101","","null","","","null","18","","","","","","","","","","","","","","","NaN",""
"","S1","","html-keyboard-response","132","7449507","0.0-1.0-173.0","0","0","75101","","null","","","null","19","","","","","","","","","","","","","","","",""
"","ISI","","html-keyboard-response","133","7451510","0.0-1.0-174.0","0","0","75101","","null","","","null","19","NaN","","","","","","","","","","","","","","",""
"","S2","","html-keyboard-response","134","7451764","0.0-1.0-175.0","0","0","75101","","null","","","null","19","","NaN","","","","","","","","","","","","","",""
"","response","","html-keyboard-response","135","7452035","0.0-1.0-176.0","0","0","75101","","267","","","75","19","","","1","19","training","adjacent","GF","7","6","O.jpg","R.jpg","1","0","0","",""
"","feedback","","html-keyboard-response","136","7453038","0.0-1.0-177.0-0.0","0","0","75101","","null","","","null","19","","","","","","","","","","","","","","","",""
"","time_out","","html-keyboard-response","137","7455041","0.0-1.0-179.0-0.0","0","0","75101","","null","","","null","19","","","","","","","","","","","","","","","",""
"","ITI","","html-keyboard-response","138","7456044","0.0-1.0-180.0","0","0","75101","","null","","","null","19","","","","","","","","","","","","","","","NaN",""
"","S1","","html-keyboard-response","139","7456297","0.0-1.0-182.0","0","0","75101","","null","","","null","20","","","","","","","","","","","","","","","",""
"","ISI","","html-keyboard-response","140","7458301","0.0-1.0-183.0","0","0","75101","","null","","","null","20","NaN","","","","","","","","","","","","","","",""
"","S2","","html-keyboard-response","141","7458554","0.0-1.0-184.0","0","0","75101","","null","","","null","20","","NaN","","","","","","","","","","","","","",""
"","response","","html-keyboard-response","142","7459310","0.0-1.0-185.0","0","0","75101","","752","","","68","20","","","1","20","training","adjacent","CB","3","2","M.jpg","L.jpg","0","0","1","",""
"","feedback","","html-keyboard-response","143","7460313","0.0-1.0-186.0-0.0","0","0","75101","","null","","","null","20","","","","","","","","","","","","","","","",""
"","ITI","","html-keyboard-response","144","7461361","0.0-1.0-189.0","0","0","75101","","null","","","null","20","","","","","","","","","","","","","","","NaN",""
"","S1","","html-keyboard-response","145","7461614","0.0-1.0-191.0","0","0","75101","","null","","","null","21","","","","","","","","","","","","","","","",""
"","ISI","","html-keyboard-response","146","7463617","0.0-1.0-192.0","0","0","75101","","null","","","null","21","NaN","","","","","","","","","","","","","","",""
"","S2","","html-keyboard-response","147","7463870","0.0-1.0-193.0","0","0","75101","","null","","","null","21","","NaN","","","","","","","","","","","","","",""
"","response","","html-keyboard-response","148","7464309","0.0-1.0-194.0","0","0","75101","","436","","","75","21","","","1","21","training","adjacent","BA","2","1","L.jpg","N.jpg","1","0","0","",""
"","feedback","","html-keyboard-response","149","7465312","0.0-1.0-195.0-0.0","0","0","75101","","null","","","null","21","","","","","","","","","","","","","","","",""
"","time_out","","html-keyboard-response","150","7467315","0.0-1.0-197.0-0.0","0","0","75101","","null","","","null","21","","","","","","","","","","","","","","","",""
"","ITI","","html-keyboard-response","151","7468319","0.0-1.0-198.0","0","0","75101","","null","","","null","21","","","","","","","","","","","","","","","NaN",""
"","S1","","html-keyboard-response","152","7468574","0.0-1.0-200.0","0","0","75101","","null","","","null","22","","","","","","","","","","","","","","","",""
"","ISI","","html-keyboard-response","153","7470630","0.0-1.0-201.0","0","0","75101","","null","","","null","22","NaN","","","","","","","","","","","","","","",""
"","S2","","html-keyboard-response","154","7470883","0.0-1.0-202.0","0","0","75101","","null","","","null","22","","NaN","","","","","","","","","","","","","",""
"","response","","html-keyboard-response","155","7472184","0.0-1.0-203.0","0","0","75101","","1298","","","75","22","","","1","22","training","adjacent","CD","3","4","M.jpg","P.jpg","1","1","1","",""
"","feedback","","html-keyboard-response","156","7473187","0.0-1.0-204.0-0.0","0","0","75101","","null","","","null","22","","","","","","","","","","","","","","","",""
"","ITI","","html-keyboard-response","157","7474236","0.0-1.0-207.0","0","0","75101","","null","","","null","22","","","","","","","","","","","","","","","NaN",""
"","S1","","html-keyboard-response","158","7474489","0.0-1.0-209.0","0","0","75101","","null","","","null","23","","","","","","","","","","","","","","","",""
"","ISI","","html-keyboard-response","159","7476527","0.0-1.0-210.0","0","0","75101","","null","","","null","23","NaN","","","","","","","","","","","","","","",""
"","S2","","html-keyboard-response","160","7476780","0.0-1.0-211.0","0","0","75101","","null","","","null","23","","NaN","","","","","","","","","","","","","",""
"","response","","html-keyboard-response","161","7477294","0.0-1.0-212.0","0","0","75101","","511","","","75","23","","","1","23","training","adjacent","BC","2","3","L.jpg","M.jpg","1","1","1","",""
"","feedback","","html-keyboard-response","162","7478298","0.0-1.0-213.0-0.0","0","0","75101","","null","","","null","23","","","","","","","","","","","","","","","",""
"","ITI","","html-keyboard-response","163","7479306","0.0-1.0-216.0","0","0","75101","","null","","","null","23","","","","","","","","","","","","","","","NaN",""
"","S1","","html-keyboard-response","164","7479564","0.0-1.0-218.0","0","0","75101","","null","","","null","24","","","","","","","","","","","","","","","",""
"","ISI","","html-keyboard-response","165","7481567","0.0-1.0-219.0","0","0","75101","","null","","","null","24","NaN","","","","","","","","","","","","","","",""
"","S2","","html-keyboard-response","166","7481820","0.0-1.0-220.0","0","0","75101","","null","","","null","24","","NaN","","","","","","","","","","","","","",""
"","response","","html-keyboard-response","167","7482679","0.0-1.0-221.0","0","0","75101","","856","","","68","24","","","1","24","training","adjacent","CB","3","2","M.jpg","L.jpg","0","0","1","",""
"","feedback","","html-keyboard-response","168","7483689","0.0-1.0-222.0-0.0","0","0","75101","","null","","","null","24","","","","","","","","","","","","","","","",""
"","ITI","","html-keyboard-response","169","7484824","0.0-1.0-225.0","0","0","75101","","null","","","null","24","","","","","","","","","","","","","","","NaN",""
"","S1","","html-keyboard-response","170","7485106","0.0-1.0-227.0","0","0","75101","","null","","","null","25","","","","","","","","","","","","","","","",""
"","ISI","","html-keyboard-response","171","7487113","0.0-1.0-228.0","0","0","75101","","null","","","null","25","NaN","","","","","","","","","","","","","","",""
"","S2","","html-keyboard-response","172","7487367","0.0-1.0-229.0","0","0","75101","","null","","","null","25","","NaN","","","","","","","","","","","","","",""
"","response","","html-keyboard-response","173","7488279","0.0-1.0-230.0","0","0","75101","","909","","","75","25","","","1","25","training","adjacent","DE","4","5","P.jpg","Q.jpg","1","1","1","",""
"","feedback","","html-keyboard-response","174","7489282","0.0-1.0-231.0-0.0","0","0","75101","","null","","","null","25","","","","","","","","","","","","","","","",""
"","ITI","","html-keyboard-response","175","7490285","0.0-1.0-234.0","0","0","75101","","null","","","null","25","","","","","","","","","","","","","","","NaN",""
"","S1","","html-keyboard-response","176","7490595","0.0-1.0-236.0","0","0","75101","","null","","","null","26","","","","","","","","","","","","","","","",""
"","ISI","","html-keyboard-response","177","7492652","0.0-1.0-237.0","0","0","75101","","null","","","null","26","NaN","","","","","","","","","","","","","","",""
"","S2","","html-keyboard-response","178","7492907","0.0-1.0-238.0","0","0","75101","","null","","","null","26","","NaN","","","","","","","","","","","","","",""
"","response","","html-keyboard-response","179","7493615","0.0-1.0-239.0","0","0","75101","","704","","","75","26","","","1","26","training","adjacent","GF","7","6","O.jpg","R.jpg","1","0","0","",""
"","feedback","","html-keyboard-response","180","7494618","0.0-1.0-240.0-0.0","0","0","75101","","null","","","null","26","","","","","","","","","","","","","","","",""
"","time_out","","html-keyboard-response","181","7496633","0.0-1.0-242.0-0.0","0","0","75101","","null","","","null","26","","","","","","","","","","","","","","","",""
"","ITI","","html-keyboard-response","182","7497636","0.0-1.0-243.0","0","0","75101","","null","","","null","26","","","","","","","","","","","","","","","NaN",""
"","S1","","html-keyboard-response","183","7497889","0.0-1.0-245.0","0","0","75101","","null","","","null","27","","","","","","","","","","","","","","","",""
"","ISI","","html-keyboard-response","184","7499892","0.0-1.0-246.0","0","0","75101","","null","","","null","27","NaN","","","","","","","","","","","","","","",""
"","S2","","html-keyboard-response","185","7500145","0.0-1.0-247.0","0","0","75101","","null","","","null","27","","NaN","","","","","","","","","","","","","",""
"","response","","html-keyboard-response","186","7500326","0.0-1.0-248.0","0","0","75101","","177","","","75","27","","","1","27","training","adjacent","BC","2","3","L.jpg","M.jpg","1","1","1","",""
"","feedback","","html-keyboard-response","187","7501333","0.0-1.0-249.0-0.0","0","0","75101","","null","","","null","27","","","","","","","","","","","","","","","",""
"","ITI","","html-keyboard-response","188","7502336","0.0-1.0-252.0","0","0","75101","","null","","","null","27","","","","","","","","","","","","","","","NaN",""
"","S1","","html-keyboard-response","189","7502643","0.0-1.0-254.0","0","0","75101","","null","","","null","28","","","","","","","","","","","","","","","",""
"","ISI","","html-keyboard-response","190","7504662","0.0-1.0-255.0","0","0","75101","","null","","","null","28","NaN","","","","","","","","","","","","","","",""
"","S2","","html-keyboard-response","191","7504916","0.0-1.0-256.0","0","0","75101","","null","","","null","28","","NaN","","","","","","","","","","","","","",""
"","response","","html-keyboard-response","192","7505371","0.0-1.0-257.0","0","0","75101","","452","","","75","28","","","1","28","training","adjacent","EF","5","6","Q.jpg","R.jpg","1","1","1","",""
"","feedback","","html-keyboard-response","193","7506384","0.0-1.0-258.0-0.0","0","0","75101","","null","","","null","28","","","","","","","","","","","","","","","",""
"","ITI","","html-keyboard-response","194","7507452","0.0-1.0-261.0","0","0","75101","","null","","","null","28","","","","","","","","","","","","","","","NaN",""
"","S1","","html-keyboard-response","195","7507724","0.0-1.0-263.0","0","0","75101","","null","","","null","29","","","","","","","","","","","","","","","",""
"","ISI","","html-keyboard-response","196","7509731","0.0-1.0-264.0","0","0","75101","","null","","","null","29","NaN","","","","","","","","","","","","","","",""
"","S2","","html-keyboard-response","197","7510031","0.0-1.0-265.0","0","0","75101","","null","","","null","29","","NaN","","","","","","","","","","","","","",""
"","response","","html-keyboard-response","198","7510503","0.0-1.0-266.0","0","0","75101","","465","","","75","29","","","1","29","training","adjacent","ED","5","4","Q.jpg","P.jpg","1","0","0","",""
"","feedback","","html-keyboard-response","199","7511508","0.0-1.0-267.0-0.0","0","0","75101","","null","","","null","29","","","","","","","","","","","","","","","",""
"","time_out","","html-keyboard-response","200","7513510","0.0-1.0-269.0-0.0","0","0","75101","","null","","","null","29","","","","","","","","","","","","","","","",""
"","ITI","","html-keyboard-response","201","7514571","0.0-1.0-270.0","0","0","75101","","null","","","null","29","","","","","","","","","","","","","","","NaN",""
"","S1","","html-keyboard-response","202","7514825","0.0-1.0-272.0","0","0","75101","","null","","","null","30","","","","","","","","","","","","","","","",""
"","ISI","","html-keyboard-response","203","7516847","0.0-1.0-273.0","0","0","75101","","null","","","null","30","NaN","","","","","","","","","","","","","","",""
"","S2","","html-keyboard-response","204","7517100","0.0-1.0-274.0","0","0","75101","","null","","","null","30","","NaN","","","","","","","","","","","","","",""
"","response","","html-keyboard-response","205","7517917","0.0-1.0-275.0","0","0","75101","","814","","","68","30","","","1","30","training","adjacent","CD","3","4","M.jpg","P.jpg","0","1","0","",""
"","feedback","","html-keyboard-response","206","7518920","0.0-1.0-276.0-0.0","0","0","75101","","null","","","null","30","","","","","","","","","","","","","","","",""
"","time_out","","html-keyboard-response","207","7520923","0.0-1.0-278.0-0.0","0","0","75101","","null","","","null","30","","","","","","","","","","","","","","","",""
"","ITI","","html-keyboard-response","208","7521950","0.0-1.0-279.0","0","0","75101","","null","","","null","30","","","","","","","","","","","","","","","NaN",""
"","S1","","html-keyboard-response","209","7522204","0.0-1.0-281.0","0","0","75101","","null","","","null","31","","","","","","","","","","","","","","","",""
"","ISI","","html-keyboard-response","210","7524234","0.0-1.0-282.0","0","0","75101","","null","","","null","31","NaN","","","","","","","","","","","","","","",""
"","S2","","html-keyboard-response","211","7524490","0.0-1.0-283.0","0","0","75101","","null","","","null","31","","NaN","","","","","","","","","","","","","",""
"","response","","html-keyboard-response","212","7525380","0.0-1.0-284.0","0","0","75101","","887","","","75","31","","","1","31","training","adjacent","AB","1","2","N.jpg","L.jpg","1","1","1","",""
"","feedback","","html-keyboard-response","213","7526383","0.0-1.0-285.0-0.0","0","0","75101","","null","","","null","31","","","","","","","","","","","","","","","",""
"","ITI","","html-keyboard-response","214","7527427","0.0-1.0-288.0","0","0","75101","","null","","","null","31","","","","","","","","","","","","","","","NaN",""
"","S1","","html-keyboard-response","215","7527686","0.0-1.0-290.0","0","0","75101","","null","","","null","32","","","","","","","","","","","","","","","",""
"","ISI","","html-keyboard-response","216","7529688","0.0-1.0-291.0","0","0","75101","","null","","","null","32","NaN","","","","","","","","","","","","","","",""
"","S2","","html-keyboard-response","217","7529967","0.0-1.0-292.0","0","0","75101","","null","","","null","32","","NaN","","","","","","","","","","","","","",""
"","response","","html-keyboard-response","218","7530477","0.0-1.0-293.0","0","0","75101","","507","","","75","32","","","1","32","training","adjacent","BA","2","1","L.jpg","N.jpg","1","0","0","",""
"","feedback","","html-keyboard-response","219","7531574","0.0-1.0-294.0-0.0","0","0","75101","","null","","","null","32","","","","","","","","","","","","","","","",""
"","time_out","","html-keyboard-response","220","7533579","0.0-1.0-296.0-0.0","0","0","75101","","null","","","null","32","","","","","","","","","","","","","","","",""
"","ITI","","html-keyboard-response","221","7534582","0.0-1.0-297.0","0","0","75101","","null","","","null","32","","","","","","","","","","","","","","","NaN",""
"","S1","","html-keyboard-response","222","7534838","0.0-1.0-299.0","0","0","75101","","null","","","null","33","","","","","","","","","","","","","","","",""
"","ISI","","html-keyboard-response","223","7536840","0.0-1.0-300.0","0","0","75101","","null","","","null","33","NaN","","","","","","","","","","","","","","",""
"","S2","","html-keyboard-response","224","7537097","0.0-1.0-301.0","0","0","75101","","null","","","null","33","","NaN","","","","","","","","","","","","","",""
"","response","","html-keyboard-response","225","7537581","0.0-1.0-302.0","0","0","75101","","480","","","75","33","","","1","33","training","adjacent","EF","5","6","Q.jpg","R.jpg","1","1","1","",""
"","feedback","","html-keyboard-response","226","7538584","0.0-1.0-303.0-0.0","0","0","75101","","null","","","null","33","","","","","","","","","","","","","","","",""
"","ITI","","html-keyboard-response","227","7539591","0.0-1.0-306.0","0","0","75101","","null","","","null","33","","","","","","","","","","","","","","","NaN",""
"","S1","","html-keyboard-response","228","7539847","0.0-1.0-308.0","0","0","75101","","null","","","null","34","","","","","","","","","","","","","","","",""
"","ISI","","html-keyboard-response","229","7541850","0.0-1.0-309.0","0","0","75101","","null","","","null","34","NaN","","","","","","","","","","","","","","",""
"","S2","","html-keyboard-response","230","7542154","0.0-1.0-310.0","0","0","75101","","null","","","null","34","","NaN","","","","","","","","","","","","","",""
"","response","","html-keyboard-response","231","7542618","0.0-1.0-311.0","0","0","75101","","461","","","75","34","","","1","34","training","adjacent","EF","5","6","Q.jpg","R.jpg","1","1","1","",""
"","feedback","","html-keyboard-response","232","7543621","0.0-1.0-312.0-0.0","0","0","75101","","null","","","null","34","","","","","","","","","","","","","","","",""
"","ITI","","html-keyboard-response","233","7544624","0.0-1.0-315.0","0","0","75101","","null","","","null","34","","","","","","","","","","","","","","","NaN",""
"","S1","","html-keyboard-response","234","7544877","0.0-1.0-317.0","0","0","75101","","null","","","null","35","","","","","","","","","","","","","","","",""
"","ISI","","html-keyboard-response","235","7546942","0.0-1.0-318.0","0","0","75101","","null","","","null","35","NaN","","","","","","","","","","","","","","",""
"","S2","","html-keyboard-response","236","7547198","0.0-1.0-319.0","0","0","75101","","null","","","null","35","","NaN","","","","","","","","","","","","","",""
"","response","","html-keyboard-response","237","7547669","0.0-1.0-320.0","0","0","75101","","467","","","75","35","","","1","35","training","adjacent","GF","7","6","O.jpg","R.jpg","1","0","0","",""
"","feedback","","html-keyboard-response","238","7548672","0.0-1.0-321.0-0.0","0","0","75101","","null","","","null","35","","","","","","","","","","","","","","","",""
"","time_out","","html-keyboard-response","239","7550690","0.0-1.0-323.0-0.0","0","0","75101","","null","","","null","35","","","","","","","","","","","","","","","",""
"","ITI","","html-keyboard-response","240","7551713","0.0-1.0-324.0","0","0","75101","","null","","","null","35","","","","","","","","","","","","","","","NaN",""
"","S1","","html-keyboard-response","241","7551966","0.0-1.0-326.0","0","0","75101","","null","","","null","36","","","","","","","","","","","","","","","",""
"","ISI","","html-keyboard-response","242","7554001","0.0-1.0-327.0","0","0","75101","","null","","","null","36","NaN","","","","","","","","","","","","","","",""
"","S2","","html-keyboard-response","243","7554256","0.0-1.0-328.0","0","0","75101","","null","","","null","36","","NaN","","","","","","","","","","","","","",""
"","response","","html-keyboard-response","244","7555435","0.0-1.0-329.0","0","0","75101","","1175","","","68","36","","","1","36","training","adjacent","BA","2","1","L.jpg","N.jpg","0","0","1","",""
"","feedback","","html-keyboard-response","245","7556440","0.0-1.0-330.0-0.0","0","0","75101","","null","","","null","36","","","","","","","","","","","","","","","",""
"","ITI","","html-keyboard-response","246","7557449","0.0-1.0-333.0","0","0","75101","","null","","","null","36","","","","","","","","","","","","","","","NaN",""
"","S1","","html-keyboard-response","247","7557702","0.0-1.0-335.0","0","0","75101","","null","","","null","37","","","","","","","","","","","","","","","",""
"","ISI","","html-keyboard-response","248","7559705","0.0-1.0-336.0","0","0","75101","","null","","","null","37","NaN","","","","","","","","","","","","","","",""
"","S2","","html-keyboard-response","249","7559961","0.0-1.0-337.0","0","0","75101","","null","","","null","37","","NaN","","","","","","","","","","","","","",""
"","response","","html-keyboard-response","250","7560430","0.0-1.0-338.0","0","0","75101","","465","","","75","37","","","1","37","training","adjacent","ED","5","4","Q.jpg","P.jpg","1","0","0","",""
"","feedback","","html-keyboard-response","251","7561433","0.0-1.0-339.0-0.0","0","0","75101","","null","","","null","37","","","","","","","","","","","","","","","",""
"","time_out","","html-keyboard-response","252","7563444","0.0-1.0-341.0-0.0","0","0","75101","","null","","","null","37","","","","","","","","","","","","","","","",""
"","ITI","","html-keyboard-response","253","7564447","0.0-1.0-342.0","0","0","75101","","null","","","null","37","","","","","","","","","","","","","","","NaN",""
"","S1","","html-keyboard-response","254","7564702","0.0-1.0-344.0","0","0","75101","","null","","","null","38","","","","","","","","","","","","","","","",""
"","ISI","","html-keyboard-response","255","7566705","0.0-1.0-345.0","0","0","75101","","null","","","null","38","NaN","","","","","","","","","","","","","","",""
"","S2","","html-keyboard-response","256","7566958","0.0-1.0-346.0","0","0","75101","","null","","","null","38","","NaN","","","","","","","","","","","","","",""
"","response","","html-keyboard-response","257","7567286","0.0-1.0-347.0","0","0","75101","","324","","","75","38","","","1","38","training","adjacent","CB","3","2","M.jpg","L.jpg","1","0","0","",""
"","feedback","","html-keyboard-response","258","7568301","0.0-1.0-348.0-0.0","0","0","75101","","null","","","null","38","","","","","","","","","","","","","","","",""
"","time_out","","html-keyboard-response","259","7570307","0.0-1.0-350.0-0.0","0","0","75101","","null","","","null","38","","","","","","","","","","","","","","","",""
"","ITI","","html-keyboard-response","260","7571312","0.0-1.0-351.0","0","0","75101","","null","","","null","38","","","","","","","","","","","","","","","NaN",""
"","S1","","html-keyboard-response","261","7571613","0.0-1.0-353.0","0","0","75101","","null","","","null","39","","","","","","","","","","","","","","","",""
"","ISI","","html-keyboard-response","262","7573616","0.0-1.0-354.0","0","0","75101","","null","","","null","39","NaN","","","","","","","","","","","","","","",""
"","S2","","html-keyboard-response","263","7573869","0.0-1.0-355.0","0","0","75101","","null","","","null","39","","NaN","","","","","","","","","","","","","",""
"","response","","html-keyboard-response","264","7574745","0.0-1.0-356.0","0","0","75101","","873","","","68","39","","","1","39","training","adjacent","CD","3","4","M.jpg","P.jpg","0","1","0","",""
"","feedback","","html-keyboard-response","265","7575751","0.0-1.0-357.0-0.0","0","0","75101","","null","","","null","39","","","","","","","","","","","","","","","",""
"","time_out","","html-keyboard-response","266","7577778","0.0-1.0-359.0-0.0","0","0","75101","","null","","","null","39","","","","","","","","","","","","","","","",""
"","ITI","","html-keyboard-response","267","7578784","0.0-1.0-360.0","0","0","75101","","null","","","null","39","","","","","","","","","","","","","","","NaN",""
"","S1","","html-keyboard-response","268","7579040","0.0-1.0-362.0","0","0","75101","","null","","","null","40","","","","","","","","","","","","","","","",""
"","ISI","","html-keyboard-response","269","7581044","0.0-1.0-363.0","0","0","75101","","null","","","null","40","NaN","","","","","","","","","","","","","","",""
"","S2","","html-keyboard-response","270","7581302","0.0-1.0-364.0","0","0","75101","","null","","","null","40","","NaN","","","","","","","","","","","","","",""
"","response","","html-keyboard-response","271","7581908","0.0-1.0-365.0","0","0","75101","","604","","","75","40","","","1","40","training","adjacent","GF","7","6","O.jpg","R.jpg","1","0","0","",""
"","feedback","","html-keyboard-response","272","7582911","0.0-1.0-366.0-0.0","0","0","75101","","null","","","null","40","","","","","","","","","","","","","","","",""
"","time_out","","html-keyboard-response","273","7584915","0.0-1.0-368.0-0.0","0","0","75101","","null","","","null","40","","","","","","","","","","","","","","","",""
"","ITI","","html-keyboard-response","274","7585918","0.0-1.0-369.0","0","0","75101","","null","","","null","40","","","","","","","","","","","","","","","NaN",""
"","S1","","html-keyboard-response","275","7586171","0.0-1.0-371.0","0","0","75101","","null","","","null","41","","","","","","","","","","","","","","","",""
"","ISI","","html-keyboard-response","276","7588177","0.0-1.0-372.0","0","0","75101","","null","","","null","41","NaN","","","","","","","","","","","","","","",""
"","S2","","html-keyboard-response","277","7588430","0.0-1.0-373.0","0","0","75101","","null","","","null","41","","NaN","","","","","","","","","","","","","",""
"","response","","html-keyboard-response","278","7588757","0.0-1.0-374.0","0","0","75101","","323","","","75","41","","","1","41","training","adjacent","FG","6","7","R.jpg","O.jpg","1","1","1","",""
"","feedback","","html-keyboard-response","279","7589816","0.0-1.0-375.0-0.0","0","0","75101","","null","","","null","41","","","","","","","","","","","","","","","",""
"","ITI","","html-keyboard-response","280","7590825","0.0-1.0-378.0","0","0","75101","","null","","","null","41","","","","","","","","","","","","","","","NaN",""
"","S1","","html-keyboard-response","281","7591083","0.0-1.0-380.0","0","0","75101","","null","","","null","42","","","","","","","","","","","","","","","",""
"","ISI","","html-keyboard-response","282","7593087","0.0-1.0-381.0","0","0","75101","","null","","","null","42","NaN","","","","","","","","","","","","","","",""
"","S2","","html-keyboard-response","283","7593340","0.0-1.0-382.0","0","0","75101","","null","","","null","42","","NaN","","","","","","","","","","","","","",""
"","response","","html-keyboard-response","284","7593821","0.0-1.0-383.0","0","0","75101","","478","","","75","42","","","1","42","training","adjacent","BC","2","3","L.jpg","M.jpg","1","1","1","",""
"","feedback","","html-keyboard-response","285","7594830","0.0-1.0-384.0-0.0","0","0","75101","","null","","","null","42","","","","","","","","","","","","","","","",""
"","ITI","","html-keyboard-response","286","7595833","0.0-1.0-387.0","0","0","75101","","null","","","null","42","","","","","","","","","","","","","","","NaN",""
"","S1","","html-keyboard-response","287","7596089","0.0-1.0-389.0","0","0","75101","","null","","","null","43","","","","","","","","","","","","","","","",""
"","ISI","","html-keyboard-response","288","7598092","0.0-1.0-390.0","0","0","75101","","null","","","null","43","NaN","","","","","","","","","","","","","","",""
"","S2","","html-keyboard-response","289","7598349","0.0-1.0-391.0","0","0","75101","","null","","","null","43","","NaN","","","","","","","","","","","","","",""
"","response","","html-keyboard-response","290","7598757","0.0-1.0-392.0","0","0","75101","","404","","","75","43","","","1","43","training","adjacent","BC","2","3","L.jpg","M.jpg","1","1","1","",""
"","feedback","","html-keyboard-response","291","7599841","0.0-1.0-393.0-0.0","0","0","75101","","null","","","null","43","","","","","","","","","","","","","","","",""
"","ITI","","html-keyboard-response","292","7600847","0.0-1.0-396.0","0","0","75101","","null","","","null","43","","","","","","","","","","","","","","","NaN",""
"","S1","","html-keyboard-response","293","7601104","0.0-1.0-398.0","0","0","75101","","null","","","null","44","","","","","","","","","","","","","","","",""
"","ISI","","html-keyboard-response","294","7603136","0.0-1.0-399.0","0","0","75101","","null","","","null","44","NaN","","","","","","","","","","","","","","",""
"","S2","","html-keyboard-response","295","7603389","0.0-1.0-400.0","0","0","75101","","null","","","null","44","","NaN","","","","","","","","","","","","","",""
"","response","","html-keyboard-response","296","7603938","0.0-1.0-401.0","0","0","75101","","546","","","75","44","","","1","44","training","adjacent","ED","5","4","Q.jpg","P.jpg","1","0","0","",""
"","feedback","","html-keyboard-response","297","7604986","0.0-1.0-402.0-0.0","0","0","75101","","null","","","null","44","","","","","","","","","","","","","","","",""
"","time_out","","html-keyboard-response","298","7606989","0.0-1.0-404.0-0.0","0","0","75101","","null","","","null","44","","","","","","","","","","","","","","","",""
"","ITI","","html-keyboard-response","299","7607992","0.0-1.0-405.0","0","0","75101","","null","","","null","44","","","","","","","","","","","","","","","NaN",""
"","S1","","html-keyboard-response","300","7608254","0.0-1.0-407.0","0","0","75101","","null","","","null","45","","","","","","","","","","","","","","","",""
"","ISI","","html-keyboard-response","301","7610262","0.0-1.0-408.0","0","0","75101","","null","","","null","45","NaN","","","","","","","","","","","","","","",""
"","S2","","html-keyboard-response","302","7610516","0.0-1.0-409.0","0","0","75101","","null","","","null","45","","NaN","","","","","","","","","","","","","",""
"","response","","html-keyboard-response","303","7610616","0.0-1.0-410.0","0","0","75101","","97","","","75","45","","","1","45","training","adjacent","DC","4","3","P.jpg","M.jpg","1","0","0","",""
"","feedback","","html-keyboard-response","304","7611619","0.0-1.0-411.0-0.0","0","0","75101","","null","","","null","45","","","","","","","","","","","","","","","",""
"","time_out","","html-keyboard-response","305","7613623","0.0-1.0-413.0-0.0","0","0","75101","","null","","","null","45","","","","","","","","","","","","","","","",""
"","ITI","","html-keyboard-response","306","7614626","0.0-1.0-414.0","0","0","75101","","null","","","null","45","","","","","","","","","","","","","","","NaN",""
"","S1","","html-keyboard-response","307","7614894","0.0-1.0-416.0","0","0","75101","","null","","","null","46","","","","","","","","","","","","","","","",""
"","ISI","","html-keyboard-response","308","7616897","0.0-1.0-417.0","0","0","75101","","217","","","68","46","d","","","","","","","","","","","","","","",""
"","S2","","html-keyboard-response","309","7617154","0.0-1.0-418.0","0","0","75101","","null","","","null","46","","NaN","","","","","","","","","","","","","",""
"","response","","html-keyboard-response","310","7617320","0.0-1.0-419.0","0","0","75101","","162","","","68","46","","","1","46","training","adjacent","FE","6","5","R.jpg","Q.jpg","0","0","1","",""
"","feedback","","html-keyboard-response","311","7618331","0.0-1.0-420.0-0.0","0","0","75101","","null","","","null","46","","","","","","","","","","","","","","","",""
"","ITI","","html-keyboard-response","312","7619334","0.0-1.0-423.0","0","0","75101","","null","","","null","46","","","","","","","","","","","","","","","NaN",""
"","S1","","html-keyboard-response","313","7619588","0.0-1.0-425.0","0","0","75101","","null","","","null","47","","","","","","","","","","","","","","","",""
"","ISI","","html-keyboard-response","314","7621591","0.0-1.0-426.0","0","0","75101","","null","","","null","47","NaN","","","","","","","","","","","","","","",""
"","S2","","html-keyboard-response","315","7621844","0.0-1.0-427.0","0","0","75101","","null","","","null","47","","NaN","","","","","","","","","","","","","",""
"","response","","html-keyboard-response","316","7622302","0.0-1.0-428.0","0","0","75101","","453","","","75","47","","","1","47","training","adjacent","CD","3","4","M.jpg","P.jpg","1","1","1","",""
"","feedback","","html-keyboard-response","317","7623307","0.0-1.0-429.0-0.0","0","0","75101","","null","","","null","47","","","","","","","","","","","","","","","",""
"","ITI","","html-keyboard-response","318","7624310","0.0-1.0-432.0","0","0","75101","","null","","","null","47","","","","","","","","","","","","","","","NaN",""
"","block_over","","html-keyboard-response","319","7844792","0.0-1.0-433.0-0.0","0","0","75101","","220477","","","32","47","","","","","","","","","","","","","","","",""
"","S1","","html-keyboard-response","320","7845045","0.0-1.0-434.0","0","0","75101","","null","","","null","48","","","","","","","","","","","","","","","",""
"","ISI","","html-keyboard-response","321","7847048","0.0-1.0-435.0","0","0","75101","","null","","","null","48","NaN","","","","","","","","","","","","","","",""
"","S2","","html-keyboard-response","322","7847302","0.0-1.0-436.0","0","0","75101","","null","","","null","48","","NaN","","","","","","","","","","","","","",""
"","response","","html-keyboard-response","323","7847943","0.0-1.0-437.0","0","0","75101","","636","","","75","48","","","2","48","training","adjacent","BC","2","3","L.jpg","M.jpg","1","1","1","",""
"","feedback","","html-keyboard-response","324","7848993","0.0-1.0-438.0-0.0","0","0","75101","","null","","","null","48","","","","","","","","","","","","","","","",""
"","ITI","","html-keyboard-response","325","7849997","0.0-1.0-441.0","0","0","75101","","null","","","null","48","","","","","","","","","","","","","","","NaN",""
"","S1","","html-keyboard-response","326","7850250","0.0-1.0-443.0","0","0","75101","","null","","","null","49","","","","","","","","","","","","","","","",""
"","ISI","","html-keyboard-response","327","7852257","0.0-1.0-444.0","0","0","75101","","null","","","null","49","NaN","","","","","","","","","","","","","","",""
"","S2","","html-keyboard-response","328","7852510","0.0-1.0-445.0","0","0","75101","","null","","","null","49","","NaN","","","","","","","","","","","","","",""
"","response","","html-keyboard-response","329","7852986","0.0-1.0-446.0","0","0","75101","","472","","","68","49","","","2","49","training","adjacent","GF","7","6","O.jpg","R.jpg","0","0","1","",""
"","feedback","","html-keyboard-response","330","7853989","0.0-1.0-447.0-0.0","0","0","75101","","null","","","null","49","","","","","","","","","","","","","","","",""
"","ITI","","html-keyboard-response","331","7854995","0.0-1.0-450.0","0","0","75101","","null","","","null","49","","","","","","","","","","","","","","","NaN",""
"","S1","","html-keyboard-response","332","7855252","0.0-1.0-452.0","0","0","75101","","null","","","null","50","","","","","","","","","","","","","","","",""
"","ISI","","html-keyboard-response","333","7857256","0.0-1.0-453.0","0","0","75101","","null","","","null","50","NaN","","","","","","","","","","","","","","",""
"","S2","","html-keyboard-response","334","7857509","0.0-1.0-454.0","0","0","75101","","null","","","null","50","","NaN","","","","","","","","","","","","","",""
"","response","","html-keyboard-response","335","7858143","0.0-1.0-455.0","0","0","75101","","630","","","75","50","","","2","50","training","adjacent","FG","6","7","R.jpg","O.jpg","1","1","1","",""
"","feedback","","html-keyboard-response","336","7859147","0.0-1.0-456.0-0.0","0","0","75101","","null","","","null","50","","","","","","","","","","","","","","","",""
"","ITI","","html-keyboard-response","337","7860152","0.0-1.0-459.0","0","0","75101","","null","","","null","50","","","","","","","","","","","","","","","NaN",""
"","S1","","html-keyboard-response","338","7860409","0.0-1.0-461.0","0","0","75101","","null","","","null","51","","","","","","","","","","","","","","","",""
"","ISI","","html-keyboard-response","339","7862412","0.0-1.0-462.0","0","0","75101","","null","","","null","51","NaN","","","","","","","","","","","","","","",""
"","S2","","html-keyboard-response","340","7862745","0.0-1.0-463.0","0","0","75101","","null","","","null","51","","NaN","","","","","","","","","","","","","",""
"","response","","html-keyboard-response","341","7863533","0.0-1.0-464.0","0","0","75101","","785","","","75","51","","","2","51","training","adjacent","FG","6","7","R.jpg","O.jpg","1","1","1","",""
"","feedback","","html-keyboard-response","342","7864560","0.0-1.0-465.0-0.0","0","0","75101","","null","","","null","51","","","","","","","","","","","","","","","",""
"","ITI","","html-keyboard-response","343","7865568","0.0-1.0-468.0","0","0","75101","","null","","","null","51","","","","","","","","","","","","","","","NaN",""
"","S1","","html-keyboard-response","344","7865821","0.0-1.0-470.0","0","0","75101","","null","","","null","52","","","","","","","","","","","","","","","",""
"","ISI","","html-keyboard-response","345","7867824","0.0-1.0-471.0","0","0","75101","","null","","","null","52","NaN","","","","","","","","","","","","","","",""
"","S2","","html-keyboard-response","346","7868080","0.0-1.0-472.0","0","0","75101","","null","","","null","52","","NaN","","","","","","","","","","","","","",""
"","response","","html-keyboard-response","347","7868519","0.0-1.0-473.0","0","0","75101","","435","","","75","52","","","2","52","training","adjacent","DE","4","5","P.jpg","Q.jpg","1","1","1","",""
"","feedback","","html-keyboard-response","348","7869522","0.0-1.0-474.0-0.0","0","0","75101","","null","","","null","52","","","","","","","","","","","","","","","",""
"","ITI","","html-keyboard-response","349","7870528","0.0-1.0-477.0","0","0","75101","","null","","","null","52","","","","","","","","","","","","","","","NaN",""
"","S1","","html-keyboard-response","350","7870823","0.0-1.0-479.0","0","0","75101","","null","","","null","53","","","","","","","","","","","","","","","",""
"","ISI","","html-keyboard-response","351","7872901","0.0-1.0-480.0","0","0","75101","","null","","","null","53","NaN","","","","","","","","","","","","","","",""
"","S2","","html-keyboard-response","352","7873154","0.0-1.0-481.0","0","0","75101","","null","","","null","53","","NaN","","","","","","","","","","","","","",""
"","response","","html-keyboard-response","353","7873642","0.0-1.0-482.0","0","0","75101","","484","","","75","53","","","2","53","training","adjacent","BC","2","3","L.jpg","M.jpg","1","1","1","",""
"","feedback","","html-keyboard-response","354","7874817","0.0-1.0-483.0-0.0","0","0","75101","","null","","","null","53","","","","","","","","","","","","","","","",""
"","ITI","","html-keyboard-response","355","7875821","0.0-1.0-486.0","0","0","75101","","null","","","null","53","","","","","","","","","","","","","","","NaN",""
"","S1","","html-keyboard-response","356","7876081","0.0-1.0-488.0","0","0","75101","","null","","","null","54","","","","","","","","","","","","","","","",""
"","ISI","","html-keyboard-response","357","7878083","0.0-1.0-489.0","0","0","75101","","null","","","null","54","NaN","","","","","","","","","","","","","","",""
"","S2","","html-keyboard-response","358","7878340","0.0-1.0-490.0","0","0","75101","","null","","","null","54","","NaN","","","","","","","","","","","","","",""
"","response","","html-keyboard-response","359","7879030","0.0-1.0-491.0","0","0","75101","","686","","","68","54","","","2","54","training","adjacent","FG","6","7","R.jpg","O.jpg","0","1","0","",""
"","feedback","","html-keyboard-response","360","7880037","0.0-1.0-492.0-0.0","0","0","75101","","null","","","null","54","","","","","","","","","","","","","","","",""
"","time_out","","html-keyboard-response","361","7882040","0.0-1.0-494.0-0.0","0","0","75101","","null","","","null","54","","","","","","","","","","","","","","","",""
"","ITI","","html-keyboard-response","362","7883043","0.0-1.0-495.0","0","0","75101","","null","","","null","54","","","","","","","","","","","","","","","NaN",""
"","S1","","html-keyboard-response","363","7883296","0.0-1.0-497.0","0","0","75101","","null","","","null","55","","","","","","","","","","","","","","","",""
"","ISI","","html-keyboard-response","364","7885299","0.0-1.0-498.0","0","0","75101","","null","","","null","55","NaN","","","","","","","","","","","","","","",""
"","S2","","html-keyboard-response","365","7885552","0.0-1.0-499.0","0","0","75101","","null","","","null","55","","NaN","","","","","","","","","","","","","",""
"","response","","html-keyboard-response","366","7886978","0.0-1.0-500.0","0","0","75101","","1422","","","68","55","","","2","55","training","adjacent","BA","2","1","L.jpg","N.jpg","0","0","1","",""
"","feedback","","html-keyboard-response","367","7887990","0.0-1.0-501.0-0.0","0","0","75101","","null","","","null","55","","","","","","","","","","","","","","","",""
"","ITI","","html-keyboard-response","368","7888994","0.0-1.0-504.0","0","0","75101","","null","","","null","55","","","","","","","","","","","","","","","NaN",""
"","S1","","html-keyboard-response","369","7889259","0.0-1.0-506.0","0","0","75101","","null","","","null","56","","","","","","","","","","","","","","","",""
"","ISI","","html-keyboard-response","370","7891262","0.0-1.0-507.0","0","0","75101","","null","","","null","56","NaN","","","","","","","","","","","","","","",""
"","S2","","html-keyboard-response","371","7891515","0.0-1.0-508.0","0","0","75101","","null","","","null","56","","NaN","","","","","","","","","","","","","",""
"","response","","html-keyboard-response","372","7891955","0.0-1.0-509.0","0","0","75101","","436","","","75","56","","","2","56","training","adjacent","BC","2","3","L.jpg","M.jpg","1","1","1","",""
"","feedback","","html-keyboard-response","373","7892963","0.0-1.0-510.0-0.0","0","0","75101","","null","","","null","56","","","","","","","","","","","","","","","",""
"","ITI","","html-keyboard-response","374","7893967","0.0-1.0-513.0","0","0","75101","","null","","","null","56","","","","","","","","","","","","","","","NaN",""
"","S1","","html-keyboard-response","375","7894220","0.0-1.0-515.0","0","0","75101","","null","","","null","57","","","","","","","","","","","","","","","",""
"","ISI","","html-keyboard-response","376","7896223","0.0-1.0-516.0","0","0","75101","","null","","","null","57","NaN","","","","","","","","","","","","","","",""
"","S2","","html-keyboard-response","377","7896499","0.0-1.0-517.0","0","0","75101","","null","","","null","57","","NaN","","","","","","","","","","","","","",""
"","response","","html-keyboard-response","378","7896918","0.0-1.0-518.0","0","0","75101","","416","","","75","57","","","2","57","training","adjacent","BC","2","3","L.jpg","M.jpg","1","1","1","",""
"","feedback","","html-keyboard-response","379","7897931","0.0-1.0-519.0-0.0","0","0","75101","","null","","","null","57","","","","","","","","","","","","","","","",""
"","ITI","","html-keyboard-response","380","7898978","0.0-1.0-522.0","0","0","75101","","null","","","null","57","","","","","","","","","","","","","","","NaN",""
"","S1","","html-keyboard-response","381","7899237","0.0-1.0-524.0","0","0","75101","","null","","","null","58","","","","","","","","","","","","","","","",""
"","ISI","","html-keyboard-response","382","7901240","0.0-1.0-525.0","0","0","75101","","null","","","null","58","NaN","","","","","","","","","","","","","","",""
"","S2","","html-keyboard-response","383","7901497","0.0-1.0-526.0","0","0","75101","","null","","","null","58","","NaN","","","","","","","","","","","","","",""
"","response","","html-keyboard-response","384","7901918","0.0-1.0-527.0","0","0","75101","","405","","","75","58","","","2","58","training","adjacent","ED","5","4","Q.jpg","P.jpg","1","0","0","",""
"","feedback","","html-keyboard-response","385","7902922","0.0-1.0-528.0-0.0","0","0","75101","","null","","","null","58","","","","","","","","","","","","","","","",""
"","time_out","","html-keyboard-response","386","7904925","0.0-1.0-530.0-0.0","0","0","75101","","null","","","null","58","","","","","","","","","","","","","","","",""
"","ITI","","html-keyboard-response","387","7905928","0.0-1.0-531.0","0","0","75101","","null","","","null","58","","","","","","","","","","","","","","","NaN",""
"","S1","","html-keyboard-response","388","7906181","0.0-1.0-533.0","0","0","75101","","null","","","null","59","","","","","","","","","","","","","","","",""
"","ISI","","html-keyboard-response","389","7908184","0.0-1.0-534.0","0","0","75101","","null","","","null","59","NaN","","","","","","","","","","","","","","",""
"","S2","","html-keyboard-response","390","7908437","0.0-1.0-535.0","0","0","75101","","null","","","null","59","","NaN","","","","","","","","","","","","","",""
"","response","","html-keyboard-response","391","7909331","0.0-1.0-536.0","0","0","75101","","890","","","75","59","","","2","59","training","adjacent","CB","3","2","M.jpg","L.jpg","1","0","0","",""
"","feedback","","html-keyboard-response","392","7910335","0.0-1.0-537.0-0.0","0","0","75101","","null","","","null","59","","","","","","","","","","","","","","","",""
"","time_out","","html-keyboard-response","393","7912338","0.0-1.0-539.0-0.0","0","0","75101","","null","","","null","59","","","","","","","","","","","","","","","",""
"","ITI","","html-keyboard-response","394","7913341","0.0-1.0-540.0","0","0","75101","","null","","","null","59","","","","","","","","","","","","","","","NaN",""
"","S1","","html-keyboard-response","395","7913594","0.0-1.0-542.0","0","0","75101","","null","","","null","60","","","","","","","","","","","","","","","",""
"","ISI","","html-keyboard-response","396","7915597","0.0-1.0-543.0","0","0","75101","","null","","","null","60","NaN","","","","","","","","","","","","","","",""
"","S2","","html-keyboard-response","397","7915851","0.0-1.0-544.0","0","0","75101","","null","","","null","60","","NaN","","","","","","","","","","","","","",""
"","response","","html-keyboard-response","398","7916142","0.0-1.0-545.0","0","0","75101","","287","","","75","60","","","2","60","training","adjacent","GF","7","6","O.jpg","R.jpg","1","0","0","",""
"","feedback","","html-keyboard-response","399","7917145","0.0-1.0-546.0-0.0","0","0","75101","","null","","","null","60","","","","","","","","","","","","","","","",""
"","time_out","","html-keyboard-response","400","7919161","0.0-1.0-548.0-0.0","0","0","75101","","null","","","null","60","","","","","","","","","","","","","","","",""
"","ITI","","html-keyboard-response","401","7920169","0.0-1.0-549.0","0","0","75101","","null","","","null","60","","","","","","","","","","","","","","","NaN",""
"","S1","","html-keyboard-response","402","7920423","0.0-1.0-551.0","0","0","75101","","null","","","null","61","","","","","","","","","","","","","","","",""
"","ISI","","html-keyboard-response","403","7922427","0.0-1.0-552.0","0","0","75101","","null","","","null","61","NaN","","","","","","","","","","","","","","",""
"","S2","","html-keyboard-response","404","7922718","0.0-1.0-553.0","0","0","75101","","null","","","null","61","","NaN","","","","","","","","","","","","","",""
"","response","","html-keyboard-response","405","7923777","0.0-1.0-554.0","0","0","75101","","1056","","","75","61","","","2","61","training","adjacent","CB","3","2","M.jpg","L.jpg","1","0","0","",""
"","feedback","","html-keyboard-response","406","7924807","0.0-1.0-555.0-0.0","0","0","75101","","null","","","null","61","","","","","","","","","","","","","","","",""
"","time_out","","html-keyboard-response","407","7926911","0.0-1.0-557.0-0.0","0","0","75101","","null","","","null","61","","","","","","","","","","","","","","","",""
"","ITI","","html-keyboard-response","408","7927917","0.0-1.0-558.0","0","0","75101","","null","","","null","61","","","","","","","","","","","","","","","NaN",""
"","S1","","html-keyboard-response","409","7928174","0.0-1.0-560.0","0","0","75101","","null","","","null","62","","","","","","","","","","","","","","","",""
"","ISI","","html-keyboard-response","410","7930177","0.0-1.0-561.0","0","0","75101","","null","","","null","62","NaN","","","","","","","","","","","","","","",""
"","S2","","html-keyboard-response","411","7930448","0.0-1.0-562.0","0","0","75101","","null","","","null","62","","NaN","","","","","","","","","","","","","",""
"","response","","html-keyboard-response","412","7930895","0.0-1.0-563.0","0","0","75101","","443","","","75","62","","","2","62","training","adjacent","EF","5","6","Q.jpg","R.jpg","1","1","1","",""
"","feedback","","html-keyboard-response","413","7931913","0.0-1.0-564.0-0.0","0","0","75101","","null","","","null","62","","","","","","","","","","","","","","","",""
"","ITI","","html-keyboard-response","414","7932932","0.0-1.0-567.0","0","0","75101","","null","","","null","62","","","","","","","","","","","","","","","NaN",""
"","S1","","html-keyboard-response","415","7933218","0.0-1.0-569.0","0","0","75101","","null","","","null","63","","","","","","","","","","","","","","","",""
"","ISI","","html-keyboard-response","416","7935221","0.0-1.0-570.0","0","0","75101","","null","","","null","63","NaN","","","","","","","","","","","","","","",""
"","S2","","html-keyboard-response","417","7935475","0.0-1.0-571.0","0","0","75101","","null","","","null","63","","NaN","","","","","","","","","","","","","",""
"","response","","html-keyboard-response","418","7936803","0.0-1.0-572.0","0","0","75101","","1324","","","75","63","","","2","63","training","adjacent","AB","1","2","N.jpg","L.jpg","1","1","1","",""
"","feedback","","html-keyboard-response","419","7937806","0.0-1.0-573.0-0.0","0","0","75101","","null","","","null","63","","","","","","","","","","","","","","","",""
"","ITI","","html-keyboard-response","420","7938811","0.0-1.0-576.0","0","0","75101","","null","","","null","63","","","","","","","","","","","","","","","NaN",""
"","S1","","html-keyboard-response","421","7939065","0.0-1.0-578.0","0","0","75101","","null","","","null","64","","","","","","","","","","","","","","","",""
"","ISI","","html-keyboard-response","422","7941068","0.0-1.0-579.0","0","0","75101","","null","","","null","64","NaN","","","","","","","","","","","","","","",""
"","S2","","html-keyboard-response","423","7941326","0.0-1.0-580.0","0","0","75101","","null","","","null","64","","NaN","","","","","","","","","","","","","",""
"","response","","html-keyboard-response","424","7942087","0.0-1.0-581.0","0","0","75101","","758","","","68","64","","","2","64","training","adjacent","BA","2","1","L.jpg","N.jpg","0","0","1","",""
"","feedback","","html-keyboard-response","425","7943090","0.0-1.0-582.0-0.0","0","0","75101","","null","","","null","64","","","","","","","","","","","","","","","",""
"","ITI","","html-keyboard-response","426","7944097","0.0-1.0-585.0","0","0","75101","","null","","","null","64","","","","","","","","","","","","","","","NaN",""
"","S1","","html-keyboard-response","427","7944354","0.0-1.0-587.0","0","0","75101","","null","","","null","65","","","","","","","","","","","","","","","",""
"","ISI","","html-keyboard-response","428","7946360","0.0-1.0-588.0","0","0","75101","","null","","","null","65","NaN","","","","","","","","","","","","","","",""
"","S2","","html-keyboard-response","429","7946649","0.0-1.0-589.0","0","0","75101","","null","","","null","65","","NaN","","","","","","","","","","","","","",""
"","response","","html-keyboard-response","430","7947491","0.0-1.0-590.0","0","0","75101","","838","","","75","65","","","2","65","training","adjacent","FG","6","7","R.jpg","O.jpg","1","1","1","",""
"","feedback","","html-keyboard-response","431","7948499","0.0-1.0-591.0-0.0","0","0","75101","","null","","","null","65","","","","","","","","","","","","","","","",""
"","ITI","","html-keyboard-response","432","7949502","0.0-1.0-594.0","0","0","75101","","null","","","null","65","","","","","","","","","","","","","","","NaN",""
"","S1","","html-keyboard-response","433","7949755","0.0-1.0-596.0","0","0","75101","","null","","","null","66","","","","","","","","","","","","","","","",""
"","ISI","","html-keyboard-response","434","7951758","0.0-1.0-597.0","0","0","75101","","null","","","null","66","NaN","","","","","","","","","","","","","","",""
"","S2","","html-keyboard-response","435","7952011","0.0-1.0-598.0","0","0","75101","","null","","","null","66","","NaN","","","","","","","","","","","","","",""
"","response","","html-keyboard-response","436","7952881","0.0-1.0-599.0","0","0","75101","","867","","","75","66","","","2","66","training","adjacent","CD","3","4","M.jpg","P.jpg","1","1","1","",""
"","feedback","","html-keyboard-response","437","7953884","0.0-1.0-600.0-0.0","0","0","75101","","null","","","null","66","","","","","","","","","","","","","","","",""
"","ITI","","html-keyboard-response","438","7954887","0.0-1.0-603.0","0","0","75101","","null","","","null","66","","","","","","","","","","","","","","","NaN",""
"","S1","","html-keyboard-response","439","7955140","0.0-1.0-605.0","0","0","75101","","null","","","null","67","","","","","","","","","","","","","","","",""
"","ISI","","html-keyboard-response","440","7957144","0.0-1.0-606.0","0","0","75101","","null","","","null","67","NaN","","","","","","","","","","","","","","",""
"","S2","","html-keyboard-response","441","7957397","0.0-1.0-607.0","0","0","75101","","null","","","null","67","","NaN","","","","","","","","","","","","","",""
"","response","","html-keyboard-response","442","7957934","0.0-1.0-608.0","0","0","75101","","533","","","75","67","","","2","67","training","adjacent","FE","6","5","R.jpg","Q.jpg","1","0","0","",""
"","feedback","","html-keyboard-response","443","7958940","0.0-1.0-609.0-0.0","0","0","75101","","null","","","null","67","","","","","","","","","","","","","","","",""
"","time_out","","html-keyboard-response","444","7961006","0.0-1.0-611.0-0.0","0","0","75101","","null","","","null","67","","","","","","","","","","","","","","","",""
"","ITI","","html-keyboard-response","445","7962009","0.0-1.0-612.0","0","0","75101","","null","","","null","67","","","","","","","","","","","","","","","NaN",""
"","S1","","html-keyboard-response","446","7962263","0.0-1.0-614.0","0","0","75101","","null","","","null","68","","","","","","","","","","","","","","","",""
"","ISI","","html-keyboard-response","447","7964265","0.0-1.0-615.0","0","0","75101","","null","","","null","68","NaN","","","","","","","","","","","","","","",""
"","S2","","html-keyboard-response","448","7964586","0.0-1.0-616.0","0","0","75101","","null","","","null","68","","NaN","","","","","","","","","","","","","",""
"","response","","html-keyboard-response","449","7965241","0.0-1.0-617.0","0","0","75101","","651","","","68","68","","","2","68","training","adjacent","FE","6","5","R.jpg","Q.jpg","0","0","1","",""
"","feedback","","html-keyboard-response","450","7966245","0.0-1.0-618.0-0.0","0","0","75101","","null","","","null","68","","","","","","","","","","","","","","","",""
"","ITI","","html-keyboard-response","451","7967256","0.0-1.0-621.0","0","0","75101","","null","","","null","68","","","","","","","","","","","","","","","NaN",""
"","S1","","html-keyboard-response","452","7967511","0.0-1.0-623.0","0","0","75101","","null","","","null","69","","","","","","","","","","","","","","","",""
"","ISI","","html-keyboard-response","453","7969514","0.0-1.0-624.0","0","0","75101","","null","","","null","69","NaN","","","","","","","","","","","","","","",""
"","S2","","html-keyboard-response","454","7969767","0.0-1.0-625.0","0","0","75101","","null","","","null","69","","NaN","","","","","","","","","","","","","",""
"","response","","html-keyboard-response","455","7970752","0.0-1.0-626.0","0","0","75101","","982","","","68","69","","","2","69","training","adjacent","CD","3","4","M.jpg","P.jpg","0","1","0","",""
"","feedback","","html-keyboard-response","456","7971756","0.0-1.0-627.0-0.0","0","0","75101","","null","","","null","69","","","","","","","","","","","","","","","",""
"","time_out","","html-keyboard-response","457","7973762","0.0-1.0-629.0-0.0","0","0","75101","","null","","","null","69","","","","","","","","","","","","","","","",""
"","ITI","","html-keyboard-response","458","7974769","0.0-1.0-630.0","0","0","75101","","null","","","null","69","","","","","","","","","","","","","","","NaN",""
"","S1","","html-keyboard-response","459","7975022","0.0-1.0-632.0","0","0","75101","","null","","","null","70","","","","","","","","","","","","","","","",""
"","ISI","","html-keyboard-response","460","7977025","0.0-1.0-633.0","0","0","75101","","null","","","null","70","NaN","","","","","","","","","","","","","","",""
"","S2","","html-keyboard-response","461","7977281","0.0-1.0-634.0","0","0","75101","","null","","","null","70","","NaN","","","","","","","","","","","","","",""
"","response","","html-keyboard-response","462","7977887","0.0-1.0-635.0","0","0","75101","","603","","","75","70","","","2","70","training","adjacent","DE","4","5","P.jpg","Q.jpg","1","1","1","",""
"","feedback","","html-keyboard-response","463","7978890","0.0-1.0-636.0-0.0","0","0","75101","","null","","","null","70","","","","","","","","","","","","","","","",""
"","ITI","","html-keyboard-response","464","7979893","0.0-1.0-639.0","0","0","75101","","null","","","null","70","","","","","","","","","","","","","","","NaN",""
"","S1","","html-keyboard-response","465","7980147","0.0-1.0-641.0","0","0","75101","","null","","","null","71","","","","","","","","","","","","","","","",""
"","ISI","","html-keyboard-response","466","7982150","0.0-1.0-642.0","0","0","75101","","null","","","null","71","NaN","","","","","","","","","","","","","","",""
"","S2","","html-keyboard-response","467","7982404","0.0-1.0-643.0","0","0","75101","","null","","","null","71","","NaN","","","","","","","","","","","","","",""
"","response","","html-keyboard-response","468","7982687","0.0-1.0-644.0","0","0","75101","","280","","","75","71","","","2","71","training","adjacent","DC","4","3","P.jpg","M.jpg","1","0","0","",""
"","feedback","","html-keyboard-response","469","7983691","0.0-1.0-645.0-0.0","0","0","75101","","null","","","null","71","","","","","","","","","","","","","","","",""
"","time_out","","html-keyboard-response","470","7985694","0.0-1.0-647.0-0.0","0","0","75101","","null","","","null","71","","","","","","","","","","","","","","","",""
"","ITI","","html-keyboard-response","471","7986726","0.0-1.0-648.0","0","0","75101","","null","","","null","71","","","","","","","","","","","","","","","NaN",""
"","S1","","html-keyboard-response","472","7986984","0.0-1.0-650.0","0","0","75101","","null","","","null","72","","","","","","","","","","","","","","","",""
"","ISI","","html-keyboard-response","473","7988987","0.0-1.0-651.0","0","0","75101","","null","","","null","72","NaN","","","","","","","","","","","","","","",""
"","S2","","html-keyboard-response","474","7989240","0.0-1.0-652.0","0","0","75101","","null","","","null","72","","NaN","","","","","","","","","","","","","",""
"","response","","html-keyboard-response","475","7989867","0.0-1.0-653.0","0","0","75101","","624","","","68","72","","","2","72","training","adjacent","BA","2","1","L.jpg","N.jpg","0","0","1","",""
"","feedback","","html-keyboard-response","476","7990870","0.0-1.0-654.0-0.0","0","0","75101","","null","","","null","72","","","","","","","","","","","","","","","",""
"","ITI","","html-keyboard-response","477","7991873","0.0-1.0-657.0","0","0","75101","","null","","","null","72","","","","","","","","","","","","","","","NaN",""
"","S1","","html-keyboard-response","478","7992126","0.0-1.0-659.0","0","0","75101","","null","","","null","73","","","","","","","","","","","","","","","",""
"","ISI","","html-keyboard-response","479","7994133","0.0-1.0-660.0","0","0","75101","","null","","","null","73","NaN","","","","","","","","","","","","","","",""
"","S2","","html-keyboard-response","480","7994439","0.0-1.0-661.0","0","0","75101","","null","","","null","73","","NaN","","","","","","","","","","","","","",""
"","response","","html-keyboard-response","481","7995215","0.0-1.0-662.0","0","0","75101","","772","","","75","73","","","2","73","training","adjacent","DC","4","3","P.jpg","M.jpg","1","0","0","",""
"","feedback","","html-keyboard-response","482","7996218","0.0-1.0-663.0-0.0","0","0","75101","","null","","","null","73","","","","","","","","","","","","","","","",""
"","time_out","","html-keyboard-response","483","7998227","0.0-1.0-665.0-0.0","0","0","75101","","null","","","null","73","","","","","","","","","","","","","","","",""
"","ITI","","html-keyboard-response","484","7999230","0.0-1.0-666.0","0","0","75101","","null","","","null","73","","","","","","","","","","","","","","","NaN",""
"","S1","","html-keyboard-response","485","7999484","0.0-1.0-668.0","0","0","75101","","null","","","null","74","","","","","","","","","","","","","","","",""
"","ISI","","html-keyboard-response","486","8001487","0.0-1.0-669.0","0","0","75101","","null","","","null","74","NaN","","","","","","","","","","","","","","",""
"","S2","","html-keyboard-response","487","8001741","0.0-1.0-670.0","0","0","75101","","null","","","null","74","","NaN","","","","","","","","","","","","","",""
"","response","","html-keyboard-response","488","8002321","0.0-1.0-671.0","0","0","75101","","577","","","75","74","","","2","74","training","adjacent","FE","6","5","R.jpg","Q.jpg","1","0","0","",""
"","feedback","","html-keyboard-response","489","8003324","0.0-1.0-672.0-0.0","0","0","75101","","null","","","null","74","","","","","","","","","","","","","","","",""
"","time_out","","html-keyboard-response","490","8005327","0.0-1.0-674.0-0.0","0","0","75101","","null","","","null","74","","","","","","","","","","","","","","","",""
"","ITI","","html-keyboard-response","491","8006331","0.0-1.0-675.0","0","0","75101","","null","","","null","74","","","","","","","","","","","","","","","NaN",""
"","S1","","html-keyboard-response","492","8006619","0.0-1.0-677.0","0","0","75101","","null","","","null","75","","","","","","","","","","","","","","","",""
"","ISI","","html-keyboard-response","493","8008677","0.0-1.0-678.0","0","0","75101","","null","","","null","75","NaN","","","","","","","","","","","","","","",""
"","S2","","html-keyboard-response","494","8008994","0.0-1.0-679.0","0","0","75101","","null","","","null","75","","NaN","","","","","","","","","","","","","",""
"","response","","html-keyboard-response","495","8009482","0.0-1.0-680.0","0","0","75101","","483","","","75","75","","","2","75","training","adjacent","CD","3","4","M.jpg","P.jpg","1","1","1","",""
"","feedback","","html-keyboard-response","496","8010489","0.0-1.0-681.0-0.0","0","0","75101","","null","","","null","75","","","","","","","","","","","","","","","",""
"","ITI","","html-keyboard-response","497","8011492","0.0-1.0-684.0","0","0","75101","","null","","","null","75","","","","","","","","","","","","","","","NaN",""
"","S1","","html-keyboard-response","498","8011748","0.0-1.0-686.0","0","0","75101","","null","","","null","76","","","","","","","","","","","","","","","",""
"","ISI","","html-keyboard-response","499","8013751","0.0-1.0-687.0","0","0","75101","","null","","","null","76","NaN","","","","","","","","","","","","","","",""
"","S2","","html-keyboard-response","500","8014004","0.0-1.0-688.0","0","0","75101","","null","","","null","76","","NaN","","","","","","","","","","","","","",""
"","response","","html-keyboard-response","501","8014468","0.0-1.0-689.0","0","0","75101","","459","","","75","76","","","2","76","training","adjacent","ED","5","4","Q.jpg","P.jpg","1","0","0","",""
"","feedback","","html-keyboard-response","502","8015471","0.0-1.0-690.0-0.0","0","0","75101","","null","","","null","76","","","","","","","","","","","","","","","",""
"","time_out","","html-keyboard-response","503","8017474","0.0-1.0-692.0-0.0","0","0","75101","","null","","","null","76","","","","","","","","","","","","","","","",""
"","ITI","","html-keyboard-response","504","8018477","0.0-1.0-693.0","0","0","75101","","null","","","null","76","","","","","","","","","","","","","","","NaN",""
"","S1","","html-keyboard-response","505","8018775","0.0-1.0-695.0","0","0","75101","","null","","","null","77","","","","","","","","","","","","","","","",""
"","ISI","","html-keyboard-response","506","8020875","0.0-1.0-696.0","0","0","75101","","null","","","null","77","NaN","","","","","","","","","","","","","","",""
"","S2","","html-keyboard-response","507","8021133","0.0-1.0-697.0","0","0","75101","","null","","","null","77","","NaN","","","","","","","","","","","","","",""
"","response","","html-keyboard-response","508","8021510","0.0-1.0-698.0","0","0","75101","","374","","","75","77","","","2","77","training","adjacent","EF","5","6","Q.jpg","R.jpg","1","1","1","",""
"","feedback","","html-keyboard-response","509","8022603","0.0-1.0-699.0-0.0","0","0","75101","","null","","","null","77","","","","","","","","","","","","","","","",""
"","ITI","","html-keyboard-response","510","8023608","0.0-1.0-702.0","0","0","75101","","null","","","null","77","","","","","","","","","","","","","","","NaN",""
"","S1","","html-keyboard-response","511","8023864","0.0-1.0-704.0","0","0","75101","","null","","","null","78","","","","","","","","","","","","","","","",""
"","ISI","","html-keyboard-response","512","8025869","0.0-1.0-705.0","0","0","75101","","null","","","null","78","NaN","","","","","","","","","","","","","","",""
"","S2","","html-keyboard-response","513","8026122","0.0-1.0-706.0","0","0","75101","","null","","","null","78","","NaN","","","","","","","","","","","","","",""
"","response","","html-keyboard-response","514","8026872","0.0-1.0-707.0","0","0","75101","","747","","","68","78","","","2","78","training","adjacent","CB","3","2","M.jpg","L.jpg","0","0","1","",""
"","feedback","","html-keyboard-response","515","8027879","0.0-1.0-708.0-0.0","0","0","75101","","null","","","null","78","","","","","","","","","","","","","","","",""
"","ITI","","html-keyboard-response","516","8028882","0.0-1.0-711.0","0","0","75101","","null","","","null","78","","","","","","","","","","","","","","","NaN",""
"","S1","","html-keyboard-response","517","8029160","0.0-1.0-713.0","0","0","75101","","null","","","null","79","","","","","","","","","","","","","","","",""
"","ISI","","html-keyboard-response","518","8031206","0.0-1.0-714.0","0","0","75101","","null","","","null","79","NaN","","","","","","","","","","","","","","",""
"","S2","","html-keyboard-response","519","8031459","0.0-1.0-715.0","0","0","75101","","null","","","null","79","","NaN","","","","","","","","","","","","","",""
"","response","","html-keyboard-response","520","8032306","0.0-1.0-716.0","0","0","75101","","844","","","75","79","","","2","79","training","adjacent","EF","5","6","Q.jpg","R.jpg","1","1","1","",""
"","feedback","","html-keyboard-response","521","8033311","0.0-1.0-717.0-0.0","0","0","75101","","null","","","null","79","","","","","","","","","","","","","","","",""
"","ITI","","html-keyboard-response","522","8034314","0.0-1.0-720.0","0","0","75101","","null","","","null","79","","","","","","","","","","","","","","","NaN",""
"","S1","","html-keyboard-response","523","8034741","0.0-1.0-722.0","0","0","75101","","null","","","null","80","","","","","","","","","","","","","","","",""
"","ISI","","html-keyboard-response","524","8036759","0.0-1.0-723.0","0","0","75101","","null","","","null","80","NaN","","","","","","","","","","","","","","",""
"","S2","","html-keyboard-response","525","8037021","0.0-1.0-724.0","0","0","75101","","null","","","null","80","","NaN","","","","","","","","","","","","","",""
"","response","","html-keyboard-response","526","8037536","0.0-1.0-725.0","0","0","75101","","512","","","75","80","","","2","80","training","adjacent","AB","1","2","N.jpg","L.jpg","1","1","1","",""
"","feedback","","html-keyboard-response","527","8038539","0.0-1.0-726.0-0.0","0","0","75101","","null","","","null","80","","","","","","","","","","","","","","","",""
"","ITI","","html-keyboard-response","528","8039542","0.0-1.0-729.0","0","0","75101","","null","","","null","80","","","","","","","","","","","","","","","NaN",""
"","S1","","html-keyboard-response","529","8039796","0.0-1.0-731.0","0","0","75101","","null","","","null","81","","","","","","","","","","","","","","","",""
"","ISI","","html-keyboard-response","530","8041798","0.0-1.0-732.0","0","0","75101","","null","","","null","81","NaN","","","","","","","","","","","","","","",""
"","S2","","html-keyboard-response","531","8042052","0.0-1.0-733.0","0","0","75101","","null","","","null","81","","NaN","","","","","","","","","","","","","",""
"","response","","html-keyboard-response","532","8042424","0.0-1.0-734.0","0","0","75101","","369","","","75","81","","","2","81","training","adjacent","ED","5","4","Q.jpg","P.jpg","1","0","0","",""
"","feedback","","html-keyboard-response","533","8043428","0.0-1.0-735.0-0.0","0","0","75101","","null","","","null","81","","","","","","","","","","","","","","","",""
"","time_out","","html-keyboard-response","534","8045445","0.0-1.0-737.0-0.0","0","0","75101","","null","","","null","81","","","","","","","","","","","","","","","",""
"","ITI","","html-keyboard-response","535","8046462","0.0-1.0-738.0","0","0","75101","","null","","","null","81","","","","","","","","","","","","","","","NaN",""
"","S1","","html-keyboard-response","536","8046815","0.0-1.0-740.0","0","0","75101","","null","","","null","82","","","","","","","","","","","","","","","",""
"","ISI","","html-keyboard-response","537","8048818","0.0-1.0-741.0","0","0","75101","","null","","","null","82","NaN","","","","","","","","","","","","","","",""
"","S2","","html-keyboard-response","538","8049071","0.0-1.0-742.0","0","0","75101","","null","","","null","82","","NaN","","","","","","","","","","","","","",""
"","response","","html-keyboard-response","539","8049417","0.0-1.0-743.0","0","0","75101","","343","","","75","82","","","2","82","training","adjacent","AB","1","2","N.jpg","L.jpg","1","1","1","",""
"","feedback","","html-keyboard-response","540","8050421","0.0-1.0-744.0-0.0","0","0","75101","","null","","","null","82","","","","","","","","","","","","","","","",""
"","ITI","","html-keyboard-response","541","8051432","0.0-1.0-747.0","0","0","75101","","null","","","null","82","","","","","","","","","","","","","","","NaN",""
"","S1","","html-keyboard-response","542","8051689","0.0-1.0-749.0","0","0","75101","","null","","","null","83","","","","","","","","","","","","","","","",""
"","ISI","","html-keyboard-response","543","8053692","0.0-1.0-750.0","0","0","75101","","null","","","null","83","NaN","","","","","","","","","","","","","","",""
"","S2","","html-keyboard-response","544","8053945","0.0-1.0-751.0","0","0","75101","","null","","","null","83","","NaN","","","","","","","","","","","","","",""
"","response","","html-keyboard-response","545","8054238","0.0-1.0-752.0","0","0","75101","","289","","","68","83","","","2","83","training","adjacent","CB","3","2","M.jpg","L.jpg","0","0","1","",""
"","feedback","","html-keyboard-response","546","8055243","0.0-1.0-753.0-0.0","0","0","75101","","null","","","null","83","","","","","","","","","","","","","","","",""
"","ITI","","html-keyboard-response","547","8056247","0.0-1.0-756.0","0","0","75101","","null","","","null","83","","","","","","","","","","","","","","","NaN",""
"","S1","","html-keyboard-response","548","8056572","0.0-1.0-758.0","0","0","75101","","null","","","null","84","","","","","","","","","","","","","","","",""
"","ISI","","html-keyboard-response","549","8058759","0.0-1.0-759.0","0","0","75101","","null","","","null","84","NaN","","","","","","","","","","","","","","",""
"","S2","","html-keyboard-response","550","8059100","0.0-1.0-760.0","0","0","75101","","null","","","null","84","","NaN","","","","","","","","","","","","","",""
"","response","","html-keyboard-response","551","8059762","0.0-1.0-761.0","0","0","75101","","660","","","68","84","","","2","84","training","adjacent","DE","4","5","P.jpg","Q.jpg","0","1","0","",""
"","feedback","","html-keyboard-response","552","8060774","0.0-1.0-762.0-0.0","0","0","75101","","null","","","null","84","","","","","","","","","","","","","","","",""
"","time_out","","html-keyboard-response","553","8062777","0.0-1.0-764.0-0.0","0","0","75101","","null","","","null","84","","","","","","","","","","","","","","","",""
"","ITI","","html-keyboard-response","554","8063780","0.0-1.0-765.0","0","0","75101","","null","","","null","84","","","","","","","","","","","","","","","NaN",""
"","S1","","html-keyboard-response","555","8064033","0.0-1.0-767.0","0","0","75101","","null","","","null","85","","","","","","","","","","","","","","","",""
"","ISI","","html-keyboard-response","556","8066040","0.0-1.0-768.0","0","0","75101","","null","","","null","85","NaN","","","","","","","","","","","","","","",""
"","S2","","html-keyboard-response","557","8066296","0.0-1.0-769.0","0","0","75101","","null","","","null","85","","NaN","","","","","","","","","","","","","",""
"","response","","html-keyboard-response","558","8066612","0.0-1.0-770.0","0","0","75101","","313","","","75","85","","","2","85","training","adjacent","GF","7","6","O.jpg","R.jpg","1","0","0","",""
"","feedback","","html-keyboard-response","559","8067618","0.0-1.0-771.0-0.0","0","0","75101","","null","","","null","85","","","","","","","","","","","","","","","",""
"","time_out","","html-keyboard-response","560","8069622","0.0-1.0-773.0-0.0","0","0","75101","","null","","","null","85","","","","","","","","","","","","","","","",""
"","ITI","","html-keyboard-response","561","8070801","0.0-1.0-774.0","0","0","75101","","null","","","null","85","","","","","","","","","","","","","","","NaN",""
"","S1","","html-keyboard-response","562","8071056","0.0-1.0-776.0","0","0","75101","","null","","","null","86","","","","","","","","","","","","","","","",""
"","ISI","","html-keyboard-response","563","8073081","0.0-1.0-777.0","0","0","75101","","null","","","null","86","NaN","","","","","","","","","","","","","","",""
"","S2","","html-keyboard-response","564","8073334","0.0-1.0-778.0","0","0","75101","","null","","","null","86","","NaN","","","","","","","","","","","","","",""
"","response","","html-keyboard-response","565","8074143","0.0-1.0-779.0","0","0","75101","","802","","","68","86","","","2","86","training","adjacent","FE","6","5","R.jpg","Q.jpg","0","0","1","",""
"","feedback","","html-keyboard-response","566","8075146","0.0-1.0-780.0-0.0","0","0","75101","","null","","","null","86","","","","","","","","","","","","","","","",""
"","ITI","","html-keyboard-response","567","8076149","0.0-1.0-783.0","0","0","75101","","null","","","null","86","","","","","","","","","","","","","","","NaN",""
"","S1","","html-keyboard-response","568","8076406","0.0-1.0-785.0","0","0","75101","","null","","","null","87","","","","","","","","","","","","","","","",""
"","ISI","","html-keyboard-response","569","8078464","0.0-1.0-786.0","0","0","75101","","null","","","null","87","NaN","","","","","","","","","","","","","","",""
"","S2","","html-keyboard-response","570","8078717","0.0-1.0-787.0","0","0","75101","","null","","","null","87","","NaN","","","","","","","","","","","","","",""
"","response","","html-keyboard-response","571","8080115","0.0-1.0-788.0","0","0","75101","","1395","","","68","87","","","2","87","training","adjacent","BA","2","1","L.jpg","N.jpg","0","0","1","",""
"","feedback","","html-keyboard-response","572","8081121","0.0-1.0-789.0-0.0","0","0","75101","","null","","","null","87","","","","","","","","","","","","","","","",""
"","ITI","","html-keyboard-response","573","8082124","0.0-1.0-792.0","0","0","75101","","null","","","null","87","","","","","","","","","","","","","","","NaN",""
"","S1","","html-keyboard-response","574","8082377","0.0-1.0-794.0","0","0","75101","","null","","","null","88","","","","","","","","","","","","","","","",""
"","ISI","","html-keyboard-response","575","8084468","0.0-1.0-795.0","0","0","75101","","null","","","null","88","NaN","","","","","","","","","","","","","","",""
"","S2","","html-keyboard-response","576","8084721","0.0-1.0-796.0","0","0","75101","","null","","","null","88","","NaN","","","","","","","","","","","","","",""
"","response","","html-keyboard-response","577","8085155","0.0-1.0-797.0","0","0","75101","","430","","","68","88","","","2","88","training","adjacent","ED","5","4","Q.jpg","P.jpg","0","0","1","",""
"","feedback","","html-keyboard-response","578","8086157","0.0-1.0-798.0-0.0","0","0","75101","","null","","","null","88","","","","","","","","","","","","","","","",""
"","ITI","","html-keyboard-response","579","8087160","0.0-1.0-801.0","0","0","75101","","null","","","null","88","","","","","","","","","","","","","","","NaN",""
