"success","ttype","start_time","trial_type","trial_index","time_elapsed","internal_node_id","warning","missed_checkup","PID","view_history","rt","responses","repeat_instructions","key_press","index","keypress_isi","keypress_S2","block","trial_num","phase","group_type","pair_type","S1_stim","S2_stim","S1_img","S2_img","S1_chosen","S1_higher","accuracy","keypress_iti","total_bonus_tally"
"true","full_screen","d03082023hr1612","fullscreen","0","18582","0.0-0.0","0","0","20035","","","","","","","","","","","","","","","","","","","","","",""
"","instructions","","instructions","1","69292","0.0-1.0-0.0-0.0","0","0","20035","[{""page_index"":0,""viewing_time"":6716},{""page_index"":1,""viewing_time"":31049},{""page_index"":2,""viewing_time"":10958},{""page_index"":3,""viewing_time"":1985}]","50708","","","","","","","","","","","","","","","","","","","",""
"","comprehension_check","","survey-multi-choice","2","95684","0.0-1.0-0.0-1.0","0","0","20035","","26389","{""Q0"":""True"",""Q1"":""K"",""Q2"":""Once the second image appears and while the screen 'MAKE A CHOICE' is shown"",""Q3"":""Green mark"",""Q4"":""either D or K""}","0","","","","","","","","","","","","","","","","","",""
"","start_exp","","html-keyboard-response","3","98721","0.0-1.0-1.0","0","0","20035","","3035","","","32","","","","","","","","","","","","","","","","",""
"","S1","","html-keyboard-response","4","98975","0.0-1.0-2.0","0","0","20035","","null","","","null","0","","","","","","","","","","","","","","","",""
"","ISI","","html-keyboard-response","5","99128","0.0-1.0-3.0","0","0","20035","","null","","","null","0","NaN","","","","","","","","","","","","","","",""
"","S2","","html-keyboard-response","6","99381","0.0-1.0-4.0","0","0","20035","","null","","","null","0","","NaN","","","","","","","","","","","","","",""
"","response","","html-keyboard-response","7","100732","0.0-1.0-5.0-0.0","0","0","20035","","1349","","","75","0","","","1","0","training","adjacent","FE","6","5","O.jpg","Q.jpg","1","0","0","",""
"","feedback","","html-keyboard-response","8","101736","0.0-1.0-6.0-0.0","0","0","20035","","null","","","null","0","","","","","","","","","","","","","","","",""
"","time_out","","html-keyboard-response","9","103738","0.0-1.0-8.0-0.0","0","0","20035","","null","","","null","0","","","","","","","","","","","","","","","",""
"","ITI","","html-keyboard-response","10","104741","0.0-1.0-9.0","0","0","20035","","null","","","null","0","","","","","","","","","","","","","","","NaN",""
"","S1","","html-keyboard-response","11","104994","0.0-1.0-11.0","0","0","20035","","null","","","null","1","","","","","","","","","","","","","","","",""
"","ISI","","html-keyboard-response","12","105147","0.0-1.0-12.0","0","0","20035","","null","","","null","1","NaN","","","","","","","","","","","","","","",""
"","S2","","html-keyboard-response","13","105400","0.0-1.0-13.0","0","0","20035","","null","","","null","1","","NaN","","","","","","","","","","","","","",""
"","response","","html-keyboard-response","14","105884","0.0-1.0-14.0-0.0","0","0","20035","","482","","","68","1","","","1","1","training","adjacent","FE","6","5","O.jpg","Q.jpg","0","0","1","",""
"","feedback","","html-keyboard-response","15","106887","0.0-1.0-15.0-0.0","0","0","20035","","null","","","null","1","","","","","","","","","","","","","","","",""
"","ITI","","html-keyboard-response","16","107890","0.0-1.0-18.0","0","0","20035","","null","","","null","1","","","","","","","","","","","","","","","NaN",""
"","S1","","html-keyboard-response","17","108143","0.0-1.0-20.0","0","0","20035","","null","","","null","2","","","","","","","","","","","","","","","",""
"","ISI","","html-keyboard-response","18","108296","0.0-1.0-21.0","0","0","20035","","null","","","null","2","NaN","","","","","","","","","","","","","","",""
"","S2","","html-keyboard-response","19","108549","0.0-1.0-22.0","0","0","20035","","null","","","null","2","","NaN","","","","","","","","","","","","","",""
"","response","","html-keyboard-response","20","109068","0.0-1.0-23.0-0.0","0","0","20035","","518","","","68","2","","","1","2","training","adjacent","BA","2","1","L.jpg","M.jpg","0","0","1","",""
"","feedback","","html-keyboard-response","21","110071","0.0-1.0-24.0-0.0","0","0","20035","","null","","","null","2","","","","","","","","","","","","","","","",""
"","ITI","","html-keyboard-response","22","111073","0.0-1.0-27.0","0","0","20035","","null","","","null","2","","","","","","","","","","","","","","","NaN",""
"","S1","","html-keyboard-response","23","111326","0.0-1.0-29.0","0","0","20035","","null","","","null","3","","","","","","","","","","","","","","","",""
"","ISI","","html-keyboard-response","24","111478","0.0-1.0-30.0","0","0","20035","","null","","","null","3","NaN","","","","","","","","","","","","","","",""
"","S2","","html-keyboard-response","25","111732","0.0-1.0-31.0","0","0","20035","","null","","","null","3","","NaN","","","","","","","","","","","","","",""
"","response","","html-keyboard-response","26","112164","0.0-1.0-32.0-0.0","0","0","20035","","431","","","68","3","","","1","3","training","adjacent","CD","3","4","R.jpg","P.jpg","0","1","0","",""
"","feedback","","html-keyboard-response","27","113167","0.0-1.0-33.0-0.0","0","0","20035","","null","","","null","3","","","","","","","","","","","","","","","",""
"","time_out","","html-keyboard-response","28","115171","0.0-1.0-35.0-0.0","0","0","20035","","null","","","null","3","","","","","","","","","","","","","","","",""
"","ITI","","html-keyboard-response","29","116174","0.0-1.0-36.0","0","0","20035","","null","","","null","3","","","","","","","","","","","","","","","NaN",""
"","S1","","html-keyboard-response","30","116426","0.0-1.0-38.0","0","0","20035","","null","","","null","4","","","","","","","","","","","","","","","",""
"","ISI","","html-keyboard-response","31","116578","0.0-1.0-39.0","0","0","20035","","null","","","null","4","NaN","","","","","","","","","","","","","","",""
"","S2","","html-keyboard-response","32","116831","0.0-1.0-40.0","0","0","20035","","null","","","null","4","","NaN","","","","","","","","","","","","","",""
"","response","","html-keyboard-response","33","117164","0.0-1.0-41.0-0.0","0","0","20035","","332","","","75","4","","","1","4","training","adjacent","GF","7","6","N.jpg","O.jpg","1","0","0","",""
"","feedback","","html-keyboard-response","34","118167","0.0-1.0-42.0-0.0","0","0","20035","","null","","","null","4","","","","","","","","","","","","","","","",""
"","time_out","","html-keyboard-response","35","120170","0.0-1.0-44.0-0.0","0","0","20035","","null","","","null","4","","","","","","","","","","","","","","","",""
"","ITI","","html-keyboard-response","36","121172","0.0-1.0-45.0","0","0","20035","","null","","","null","4","","","","","","","","","","","","","","","NaN",""
"","S1","","html-keyboard-response","37","121425","0.0-1.0-47.0","0","0","20035","","null","","","null","5","","","","","","","","","","","","","","","",""
"","ISI","","html-keyboard-response","38","121577","0.0-1.0-48.0","0","0","20035","","null","","","null","5","NaN","","","","","","","","","","","","","","",""
"","S2","","html-keyboard-response","39","121830","0.0-1.0-49.0","0","0","20035","","null","","","null","5","","NaN","","","","","","","","","","","","","",""
"","response","","html-keyboard-response","40","122148","0.0-1.0-50.0-0.0","0","0","20035","","316","","","68","5","","","1","5","training","adjacent","FE","6","5","O.jpg","Q.jpg","0","0","1","",""
"","feedback","","html-keyboard-response","41","123151","0.0-1.0-51.0-0.0","0","0","20035","","null","","","null","5","","","","","","","","","","","","","","","",""
"","ITI","","html-keyboard-response","42","124153","0.0-1.0-54.0","0","0","20035","","null","","","null","5","","","","","","","","","","","","","","","NaN",""
"","S1","","html-keyboard-response","43","124405","0.0-1.0-56.0","0","0","20035","","null","","","null","6","","","","","","","","","","","","","","","",""
"","ISI","","html-keyboard-response","44","124558","0.0-1.0-57.0","0","0","20035","","null","","","null","6","NaN","","","","","","","","","","","","","","",""
"","S2","","html-keyboard-response","45","124810","0.0-1.0-58.0","0","0","20035","","null","","","null","6","","NaN","","","","","","","","","","","","","",""
"","response","","html-keyboard-response","46","125325","0.0-1.0-59.0-0.0","0","0","20035","","513","","","68","6","","","1","6","training","adjacent","GF","7","6","N.jpg","O.jpg","0","0","1","",""
"","feedback","","html-keyboard-response","47","126327","0.0-1.0-60.0-0.0","0","0","20035","","null","","","null","6","","","","","","","","","","","","","","","",""
"","ITI","","html-keyboard-response","48","127330","0.0-1.0-63.0","0","0","20035","","null","","","null","6","","","","","","","","","","","","","","","NaN",""
"","S1","","html-keyboard-response","49","127583","0.0-1.0-65.0","0","0","20035","","null","","","null","7","","","","","","","","","","","","","","","",""
"","ISI","","html-keyboard-response","50","127735","0.0-1.0-66.0","0","0","20035","","null","","","null","7","NaN","","","","","","","","","","","","","","",""
"","S2","","html-keyboard-response","51","127988","0.0-1.0-67.0","0","0","20035","","null","","","null","7","","NaN","","","","","","","","","","","","","",""
"","response","","html-keyboard-response","52","128317","0.0-1.0-68.0-0.0","0","0","20035","","328","","","75","7","","","1","7","training","adjacent","AB","1","2","M.jpg","L.jpg","1","1","1","",""
"","feedback","","html-keyboard-response","53","129321","0.0-1.0-69.0-0.0","0","0","20035","","null","","","null","7","","","","","","","","","","","","","","","",""
"","ITI","","html-keyboard-response","54","130323","0.0-1.0-72.0","0","0","20035","","null","","","null","7","","","","","","","","","","","","","","","NaN",""
"","S1","","html-keyboard-response","55","130576","0.0-1.0-74.0","0","0","20035","","null","","","null","8","","","","","","","","","","","","","","","",""
"","ISI","","html-keyboard-response","56","130729","0.0-1.0-75.0","0","0","20035","","null","","","null","8","NaN","","","","","","","","","","","","","","",""
"","S2","","html-keyboard-response","57","130982","0.0-1.0-76.0","0","0","20035","","null","","","null","8","","NaN","","","","","","","","","","","","","",""
"","response","","html-keyboard-response","58","131293","0.0-1.0-77.0-0.0","0","0","20035","","309","","","68","8","","","1","8","training","adjacent","GF","7","6","N.jpg","O.jpg","0","0","1","",""
"","feedback","","html-keyboard-response","59","132296","0.0-1.0-78.0-0.0","0","0","20035","","null","","","null","8","","","","","","","","","","","","","","","",""
"","ITI","","html-keyboard-response","60","133298","0.0-1.0-81.0","0","0","20035","","null","","","null","8","","","","","","","","","","","","","","","NaN",""
"","S1","","html-keyboard-response","61","133551","0.0-1.0-83.0","0","0","20035","","null","","","null","9","","","","","","","","","","","","","","","",""
"","ISI","","html-keyboard-response","62","133704","0.0-1.0-84.0","0","0","20035","","null","","","null","9","NaN","","","","","","","","","","","","","","",""
"","S2","","html-keyboard-response","63","133957","0.0-1.0-85.0","0","0","20035","","null","","","null","9","","NaN","","","","","","","","","","","","","",""
"","response","","html-keyboard-response","64","134299","0.0-1.0-86.0-0.0","0","0","20035","","341","","","75","9","","","1","9","training","adjacent","BA","2","1","L.jpg","M.jpg","1","0","0","",""
"","feedback","","html-keyboard-response","65","135302","0.0-1.0-87.0-0.0","0","0","20035","","null","","","null","9","","","","","","","","","","","","","","","",""
"","time_out","","html-keyboard-response","66","137304","0.0-1.0-89.0-0.0","0","0","20035","","null","","","null","9","","","","","","","","","","","","","","","",""
"","ITI","","html-keyboard-response","67","138307","0.0-1.0-90.0","0","0","20035","","null","","","null","9","","","","","","","","","","","","","","","NaN",""
"","S1","","html-keyboard-response","68","138559","0.0-1.0-92.0","0","0","20035","","null","","","null","10","","","","","","","","","","","","","","","",""
"","ISI","","html-keyboard-response","69","138711","0.0-1.0-93.0","0","0","20035","","null","","","null","10","NaN","","","","","","","","","","","","","","",""
"","S2","","html-keyboard-response","70","138964","0.0-1.0-94.0","0","0","20035","","null","","","null","10","","NaN","","","","","","","","","","","","","",""
"","response","","html-keyboard-response","71","139485","0.0-1.0-95.0-0.0","0","0","20035","","519","","","68","10","","","1","10","training","adjacent","EF","5","6","Q.jpg","O.jpg","0","1","0","",""
"","feedback","","html-keyboard-response","72","140488","0.0-1.0-96.0-0.0","0","0","20035","","null","","","null","10","","","","","","","","","","","","","","","",""
"","time_out","","html-keyboard-response","73","142491","0.0-1.0-98.0-0.0","0","0","20035","","null","","","null","10","","","","","","","","","","","","","","","",""
"","ITI","","html-keyboard-response","74","143494","0.0-1.0-99.0","0","0","20035","","null","","","null","10","","","","","","","","","","","","","","","NaN",""
"","S1","","html-keyboard-response","75","143747","0.0-1.0-101.0","0","0","20035","","null","","","null","11","","","","","","","","","","","","","","","",""
"","ISI","","html-keyboard-response","76","143899","0.0-1.0-102.0","0","0","20035","","null","","","null","11","NaN","","","","","","","","","","","","","","",""
"","S2","","html-keyboard-response","77","144151","0.0-1.0-103.0","0","0","20035","","null","","","null","11","","NaN","","","","","","","","","","","","","",""
"","response","","html-keyboard-response","78","144501","0.0-1.0-104.0-0.0","0","0","20035","","348","","","75","11","","","1","11","training","adjacent","ED","5","4","Q.jpg","P.jpg","1","0","0","",""
"","feedback","","html-keyboard-response","79","145504","0.0-1.0-105.0-0.0","0","0","20035","","null","","","null","11","","","","","","","","","","","","","","","",""
"","time_out","","html-keyboard-response","80","147507","0.0-1.0-107.0-0.0","0","0","20035","","null","","","null","11","","","","","","","","","","","","","","","",""
"","ITI","","html-keyboard-response","81","148509","0.0-1.0-108.0","0","0","20035","","null","","","null","11","","","","","","","","","","","","","","","NaN",""
"","S1","","html-keyboard-response","82","148762","0.0-1.0-110.0","0","0","20035","","null","","","null","12","","","","","","","","","","","","","","","",""
"","ISI","","html-keyboard-response","83","148916","0.0-1.0-111.0","0","0","20035","","null","","","null","12","NaN","","","","","","","","","","","","","","",""
"","S2","","html-keyboard-response","84","149168","0.0-1.0-112.0","0","0","20035","","null","","","null","12","","NaN","","","","","","","","","","","","","",""
"","response","","html-keyboard-response","85","149404","0.0-1.0-113.0-0.0","0","0","20035","","235","","","68","12","","","1","12","training","adjacent","DE","4","5","P.jpg","Q.jpg","0","1","0","",""
"","feedback","","html-keyboard-response","86","150407","0.0-1.0-114.0-0.0","0","0","20035","","null","","","null","12","","","","","","","","","","","","","","","",""
"","time_out","","html-keyboard-response","87","152411","0.0-1.0-116.0-0.0","0","0","20035","","null","","","null","12","","","","","","","","","","","","","","","",""
"","ITI","","html-keyboard-response","88","153413","0.0-1.0-117.0","0","0","20035","","null","","","null","12","","","","","","","","","","","","","","","NaN",""
"","S1","","html-keyboard-response","89","153666","0.0-1.0-119.0","0","0","20035","","null","","","null","13","","","","","","","","","","","","","","","",""
"","ISI","","html-keyboard-response","90","153818","0.0-1.0-120.0","0","0","20035","","null","","","null","13","NaN","","","","","","","","","","","","","","",""
"","S2","","html-keyboard-response","91","154071","0.0-1.0-121.0","0","0","20035","","null","","","null","13","","NaN","","","","","","","","","","","","","",""
"","response","","html-keyboard-response","92","154317","0.0-1.0-122.0-0.0","0","0","20035","","244","","","75","13","","","1","13","training","adjacent","AB","1","2","M.jpg","L.jpg","1","1","1","",""
"","feedback","","html-keyboard-response","93","155320","0.0-1.0-123.0-0.0","0","0","20035","","null","","","null","13","","","","","","","","","","","","","","","",""
"","ITI","","html-keyboard-response","94","156323","0.0-1.0-126.0","0","0","20035","","null","","","null","13","","","","","","","","","","","","","","","NaN",""
"","S1","","html-keyboard-response","95","156576","0.0-1.0-128.0","0","0","20035","","null","","","null","14","","","","","","","","","","","","","","","",""
"","ISI","","html-keyboard-response","96","156728","0.0-1.0-129.0","0","0","20035","","null","","","null","14","NaN","","","","","","","","","","","","","","",""
"","S2","","html-keyboard-response","97","156981","0.0-1.0-130.0","0","0","20035","","null","","","null","14","","NaN","","","","","","","","","","","","","",""
"","response","","html-keyboard-response","98","157205","0.0-1.0-131.0-0.0","0","0","20035","","222","","","68","14","","","1","14","training","adjacent","FG","6","7","O.jpg","N.jpg","0","1","0","",""
"","feedback","","html-keyboard-response","99","158208","0.0-1.0-132.0-0.0","0","0","20035","","null","","","null","14","","","","","","","","","","","","","","","",""
"","time_out","","html-keyboard-response","100","160211","0.0-1.0-134.0-0.0","0","0","20035","","null","","","null","14","","","","","","","","","","","","","","","",""
"","ITI","","html-keyboard-response","101","161213","0.0-1.0-135.0","0","0","20035","","null","","","null","14","","","","","","","","","","","","","","","NaN",""
"","S1","","html-keyboard-response","102","161466","0.0-1.0-137.0","0","0","20035","","null","","","null","15","","","","","","","","","","","","","","","",""
"","ISI","","html-keyboard-response","103","161617","0.0-1.0-138.0","0","0","20035","","null","","","null","15","NaN","","","","","","","","","","","","","","",""
"","S2","","html-keyboard-response","104","161871","0.0-1.0-139.0","0","0","20035","","null","","","null","15","","NaN","","","","","","","","","","","","","",""
"","response","","html-keyboard-response","105","161877","0.0-1.0-140.0-0.0","0","0","20035","","5","","","75","15","","","1","15","training","adjacent","DC","4","3","P.jpg","R.jpg","1","0","0","",""
"","feedback","","html-keyboard-response","106","162879","0.0-1.0-141.0-0.0","0","0","20035","","null","","","null","15","","","","","","","","","","","","","","","",""
"","time_out","","html-keyboard-response","107","164881","0.0-1.0-143.0-0.0","0","0","20035","","null","","","null","15","","","","","","","","","","","","","","","",""
"","ITI","","html-keyboard-response","108","165884","0.0-1.0-144.0","0","0","20035","","null","","","null","15","","","","","","","","","","","","","","","NaN",""
"","S1","","html-keyboard-response","109","166136","0.0-1.0-146.0","0","0","20035","","null","","","null","16","","","","","","","","","","","","","","","",""
"","ISI","","html-keyboard-response","110","166288","0.0-1.0-147.0","0","0","20035","","null","","","null","16","NaN","","","","","","","","","","","","","","",""
"","S2","","html-keyboard-response","111","166541","0.0-1.0-148.0","0","0","20035","","null","","","null","16","","NaN","","","","","","","","","","","","","",""
"","response","","html-keyboard-response","112","166621","0.0-1.0-149.0-0.0","0","0","20035","","78","","","68","16","","","1","16","training","adjacent","CB","3","2","R.jpg","L.jpg","0","0","1","",""
"","feedback","","html-keyboard-response","113","167624","0.0-1.0-150.0-0.0","0","0","20035","","null","","","null","16","","","","","","","","","","","","","","","",""
"","ITI","","html-keyboard-response","114","168626","0.0-1.0-153.0","0","0","20035","","null","","","null","16","","","","","","","","","","","","","","","NaN",""
"","S1","","html-keyboard-response","115","168878","0.0-1.0-155.0","0","0","20035","","null","","","null","17","","","","","","","","","","","","","","","",""
"","ISI","","html-keyboard-response","116","169031","0.0-1.0-156.0","0","0","20035","","null","","","null","17","NaN","","","","","","","","","","","","","","",""
"","S2","","html-keyboard-response","117","169293","0.0-1.0-157.0","0","0","20035","","null","","","null","17","","NaN","","","","","","","","","","","","","",""
"","response","","html-keyboard-response","118","169380","0.0-1.0-158.0-0.0","0","0","20035","","86","","","68","17","","","1","17","training","adjacent","CD","3","4","R.jpg","P.jpg","0","1","0","",""
"","feedback","","html-keyboard-response","119","170383","0.0-1.0-159.0-0.0","0","0","20035","","null","","","null","17","","","","","","","","","","","","","","","",""
"","time_out","","html-keyboard-response","120","172386","0.0-1.0-161.0-0.0","0","0","20035","","null","","","null","17","","","","","","","","","","","","","","","",""
"","ITI","","html-keyboard-response","121","173388","0.0-1.0-162.0","0","0","20035","","null","","","null","17","","","","","","","","","","","","","","","NaN",""
"","S1","","html-keyboard-response","122","173641","0.0-1.0-164.0","0","0","20035","","null","","","null","18","","","","","","","","","","","","","","","",""
"","ISI","","html-keyboard-response","123","173793","0.0-1.0-165.0","0","0","20035","","null","","","null","18","NaN","","","","","","","","","","","","","","",""
"","S2","","html-keyboard-response","124","174046","0.0-1.0-166.0","0","0","20035","","null","","","null","18","","NaN","","","","","","","","","","","","","",""
"","response","","html-keyboard-response","125","174165","0.0-1.0-167.0-0.0","0","0","20035","","117","","","68","18","","","1","18","training","adjacent","ED","5","4","Q.jpg","P.jpg","0","0","1","",""
"","feedback","","html-keyboard-response","126","175167","0.0-1.0-168.0-0.0","0","0","20035","","null","","","null","18","","","","","","","","","","","","","","","",""
"","ITI","","html-keyboard-response","127","176170","0.0-1.0-171.0","0","0","20035","","null","","","null","18","","","","","","","","","","","","","","","NaN",""
"","S1","","html-keyboard-response","128","176423","0.0-1.0-173.0","0","0","20035","","null","","","null","19","","","","","","","","","","","","","","","",""
"","ISI","","html-keyboard-response","129","176575","0.0-1.0-174.0","0","0","20035","","null","","","null","19","NaN","","","","","","","","","","","","","","",""
"","S2","","html-keyboard-response","130","176830","0.0-1.0-175.0","0","0","20035","","null","","","null","19","","NaN","","","","","","","","","","","","","",""
"","response","","html-keyboard-response","131","176876","0.0-1.0-176.0-0.0","0","0","20035","","45","","","75","19","","","1","19","training","adjacent","EF","5","6","Q.jpg","O.jpg","1","1","1","",""
"","feedback","","html-keyboard-response","132","177879","0.0-1.0-177.0-0.0","0","0","20035","","null","","","null","19","","","","","","","","","","","","","","","",""
"","ITI","","html-keyboard-response","133","178881","0.0-1.0-180.0","0","0","20035","","null","","","null","19","","","","","","","","","","","","","","","NaN",""
"","S1","","html-keyboard-response","134","179134","0.0-1.0-182.0","0","0","20035","","null","","","null","20","","","","","","","","","","","","","","","",""
"","ISI","","html-keyboard-response","135","179286","0.0-1.0-183.0","0","0","20035","","null","","","null","20","NaN","","","","","","","","","","","","","","",""
"","S2","","html-keyboard-response","136","179539","0.0-1.0-184.0","0","0","20035","","null","","","null","20","","NaN","","","","","","","","","","","","","",""
"","response","","html-keyboard-response","137","179653","0.0-1.0-185.0-0.0","0","0","20035","","113","","","68","20","","","1","20","training","adjacent","DC","4","3","P.jpg","R.jpg","0","0","1","",""
"","feedback","","html-keyboard-response","138","180657","0.0-1.0-186.0-0.0","0","0","20035","","null","","","null","20","","","","","","","","","","","","","","","",""
"","ITI","","html-keyboard-response","139","181661","0.0-1.0-189.0","0","0","20035","","null","","","null","20","","","","","","","","","","","","","","","NaN",""
"","S1","","html-keyboard-response","140","181913","0.0-1.0-191.0","0","0","20035","","null","","","null","21","","","","","","","","","","","","","","","",""
"","ISI","","html-keyboard-response","141","182066","0.0-1.0-192.0","0","0","20035","","null","","","null","21","NaN","","","","","","","","","","","","","","",""
"","S2","","html-keyboard-response","142","182319","0.0-1.0-193.0","0","0","20035","","null","","","null","21","","NaN","","","","","","","","","","","","","",""
"","response","","html-keyboard-response","143","182461","0.0-1.0-194.0-0.0","0","0","20035","","140","","","75","21","","","1","21","training","adjacent","FE","6","5","O.jpg","Q.jpg","1","0","0","",""
"","feedback","","html-keyboard-response","144","183463","0.0-1.0-195.0-0.0","0","0","20035","","null","","","null","21","","","","","","","","","","","","","","","",""
"","time_out","","html-keyboard-response","145","185465","0.0-1.0-197.0-0.0","0","0","20035","","null","","","null","21","","","","","","","","","","","","","","","",""
"","ITI","","html-keyboard-response","146","186468","0.0-1.0-198.0","0","0","20035","","null","","","null","21","","","","","","","","","","","","","","","NaN",""
"","S1","","html-keyboard-response","147","186720","0.0-1.0-200.0","0","0","20035","","null","","","null","22","","","","","","","","","","","","","","","",""
"","ISI","","html-keyboard-response","148","186873","0.0-1.0-201.0","0","0","20035","","null","","","null","22","NaN","","","","","","","","","","","","","","",""
"","S2","","html-keyboard-response","149","187126","0.0-1.0-202.0","0","0","20035","","null","","","null","22","","NaN","","","","","","","","","","","","","",""
"","response","","html-keyboard-response","150","187148","0.0-1.0-203.0-0.0","0","0","20035","","21","","","75","22","","","1","22","training","adjacent","AB","1","2","M.jpg","L.jpg","1","1","1","",""
"","feedback","","html-keyboard-response","151","188151","0.0-1.0-204.0-0.0","0","0","20035","","null","","","null","22","","","","","","","","","","","","","","","",""
"","ITI","","html-keyboard-response","152","189154","0.0-1.0-207.0","0","0","20035","","null","","","null","22","","","","","","","","","","","","","","","NaN",""
"","S1","","html-keyboard-response","153","189407","0.0-1.0-209.0","0","0","20035","","null","","","null","23","","","","","","","","","","","","","","","",""
"","ISI","","html-keyboard-response","154","189559","0.0-1.0-210.0","0","0","20035","","null","","","null","23","NaN","","","","","","","","","","","","","","",""
"","S2","","html-keyboard-response","155","189797","0.0-1.0-211.0","0","0","20035","","235","","","68","23","","d","1","23","training","adjacent","CD","3","4","R.jpg","P.jpg","0","1","0","",""
"","feedback","","html-keyboard-response","156","190800","0.0-1.0-213.0-0.0","0","0","20035","","null","","","null","23","","","","","","","","","","","","","","","",""
"","time_out","","html-keyboard-response","157","192802","0.0-1.0-215.0-0.0","0","0","20035","","null","","","null","23","","","","","","","","","","","","","","","",""
"","ITI","","html-keyboard-response","158","193804","0.0-1.0-216.0","0","0","20035","","null","","","null","23","","","","","","","","","","","","","","","NaN",""
"","S1","","html-keyboard-response","159","194057","0.0-1.0-218.0","0","0","20035","","null","","","null","24","","","","","","","","","","","","","","","",""
"","ISI","","html-keyboard-response","160","194210","0.0-1.0-219.0","0","0","20035","","null","","","null","24","NaN","","","","","","","","","","","","","","",""
"","S2","","html-keyboard-response","161","194463","0.0-1.0-220.0","0","0","20035","","null","","","null","24","","NaN","","","","","","","","","","","","","",""
"","response","","html-keyboard-response","162","194476","0.0-1.0-221.0-0.0","0","0","20035","","11","","","75","24","","","1","24","training","adjacent","BC","2","3","L.jpg","R.jpg","1","1","1","",""
"","feedback","","html-keyboard-response","163","195478","0.0-1.0-222.0-0.0","0","0","20035","","null","","","null","24","","","","","","","","","","","","","","","",""
"","ITI","","html-keyboard-response","164","196482","0.0-1.0-225.0","0","0","20035","","null","","","null","24","","","","","","","","","","","","","","","NaN",""
"","S1","","html-keyboard-response","165","196736","0.0-1.0-227.0","0","0","20035","","null","","","null","25","","","","","","","","","","","","","","","",""
"","ISI","","html-keyboard-response","166","196889","0.0-1.0-228.0","0","0","20035","","null","","","null","25","NaN","","","","","","","","","","","","","","",""
"","S2","","html-keyboard-response","167","197141","0.0-1.0-229.0","0","0","20035","","null","","","null","25","","NaN","","","","","","","","","","","","","",""
"","response","","html-keyboard-response","168","197165","0.0-1.0-230.0-0.0","0","0","20035","","21","","","68","25","","","1","25","training","adjacent","FG","6","7","O.jpg","N.jpg","0","1","0","",""
"","feedback","","html-keyboard-response","169","198168","0.0-1.0-231.0-0.0","0","0","20035","","null","","","null","25","","","","","","","","","","","","","","","",""
"","time_out","","html-keyboard-response","170","200171","0.0-1.0-233.0-0.0","0","0","20035","","null","","","null","25","","","","","","","","","","","","","","","",""
"","ITI","","html-keyboard-response","171","201173","0.0-1.0-234.0","0","0","20035","","null","","","null","25","","","","","","","","","","","","","","","NaN",""
"","S1","","html-keyboard-response","172","201426","0.0-1.0-236.0","0","0","20035","","null","","","null","26","","","","","","","","","","","","","","","",""
"","ISI","","html-keyboard-response","173","201578","0.0-1.0-237.0","0","0","20035","","null","","","null","26","NaN","","","","","","","","","","","","","","",""
"","S2","","html-keyboard-response","174","201831","0.0-1.0-238.0","0","0","20035","","null","","","null","26","","NaN","","","","","","","","","","","","","",""
"","response","","html-keyboard-response","175","201853","0.0-1.0-239.0-0.0","0","0","20035","","20","","","68","26","","","1","26","training","adjacent","BA","2","1","L.jpg","M.jpg","0","0","1","",""
"","feedback","","html-keyboard-response","176","202857","0.0-1.0-240.0-0.0","0","0","20035","","null","","","null","26","","","","","","","","","","","","","","","",""
"","ITI","","html-keyboard-response","177","203861","0.0-1.0-243.0","0","0","20035","","null","","","null","26","","","","","","","","","","","","","","","NaN",""
"","S1","","html-keyboard-response","178","204113","0.0-1.0-245.0","0","0","20035","","null","","","null","27","","","","","","","","","","","","","","","",""
"","ISI","","html-keyboard-response","179","204265","0.0-1.0-246.0","0","0","20035","","null","","","null","27","NaN","","","","","","","","","","","","","","",""
"","S2","","html-keyboard-response","180","204501","0.0-1.0-247.0","0","0","20035","","233","","","75","27","","k","1","27","training","adjacent","ED","5","4","Q.jpg","P.jpg","1","0","0","",""
"","feedback","","html-keyboard-response","181","205504","0.0-1.0-249.0-0.0","0","0","20035","","null","","","null","27","","","","","","","","","","","","","","","",""
"","time_out","","html-keyboard-response","182","207507","0.0-1.0-251.0-0.0","0","0","20035","","null","","","null","27","","","","","","","","","","","","","","","",""
"","ITI","","html-keyboard-response","183","208510","0.0-1.0-252.0","0","0","20035","","null","","","null","27","","","","","","","","","","","","","","","NaN",""
"","S1","","html-keyboard-response","184","208762","0.0-1.0-254.0","0","0","20035","","null","","","null","28","","","","","","","","","","","","","","","",""
"","ISI","","html-keyboard-response","185","208915","0.0-1.0-255.0","0","0","20035","","null","","","null","28","NaN","","","","","","","","","","","","","","",""
"","S2","","html-keyboard-response","186","209168","0.0-1.0-256.0","0","0","20035","","null","","","null","28","","NaN","","","","","","","","","","","","","",""
"","response","","html-keyboard-response","187","209389","0.0-1.0-257.0-0.0","0","0","20035","","218","","","75","28","","","1","28","training","adjacent","BC","2","3","L.jpg","R.jpg","1","1","1","",""
"","feedback","","html-keyboard-response","188","210399","0.0-1.0-258.0-0.0","0","0","20035","","null","","","null","28","","","","","","","","","","","","","","","",""
"","ITI","","html-keyboard-response","189","211402","0.0-1.0-261.0","0","0","20035","","null","","","null","28","","","","","","","","","","","","","","","NaN",""
"","S1","","html-keyboard-response","190","211656","0.0-1.0-263.0","0","0","20035","","null","","","null","29","","","","","","","","","","","","","","","",""
"","ISI","","html-keyboard-response","191","211808","0.0-1.0-264.0","0","0","20035","","null","","","null","29","NaN","","","","","","","","","","","","","","",""
"","S2","","html-keyboard-response","192","212061","0.0-1.0-265.0","0","0","20035","","null","","","null","29","","NaN","","","","","","","","","","","","","",""
"","response","","html-keyboard-response","193","212236","0.0-1.0-266.0-0.0","0","0","20035","","173","","","68","29","","","1","29","training","adjacent","EF","5","6","Q.jpg","O.jpg","0","1","0","",""
"","feedback","","html-keyboard-response","194","213240","0.0-1.0-267.0-0.0","0","0","20035","","null","","","null","29","","","","","","","","","","","","","","","",""
"","time_out","","html-keyboard-response","195","215242","0.0-1.0-269.0-0.0","0","0","20035","","null","","","null","29","","","","","","","","","","","","","","","",""
"","ITI","","html-keyboard-response","196","216245","0.0-1.0-270.0","0","0","20035","","null","","","null","29","","","","","","","","","","","","","","","NaN",""
"","S1","","html-keyboard-response","197","216497","0.0-1.0-272.0","0","0","20035","","null","","","null","30","","","","","","","","","","","","","","","",""
"","ISI","","html-keyboard-response","198","216650","0.0-1.0-273.0","0","0","20035","","null","","","null","30","NaN","","","","","","","","","","","","","","",""
"","S2","","html-keyboard-response","199","216902","0.0-1.0-274.0","0","0","20035","","null","","","null","30","","NaN","","","","","","","","","","","","","",""
"","response","","html-keyboard-response","200","217165","0.0-1.0-275.0-0.0","0","0","20035","","260","","","68","30","","","1","30","training","adjacent","ED","5","4","Q.jpg","P.jpg","0","0","1","",""
"","feedback","","html-keyboard-response","201","218168","0.0-1.0-276.0-0.0","0","0","20035","","null","","","null","30","","","","","","","","","","","","","","","",""
"","ITI","","html-keyboard-response","202","219171","0.0-1.0-279.0","0","0","20035","","null","","","null","30","","","","","","","","","","","","","","","NaN",""
"","S1","","html-keyboard-response","203","219424","0.0-1.0-281.0","0","0","20035","","null","","","null","31","","","","","","","","","","","","","","","",""
"","ISI","","html-keyboard-response","204","219576","0.0-1.0-282.0","0","0","20035","","null","","","null","31","NaN","","","","","","","","","","","","","","",""
"","S2","","html-keyboard-response","205","219829","0.0-1.0-283.0","0","0","20035","","null","","","null","31","","NaN","","","","","","","","","","","","","",""
"","response","","html-keyboard-response","206","220101","0.0-1.0-284.0-0.0","0","0","20035","","270","","","68","31","","","1","31","training","adjacent","DE","4","5","P.jpg","Q.jpg","0","1","0","",""
"","feedback","","html-keyboard-response","207","221103","0.0-1.0-285.0-0.0","0","0","20035","","null","","","null","31","","","","","","","","","","","","","","","",""
"","time_out","","html-keyboard-response","208","223106","0.0-1.0-287.0-0.0","0","0","20035","","null","","","null","31","","","","","","","","","","","","","","","",""
"","ITI","","html-keyboard-response","209","224108","0.0-1.0-288.0","0","0","20035","","null","","","null","31","","","","","","","","","","","","","","","NaN",""
"","S1","","html-keyboard-response","210","224360","0.0-1.0-290.0","0","0","20035","","null","","","null","32","","","","","","","","","","","","","","","",""
"","ISI","","html-keyboard-response","211","224512","0.0-1.0-291.0","0","0","20035","","null","","","null","32","NaN","","","","","","","","","","","","","","",""
"","S2","","html-keyboard-response","212","224765","0.0-1.0-292.0","0","0","20035","","null","","","null","32","","NaN","","","","","","","","","","","","","",""
"","response","","html-keyboard-response","213","224989","0.0-1.0-293.0-0.0","0","0","20035","","221","","","68","32","","","1","32","training","adjacent","AB","1","2","M.jpg","L.jpg","0","1","0","",""
"","feedback","","html-keyboard-response","214","225992","0.0-1.0-294.0-0.0","0","0","20035","","null","","","null","32","","","","","","","","","","","","","","","",""
"","time_out","","html-keyboard-response","215","227995","0.0-1.0-296.0-0.0","0","0","20035","","null","","","null","32","","","","","","","","","","","","","","","",""
"","ITI","","html-keyboard-response","216","228998","0.0-1.0-297.0","0","0","20035","","null","","","null","32","","","","","","","","","","","","","","","NaN",""
"","S1","","html-keyboard-response","217","229251","0.0-1.0-299.0","0","0","20035","","null","","","null","33","","","","","","","","","","","","","","","",""
"","ISI","","html-keyboard-response","218","229404","0.0-1.0-300.0","0","0","20035","","null","","","null","33","NaN","","","","","","","","","","","","","","",""
"","S2","","html-keyboard-response","219","229657","0.0-1.0-301.0","0","0","20035","","null","","","null","33","","NaN","","","","","","","","","","","","","",""
"","response","","html-keyboard-response","220","229805","0.0-1.0-302.0-0.0","0","0","20035","","145","","","68","33","","","1","33","training","adjacent","EF","5","6","Q.jpg","O.jpg","0","1","0","",""
"","feedback","","html-keyboard-response","221","230807","0.0-1.0-303.0-0.0","0","0","20035","","null","","","null","33","","","","","","","","","","","","","","","",""
"","time_out","","html-keyboard-response","222","232810","0.0-1.0-305.0-0.0","0","0","20035","","null","","","null","33","","","","","","","","","","","","","","","",""
"","ITI","","html-keyboard-response","223","233812","0.0-1.0-306.0","0","0","20035","","null","","","null","33","","","","","","","","","","","","","","","NaN",""
"","S1","","html-keyboard-response","224","234065","0.0-1.0-308.0","0","0","20035","","null","","","null","34","","","","","","","","","","","","","","","",""
"","ISI","","html-keyboard-response","225","234218","0.0-1.0-309.0","0","0","20035","","null","","","null","34","NaN","","","","","","","","","","","","","","",""
"","S2","","html-keyboard-response","226","234471","0.0-1.0-310.0","0","0","20035","","null","","","null","34","","NaN","","","","","","","","","","","","","",""
"","response","","html-keyboard-response","227","234805","0.0-1.0-311.0-0.0","0","0","20035","","332","","","68","34","","","1","34","training","adjacent","DE","4","5","P.jpg","Q.jpg","0","1","0","",""
"","feedback","","html-keyboard-response","228","235807","0.0-1.0-312.0-0.0","0","0","20035","","null","","","null","34","","","","","","","","","","","","","","","",""
"","time_out","","html-keyboard-response","229","237809","0.0-1.0-314.0-0.0","0","0","20035","","null","","","null","34","","","","","","","","","","","","","","","",""
"","ITI","","html-keyboard-response","230","238812","0.0-1.0-315.0","0","0","20035","","null","","","null","34","","","","","","","","","","","","","","","NaN",""
"","S1","","html-keyboard-response","231","239065","0.0-1.0-317.0","0","0","20035","","null","","","null","35","","","","","","","","","","","","","","","",""
"","ISI","","html-keyboard-response","232","239218","0.0-1.0-318.0","0","0","20035","","null","","","null","35","NaN","","","","","","","","","","","","","","",""
"","S2","","html-keyboard-response","233","239471","0.0-1.0-319.0","0","0","20035","","null","","","null","35","","NaN","","","","","","","","","","","","","",""
"","response","","html-keyboard-response","234","239685","0.0-1.0-320.0-0.0","0","0","20035","","212","","","68","35","","","1","35","training","adjacent","CB","3","2","R.jpg","L.jpg","0","0","1","",""
"","feedback","","html-keyboard-response","235","240688","0.0-1.0-321.0-0.0","0","0","20035","","null","","","null","35","","","","","","","","","","","","","","","",""
"","ITI","","html-keyboard-response","236","241691","0.0-1.0-324.0","0","0","20035","","null","","","null","35","","","","","","","","","","","","","","","NaN",""
"","S1","","html-keyboard-response","237","241943","0.0-1.0-326.0","0","0","20035","","null","","","null","36","","","","","","","","","","","","","","","",""
"","ISI","","html-keyboard-response","238","242096","0.0-1.0-327.0","0","0","20035","","null","","","null","36","NaN","","","","","","","","","","","","","","",""
"","S2","","html-keyboard-response","239","242348","0.0-1.0-328.0","0","0","20035","","null","","","null","36","","NaN","","","","","","","","","","","","","",""
"","response","","html-keyboard-response","240","242613","0.0-1.0-329.0-0.0","0","0","20035","","262","","","68","36","","","1","36","training","adjacent","CB","3","2","R.jpg","L.jpg","0","0","1","",""
"","feedback","","html-keyboard-response","241","243616","0.0-1.0-330.0-0.0","0","0","20035","","null","","","null","36","","","","","","","","","","","","","","","",""
"","ITI","","html-keyboard-response","242","244618","0.0-1.0-333.0","0","0","20035","","null","","","null","36","","","","","","","","","","","","","","","NaN",""
"","S1","","html-keyboard-response","243","244871","0.0-1.0-335.0","0","0","20035","","null","","","null","37","","","","","","","","","","","","","","","",""
"","ISI","","html-keyboard-response","244","245024","0.0-1.0-336.0","0","0","20035","","null","","","null","37","NaN","","","","","","","","","","","","","","",""
"","S2","","html-keyboard-response","245","245277","0.0-1.0-337.0","0","0","20035","","null","","","null","37","","NaN","","","","","","","","","","","","","",""
"","response","","html-keyboard-response","246","245453","0.0-1.0-338.0-0.0","0","0","20035","","174","","","75","37","","","1","37","training","adjacent","FG","6","7","O.jpg","N.jpg","1","1","1","",""
"","feedback","","html-keyboard-response","247","246456","0.0-1.0-339.0-0.0","0","0","20035","","null","","","null","37","","","","","","","","","","","","","","","",""
"","ITI","","html-keyboard-response","248","247458","0.0-1.0-342.0","0","0","20035","","null","","","null","37","","","","","","","","","","","","","","","NaN",""
"","S1","","html-keyboard-response","249","247711","0.0-1.0-344.0","0","0","20035","","null","","","null","38","","","","","","","","","","","","","","","",""
"","ISI","","html-keyboard-response","250","247863","0.0-1.0-345.0","0","0","20035","","null","","","null","38","NaN","","","","","","","","","","","","","","",""
"","S2","","html-keyboard-response","251","248115","0.0-1.0-346.0","0","0","20035","","null","","","null","38","","NaN","","","","","","","","","","","","","",""
"","response","","html-keyboard-response","252","248277","0.0-1.0-347.0-0.0","0","0","20035","","159","","","68","38","","","1","38","training","adjacent","DE","4","5","P.jpg","Q.jpg","0","1","0","",""
"","feedback","","html-keyboard-response","253","249280","0.0-1.0-348.0-0.0","0","0","20035","","null","","","null","38","","","","","","","","","","","","","","","",""
"","time_out","","html-keyboard-response","254","251283","0.0-1.0-350.0-0.0","0","0","20035","","null","","","null","38","","","","","","","","","","","","","","","",""
"","ITI","","html-keyboard-response","255","252286","0.0-1.0-351.0","0","0","20035","","null","","","null","38","","","","","","","","","","","","","","","NaN",""
"","S1","","html-keyboard-response","256","252538","0.0-1.0-353.0","0","0","20035","","null","","","null","39","","","","","","","","","","","","","","","",""
"","ISI","","html-keyboard-response","257","252691","0.0-1.0-354.0","0","0","20035","","null","","","null","39","NaN","","","","","","","","","","","","","","",""
"","S2","","html-keyboard-response","258","252943","0.0-1.0-355.0","0","0","20035","","null","","","null","39","","NaN","","","","","","","","","","","","","",""
"","response","","html-keyboard-response","259","253388","0.0-1.0-356.0-0.0","0","0","20035","","443","","","75","39","","","1","39","training","adjacent","GF","7","6","N.jpg","O.jpg","1","0","0","",""
"","feedback","","html-keyboard-response","260","254391","0.0-1.0-357.0-0.0","0","0","20035","","null","","","null","39","","","","","","","","","","","","","","","",""
"","time_out","","html-keyboard-response","261","256394","0.0-1.0-359.0-0.0","0","0","20035","","null","","","null","39","","","","","","","","","","","","","","","",""
"","ITI","","html-keyboard-response","262","257396","0.0-1.0-360.0","0","0","20035","","null","","","null","39","","","","","","","","","","","","","","","NaN",""
"","S1","","html-keyboard-response","263","257649","0.0-1.0-362.0","0","0","20035","","null","","","null","40","","","","","","","","","","","","","","","",""
"","ISI","","html-keyboard-response","264","257802","0.0-1.0-363.0","0","0","20035","","null","","","null","40","NaN","","","","","","","","","","","","","","",""
"","S2","","html-keyboard-response","265","258054","0.0-1.0-364.0","0","0","20035","","null","","","null","40","","NaN","","","","","","","","","","","","","",""
"","response","","html-keyboard-response","266","258763","0.0-1.0-365.0-0.0","0","0","20035","","708","","","75","40","","","1","40","training","adjacent","CB","3","2","R.jpg","L.jpg","1","0","0","",""
"","feedback","","html-keyboard-response","267","259766","0.0-1.0-366.0-0.0","0","0","20035","","null","","","null","40","","","","","","","","","","","","","","","",""
"","time_out","","html-keyboard-response","268","261769","0.0-1.0-368.0-0.0","0","0","20035","","null","","","null","40","","","","","","","","","","","","","","","",""
"","ITI","","html-keyboard-response","269","262772","0.0-1.0-369.0","0","0","20035","","null","","","null","40","","","","","","","","","","","","","","","NaN",""
"","S1","","html-keyboard-response","270","263025","0.0-1.0-371.0","0","0","20035","","null","","","null","41","","","","","","","","","","","","","","","",""
"","ISI","","html-keyboard-response","271","263178","0.0-1.0-372.0","0","0","20035","","null","","","null","41","NaN","","","","","","","","","","","","","","",""
"","S2","","html-keyboard-response","272","263431","0.0-1.0-373.0","0","0","20035","","null","","","null","41","","NaN","","","","","","","","","","","","","",""
"","response","","html-keyboard-response","273","263597","0.0-1.0-374.0-0.0","0","0","20035","","163","","","75","41","","","1","41","training","adjacent","FG","6","7","O.jpg","N.jpg","1","1","1","",""
"","feedback","","html-keyboard-response","274","264600","0.0-1.0-375.0-0.0","0","0","20035","","null","","","null","41","","","","","","","","","","","","","","","",""
"","ITI","","html-keyboard-response","275","265603","0.0-1.0-378.0","0","0","20035","","null","","","null","41","","","","","","","","","","","","","","","NaN",""
"","S1","","html-keyboard-response","276","265856","0.0-1.0-380.0","0","0","20035","","null","","","null","42","","","","","","","","","","","","","","","",""
"","ISI","","html-keyboard-response","277","266009","0.0-1.0-381.0","0","0","20035","","null","","","null","42","NaN","","","","","","","","","","","","","","",""
"","S2","","html-keyboard-response","278","266262","0.0-1.0-382.0","0","0","20035","","null","","","null","42","","NaN","","","","","","","","","","","","","",""
"","response","","html-keyboard-response","279","266909","0.0-1.0-383.0-0.0","0","0","20035","","646","","","75","42","","","1","42","training","adjacent","DC","4","3","P.jpg","R.jpg","1","0","0","",""
"","feedback","","html-keyboard-response","280","267912","0.0-1.0-384.0-0.0","0","0","20035","","null","","","null","42","","","","","","","","","","","","","","","",""
"","time_out","","html-keyboard-response","281","269915","0.0-1.0-386.0-0.0","0","0","20035","","null","","","null","42","","","","","","","","","","","","","","","",""
"","ITI","","html-keyboard-response","282","270918","0.0-1.0-387.0","0","0","20035","","null","","","null","42","","","","","","","","","","","","","","","NaN",""
"","S1","","html-keyboard-response","283","271171","0.0-1.0-389.0","0","0","20035","","null","","","null","43","","","","","","","","","","","","","","","",""
"","ISI","","html-keyboard-response","284","271331","0.0-1.0-390.0","0","0","20035","","null","","","null","43","NaN","","","","","","","","","","","","","","",""
"","S2","","html-keyboard-response","285","271583","0.0-1.0-391.0","0","0","20035","","null","","","null","43","","NaN","","","","","","","","","","","","","",""
"","response","","html-keyboard-response","286","271957","0.0-1.0-392.0-0.0","0","0","20035","","372","","","75","43","","","1","43","training","adjacent","BC","2","3","L.jpg","R.jpg","1","1","1","",""
"","feedback","","html-keyboard-response","287","272960","0.0-1.0-393.0-0.0","0","0","20035","","null","","","null","43","","","","","","","","","","","","","","","",""
"","ITI","","html-keyboard-response","288","273963","0.0-1.0-396.0","0","0","20035","","null","","","null","43","","","","","","","","","","","","","","","NaN",""
"","S1","","html-keyboard-response","289","274216","0.0-1.0-398.0","0","0","20035","","null","","","null","44","","","","","","","","","","","","","","","",""
"","ISI","","html-keyboard-response","290","274368","0.0-1.0-399.0","0","0","20035","","null","","","null","44","NaN","","","","","","","","","","","","","","",""
"","S2","","html-keyboard-response","291","274622","0.0-1.0-400.0","0","0","20035","","null","","","null","44","","NaN","","","","","","","","","","","","","",""
"","response","","html-keyboard-response","292","275076","0.0-1.0-401.0-0.0","0","0","20035","","453","","","75","44","","","1","44","training","adjacent","CD","3","4","R.jpg","P.jpg","1","1","1","",""
"","feedback","","html-keyboard-response","293","276079","0.0-1.0-402.0-0.0","0","0","20035","","null","","","null","44","","","","","","","","","","","","","","","",""
"","ITI","","html-keyboard-response","294","277096","0.0-1.0-405.0","0","0","20035","","null","","","null","44","","","","","","","","","","","","","","","NaN",""
"","S1","","html-keyboard-response","295","277349","0.0-1.0-407.0","0","0","20035","","null","","","null","45","","","","","","","","","","","","","","","",""
"","ISI","","html-keyboard-response","296","277501","0.0-1.0-408.0","0","0","20035","","null","","","null","45","NaN","","","","","","","","","","","","","","",""
"","S2","","html-keyboard-response","297","277754","0.0-1.0-409.0","0","0","20035","","null","","","null","45","","NaN","","","","","","","","","","","","","",""
"","response","","html-keyboard-response","298","278260","0.0-1.0-410.0-0.0","0","0","20035","","504","","","75","45","","","1","45","training","adjacent","DC","4","3","P.jpg","R.jpg","1","0","0","",""
"","feedback","","html-keyboard-response","299","279264","0.0-1.0-411.0-0.0","0","0","20035","","null","","","null","45","","","","","","","","","","","","","","","",""
"","time_out","","html-keyboard-response","300","281267","0.0-1.0-413.0-0.0","0","0","20035","","null","","","null","45","","","","","","","","","","","","","","","",""
"","ITI","","html-keyboard-response","301","282269","0.0-1.0-414.0","0","0","20035","","null","","","null","45","","","","","","","","","","","","","","","NaN",""
"","S1","","html-keyboard-response","302","282522","0.0-1.0-416.0","0","0","20035","","null","","","null","46","","","","","","","","","","","","","","","",""
"","ISI","","html-keyboard-response","303","282674","0.0-1.0-417.0","0","0","20035","","null","","","null","46","NaN","","","","","","","","","","","","","","",""
"","S2","","html-keyboard-response","304","282926","0.0-1.0-418.0","0","0","20035","","null","","","null","46","","NaN","","","","","","","","","","","","","",""
"","response","","html-keyboard-response","305","283196","0.0-1.0-419.0-0.0","0","0","20035","","268","","","75","46","","","1","46","training","adjacent","BA","2","1","L.jpg","M.jpg","1","0","0","",""
"","feedback","","html-keyboard-response","306","284199","0.0-1.0-420.0-0.0","0","0","20035","","null","","","null","46","","","","","","","","","","","","","","","",""
"","time_out","","html-keyboard-response","307","286201","0.0-1.0-422.0-0.0","0","0","20035","","null","","","null","46","","","","","","","","","","","","","","","",""
"","ITI","","html-keyboard-response","308","287204","0.0-1.0-423.0","0","0","20035","","null","","","null","46","","","","","","","","","","","","","","","NaN",""
"","S1","","html-keyboard-response","309","287456","0.0-1.0-425.0","0","0","20035","","null","","","null","47","","","","","","","","","","","","","","","",""
"","ISI","","html-keyboard-response","310","287609","0.0-1.0-426.0","0","0","20035","","null","","","null","47","NaN","","","","","","","","","","","","","","",""
"","S2","","html-keyboard-response","311","287862","0.0-1.0-427.0","0","0","20035","","null","","","null","47","","NaN","","","","","","","","","","","","","",""
"","response","","html-keyboard-response","312","287973","0.0-1.0-428.0-0.0","0","0","20035","","110","","","75","47","","","1","47","training","adjacent","BC","2","3","L.jpg","R.jpg","1","1","1","",""
"","feedback","","html-keyboard-response","313","288976","0.0-1.0-429.0-0.0","0","0","20035","","null","","","null","47","","","","","","","","","","","","","","","",""
"","ITI","","html-keyboard-response","314","289978","0.0-1.0-432.0","0","0","20035","","null","","","null","47","","","","","","","","","","","","","","","NaN",""
"","block_over","","html-keyboard-response","315","293373","0.0-1.0-433.0-0.0","0","0","20035","","3392","","","32","47","","","","","","","","","","","","","","","",""
"","S1","","html-keyboard-response","316","293625","0.0-1.0-434.0","0","0","20035","","null","","","null","48","","","","","","","","","","","","","","","",""
"","ISI","","html-keyboard-response","317","293789","0.0-1.0-435.0","0","0","20035","","null","","","null","48","NaN","","","","","","","","","","","","","","",""
"","S2","","html-keyboard-response","318","294042","0.0-1.0-436.0","0","0","20035","","null","","","null","48","","NaN","","","","","","","","","","","","","",""
"","response","","html-keyboard-response","319","294381","0.0-1.0-437.0-0.0","0","0","20035","","336","","","75","48","","","2","48","training","adjacent","CD","3","4","R.jpg","P.jpg","1","1","1","",""
"","feedback","","html-keyboard-response","320","295383","0.0-1.0-438.0-0.0","0","0","20035","","null","","","null","48","","","","","","","","","","","","","","","",""
"","ITI","","html-keyboard-response","321","296386","0.0-1.0-441.0","0","0","20035","","null","","","null","48","","","","","","","","","","","","","","","NaN",""
"","S1","","html-keyboard-response","322","296639","0.0-1.0-443.0","0","0","20035","","null","","","null","49","","","","","","","","","","","","","","","",""
"","ISI","","html-keyboard-response","323","296792","0.0-1.0-444.0","0","0","20035","","null","","","null","49","NaN","","","","","","","","","","","","","","",""
"","S2","","html-keyboard-response","324","297044","0.0-1.0-445.0","0","0","20035","","null","","","null","49","","NaN","","","","","","","","","","","","","",""
"","response","","html-keyboard-response","325","297093","0.0-1.0-446.0-0.0","0","0","20035","","46","","","75","49","","","2","49","training","adjacent","CB","3","2","R.jpg","L.jpg","1","0","0","",""
"","feedback","","html-keyboard-response","326","298096","0.0-1.0-447.0-0.0","0","0","20035","","null","","","null","49","","","","","","","","","","","","","","","",""
"","time_out","","html-keyboard-response","327","300098","0.0-1.0-449.0-0.0","0","0","20035","","null","","","null","49","","","","","","","","","","","","","","","",""
"","ITI","","html-keyboard-response","328","301101","0.0-1.0-450.0","0","0","20035","","null","","","null","49","","","","","","","","","","","","","","","NaN",""
"","S1","","html-keyboard-response","329","301354","0.0-1.0-452.0","0","0","20035","","null","","","null","50","","","","","","","","","","","","","","","",""
"","ISI","","html-keyboard-response","330","301507","0.0-1.0-453.0","0","0","20035","","null","","","null","50","NaN","","","","","","","","","","","","","","",""
"","S2","","html-keyboard-response","331","301760","0.0-1.0-454.0","0","0","20035","","null","","","null","50","","NaN","","","","","","","","","","","","","",""
"","response","","html-keyboard-response","332","302173","0.0-1.0-455.0-0.0","0","0","20035","","411","","","68","50","","","2","50","training","adjacent","FE","6","5","O.jpg","Q.jpg","0","0","1","",""
"","feedback","","html-keyboard-response","333","303176","0.0-1.0-456.0-0.0","0","0","20035","","null","","","null","50","","","","","","","","","","","","","","","",""
"","ITI","","html-keyboard-response","334","304179","0.0-1.0-459.0","0","0","20035","","null","","","null","50","","","","","","","","","","","","","","","NaN",""
"","S1","","html-keyboard-response","335","304432","0.0-1.0-461.0","0","0","20035","","null","","","null","51","","","","","","","","","","","","","","","",""
"","ISI","","html-keyboard-response","336","304585","0.0-1.0-462.0","0","0","20035","","null","","","null","51","NaN","","","","","","","","","","","","","","",""
"","S2","","html-keyboard-response","337","304838","0.0-1.0-463.0","0","0","20035","","null","","","null","51","","NaN","","","","","","","","","","","","","",""
"","response","","html-keyboard-response","338","305157","0.0-1.0-464.0-0.0","0","0","20035","","317","","","68","51","","","2","51","training","adjacent","ED","5","4","Q.jpg","P.jpg","0","0","1","",""
"","feedback","","html-keyboard-response","339","306160","0.0-1.0-465.0-0.0","0","0","20035","","null","","","null","51","","","","","","","","","","","","","","","",""
"","ITI","","html-keyboard-response","340","307163","0.0-1.0-468.0","0","0","20035","","null","","","null","51","","","","","","","","","","","","","","","NaN",""
"","S1","","html-keyboard-response","341","307416","0.0-1.0-470.0","0","0","20035","","null","","","null","52","","","","","","","","","","","","","","","",""
"","ISI","","html-keyboard-response","342","307569","0.0-1.0-471.0","0","0","20035","","null","","","null","52","NaN","","","","","","","","","","","","","","",""
"","S2","","html-keyboard-response","343","307822","0.0-1.0-472.0","0","0","20035","","null","","","null","52","","NaN","","","","","","","","","","","","","",""
"","response","","html-keyboard-response","344","308453","0.0-1.0-473.0-0.0","0","0","20035","","629","","","68","52","","","2","52","training","adjacent","DE","4","5","P.jpg","Q.jpg","0","1","0","",""
"","feedback","","html-keyboard-response","345","309456","0.0-1.0-474.0-0.0","0","0","20035","","null","","","null","52","","","","","","","","","","","","","","","",""
"","time_out","","html-keyboard-response","346","311458","0.0-1.0-476.0-0.0","0","0","20035","","null","","","null","52","","","","","","","","","","","","","","","",""
"","ITI","","html-keyboard-response","347","312461","0.0-1.0-477.0","0","0","20035","","null","","","null","52","","","","","","","","","","","","","","","NaN",""
"","S1","","html-keyboard-response","348","312714","0.0-1.0-479.0","0","0","20035","","null","","","null","53","","","","","","","","","","","","","","","",""
"","ISI","","html-keyboard-response","349","312866","0.0-1.0-480.0","0","0","20035","","null","","","null","53","NaN","","","","","","","","","","","","","","",""
"","S2","","html-keyboard-response","350","313118","0.0-1.0-481.0","0","0","20035","","null","","","null","53","","NaN","","","","","","","","","","","","","",""
"","response","","html-keyboard-response","351","313541","0.0-1.0-482.0-0.0","0","0","20035","","420","","","75","53","","","2","53","training","adjacent","EF","5","6","Q.jpg","O.jpg","1","1","1","",""
"","feedback","","html-keyboard-response","352","314543","0.0-1.0-483.0-0.0","0","0","20035","","null","","","null","53","","","","","","","","","","","","","","","",""
"","ITI","","html-keyboard-response","353","315546","0.0-1.0-486.0","0","0","20035","","null","","","null","53","","","","","","","","","","","","","","","NaN",""
"","S1","","html-keyboard-response","354","315799","0.0-1.0-488.0","0","0","20035","","null","","","null","54","","","","","","","","","","","","","","","",""
"","ISI","","html-keyboard-response","355","315952","0.0-1.0-489.0","0","0","20035","","null","","","null","54","NaN","","","","","","","","","","","","","","",""
"","S2","","html-keyboard-response","356","316205","0.0-1.0-490.0","0","0","20035","","null","","","null","54","","NaN","","","","","","","","","","","","","",""
"","response","","html-keyboard-response","357","316588","0.0-1.0-491.0-0.0","0","0","20035","","381","","","68","54","","","2","54","training","adjacent","DE","4","5","P.jpg","Q.jpg","0","1","0","",""
"","feedback","","html-keyboard-response","358","317592","0.0-1.0-492.0-0.0","0","0","20035","","null","","","null","54","","","","","","","","","","","","","","","",""
"","time_out","","html-keyboard-response","359","319594","0.0-1.0-494.0-0.0","0","0","20035","","null","","","null","54","","","","","","","","","","","","","","","",""
"","ITI","","html-keyboard-response","360","320597","0.0-1.0-495.0","0","0","20035","","null","","","null","54","","","","","","","","","","","","","","","NaN",""
"","S1","","html-keyboard-response","361","320849","0.0-1.0-497.0","0","0","20035","","null","","","null","55","","","","","","","","","","","","","","","",""
"","ISI","","html-keyboard-response","362","321002","0.0-1.0-498.0","0","0","20035","","null","","","null","55","NaN","","","","","","","","","","","","","","",""
"","S2","","html-keyboard-response","363","321256","0.0-1.0-499.0","0","0","20035","","null","","","null","55","","NaN","","","","","","","","","","","","","",""
"","response","","html-keyboard-response","364","321716","0.0-1.0-500.0-0.0","0","0","20035","","459","","","75","55","","","2","55","training","adjacent","GF","7","6","N.jpg","O.jpg","1","0","0","",""
"","feedback","","html-keyboard-response","365","322719","0.0-1.0-501.0-0.0","0","0","20035","","null","","","null","55","","","","","","","","","","","","","","","",""
"","time_out","","html-keyboard-response","366","324723","0.0-1.0-503.0-0.0","0","0","20035","","null","","","null","55","","","","","","","","","","","","","","","",""
"","ITI","","html-keyboard-response","367","325726","0.0-1.0-504.0","0","0","20035","","null","","","null","55","","","","","","","","","","","","","","","NaN",""
"","S1","","html-keyboard-response","368","325979","0.0-1.0-506.0","0","0","20035","","null","","","null","56","","","","","","","","","","","","","","","",""
"","ISI","","html-keyboard-response","369","326131","0.0-1.0-507.0","0","0","20035","","null","","","null","56","NaN","","","","","","","","","","","","","","",""
"","S2","","html-keyboard-response","370","326383","0.0-1.0-508.0","0","0","20035","","null","","","null","56","","NaN","","","","","","","","","","","","","",""
"","response","","html-keyboard-response","371","326669","0.0-1.0-509.0-0.0","0","0","20035","","284","","","75","56","","","2","56","training","adjacent","DC","4","3","P.jpg","R.jpg","1","0","0","",""
"","feedback","","html-keyboard-response","372","327672","0.0-1.0-510.0-0.0","0","0","20035","","null","","","null","56","","","","","","","","","","","","","","","",""
"","time_out","","html-keyboard-response","373","329675","0.0-1.0-512.0-0.0","0","0","20035","","null","","","null","56","","","","","","","","","","","","","","","",""
"","ITI","","html-keyboard-response","374","330678","0.0-1.0-513.0","0","0","20035","","null","","","null","56","","","","","","","","","","","","","","","NaN",""
"","S1","","html-keyboard-response","375","330931","0.0-1.0-515.0","0","0","20035","","null","","","null","57","","","","","","","","","","","","","","","",""
"","ISI","","html-keyboard-response","376","331083","0.0-1.0-516.0","0","0","20035","","null","","","null","57","NaN","","","","","","","","","","","","","","",""
"","S2","","html-keyboard-response","377","331336","0.0-1.0-517.0","0","0","20035","","null","","","null","57","","NaN","","","","","","","","","","","","","",""
"","response","","html-keyboard-response","378","331853","0.0-1.0-518.0-0.0","0","0","20035","","516","","","75","57","","","2","57","training","adjacent","CD","3","4","R.jpg","P.jpg","1","1","1","",""
"","feedback","","html-keyboard-response","379","332856","0.0-1.0-519.0-0.0","0","0","20035","","null","","","null","57","","","","","","","","","","","","","","","",""
"","ITI","","html-keyboard-response","380","333859","0.0-1.0-522.0","0","0","20035","","null","","","null","57","","","","","","","","","","","","","","","NaN",""
"","S1","","html-keyboard-response","381","334111","0.0-1.0-524.0","0","0","20035","","null","","","null","58","","","","","","","","","","","","","","","",""
"","ISI","","html-keyboard-response","382","334263","0.0-1.0-525.0","0","0","20035","","null","","","null","58","NaN","","","","","","","","","","","","","","",""
"","S2","","html-keyboard-response","383","334516","0.0-1.0-526.0","0","0","20035","","null","","","null","58","","NaN","","","","","","","","","","","","","",""
"","response","","html-keyboard-response","384","334860","0.0-1.0-527.0-0.0","0","0","20035","","343","","","68","58","","","2","58","training","adjacent","FG","6","7","O.jpg","N.jpg","0","1","0","",""
"","feedback","","html-keyboard-response","385","335864","0.0-1.0-528.0-0.0","0","0","20035","","null","","","null","58","","","","","","","","","","","","","","","",""
"","time_out","","html-keyboard-response","386","337866","0.0-1.0-530.0-0.0","0","0","20035","","null","","","null","58","","","","","","","","","","","","","","","",""
"","ITI","","html-keyboard-response","387","338869","0.0-1.0-531.0","0","0","20035","","null","","","null","58","","","","","","","","","","","","","","","NaN",""
"","S1","","html-keyboard-response","388","339122","0.0-1.0-533.0","0","0","20035","","null","","","null","59","","","","","","","","","","","","","","","",""
"","ISI","","html-keyboard-response","389","339281","0.0-1.0-534.0","0","0","20035","","null","","","null","59","NaN","","","","","","","","","","","","","","",""
"","S2","","html-keyboard-response","390","339533","0.0-1.0-535.0","0","0","20035","","null","","","null","59","","NaN","","","","","","","","","","","","","",""
"","response","","html-keyboard-response","391","339773","0.0-1.0-536.0-0.0","0","0","20035","","238","","","75","59","","","2","59","training","adjacent","DC","4","3","P.jpg","R.jpg","1","0","0","",""
"","feedback","","html-keyboard-response","392","340777","0.0-1.0-537.0-0.0","0","0","20035","","null","","","null","59","","","","","","","","","","","","","","","",""
"","time_out","","html-keyboard-response","393","342778","0.0-1.0-539.0-0.0","0","0","20035","","null","","","null","59","","","","","","","","","","","","","","","",""
"","ITI","","html-keyboard-response","394","343781","0.0-1.0-540.0","0","0","20035","","null","","","null","59","","","","","","","","","","","","","","","NaN",""
"","S1","","html-keyboard-response","395","344046","0.0-1.0-542.0","0","0","20035","","null","","","null","60","","","","","","","","","","","","","","","",""
"","ISI","","html-keyboard-response","396","344199","0.0-1.0-543.0","0","0","20035","","null","","","null","60","NaN","","","","","","","","","","","","","","",""
"","S2","","html-keyboard-response","397","344452","0.0-1.0-544.0","0","0","20035","","null","","","null","60","","NaN","","","","","","","","","","","","","",""
"","response","","html-keyboard-response","398","344796","0.0-1.0-545.0-0.0","0","0","20035","","343","","","75","60","","","2","60","training","adjacent","CD","3","4","R.jpg","P.jpg","1","1","1","",""
"","feedback","","html-keyboard-response","399","345800","0.0-1.0-546.0-0.0","0","0","20035","","null","","","null","60","","","","","","","","","","","","","","","",""
"","ITI","","html-keyboard-response","400","346803","0.0-1.0-549.0","0","0","20035","","null","","","null","60","","","","","","","","","","","","","","","NaN",""
"","S1","","html-keyboard-response","401","347056","0.0-1.0-551.0","0","0","20035","","null","","","null","61","","","","","","","","","","","","","","","",""
"","ISI","","html-keyboard-response","402","347209","0.0-1.0-552.0","0","0","20035","","null","","","null","61","NaN","","","","","","","","","","","","","","",""
"","S2","","html-keyboard-response","403","347462","0.0-1.0-553.0","0","0","20035","","null","","","null","61","","NaN","","","","","","","","","","","","","",""
"","response","","html-keyboard-response","404","347700","0.0-1.0-554.0-0.0","0","0","20035","","236","","","68","61","","","2","61","training","adjacent","FG","6","7","O.jpg","N.jpg","0","1","0","",""
"","feedback","","html-keyboard-response","405","348703","0.0-1.0-555.0-0.0","0","0","20035","","null","","","null","61","","","","","","","","","","","","","","","",""
"","time_out","","html-keyboard-response","406","350706","0.0-1.0-557.0-0.0","0","0","20035","","null","","","null","61","","","","","","","","","","","","","","","",""
"","ITI","","html-keyboard-response","407","351709","0.0-1.0-558.0","0","0","20035","","null","","","null","61","","","","","","","","","","","","","","","NaN",""
"","S1","","html-keyboard-response","408","351962","0.0-1.0-560.0","0","0","20035","","null","","","null","62","","","","","","","","","","","","","","","",""
"","ISI","","html-keyboard-response","409","352114","0.0-1.0-561.0","0","0","20035","","null","","","null","62","NaN","","","","","","","","","","","","","","",""
"","S2","","html-keyboard-response","410","352368","0.0-1.0-562.0","0","0","20035","","null","","","null","62","","NaN","","","","","","","","","","","","","",""
"","response","","html-keyboard-response","411","352668","0.0-1.0-563.0-0.0","0","0","20035","","299","","","68","62","","","2","62","training","adjacent","DE","4","5","P.jpg","Q.jpg","0","1","0","",""
"","feedback","","html-keyboard-response","412","353671","0.0-1.0-564.0-0.0","0","0","20035","","null","","","null","62","","","","","","","","","","","","","","","",""
"","time_out","","html-keyboard-response","413","355675","0.0-1.0-566.0-0.0","0","0","20035","","null","","","null","62","","","","","","","","","","","","","","","",""
"","ITI","","html-keyboard-response","414","356677","0.0-1.0-567.0","0","0","20035","","null","","","null","62","","","","","","","","","","","","","","","NaN",""
"","S1","","html-keyboard-response","415","356930","0.0-1.0-569.0","0","0","20035","","null","","","null","63","","","","","","","","","","","","","","","",""
"","ISI","","html-keyboard-response","416","357082","0.0-1.0-570.0","0","0","20035","","null","","","null","63","NaN","","","","","","","","","","","","","","",""
"","S2","","html-keyboard-response","417","357336","0.0-1.0-571.0","0","0","20035","","null","","","null","63","","NaN","","","","","","","","","","","","","",""
"","response","","html-keyboard-response","418","357557","0.0-1.0-572.0-0.0","0","0","20035","","220","","","75","63","","","2","63","training","adjacent","AB","1","2","M.jpg","L.jpg","1","1","1","",""
"","feedback","","html-keyboard-response","419","358560","0.0-1.0-573.0-0.0","0","0","20035","","null","","","null","63","","","","","","","","","","","","","","","",""
"","ITI","","html-keyboard-response","420","359562","0.0-1.0-576.0","0","0","20035","","null","","","null","63","","","","","","","","","","","","","","","NaN",""
"","S1","","html-keyboard-response","421","359815","0.0-1.0-578.0","0","0","20035","","null","","","null","64","","","","","","","","","","","","","","","",""
"","ISI","","html-keyboard-response","422","359968","0.0-1.0-579.0","0","0","20035","","null","","","null","64","NaN","","","","","","","","","","","","","","",""
"","S2","","html-keyboard-response","423","360221","0.0-1.0-580.0","0","0","20035","","null","","","null","64","","NaN","","","","","","","","","","","","","",""
"","response","","html-keyboard-response","424","360677","0.0-1.0-581.0-0.0","0","0","20035","","453","","","68","64","","","2","64","training","adjacent","DC","4","3","P.jpg","R.jpg","0","0","1","",""
"","feedback","","html-keyboard-response","425","361681","0.0-1.0-582.0-0.0","0","0","20035","","null","","","null","64","","","","","","","","","","","","","","","",""
"","ITI","","html-keyboard-response","426","362683","0.0-1.0-585.0","0","0","20035","","null","","","null","64","","","","","","","","","","","","","","","NaN",""
"","S1","","html-keyboard-response","427","362936","0.0-1.0-587.0","0","0","20035","","null","","","null","65","","","","","","","","","","","","","","","",""
"","ISI","","html-keyboard-response","428","363088","0.0-1.0-588.0","0","0","20035","","null","","","null","65","NaN","","","","","","","","","","","","","","",""
"","S2","","html-keyboard-response","429","363341","0.0-1.0-589.0","0","0","20035","","null","","","null","65","","NaN","","","","","","","","","","","","","",""
"","response","","html-keyboard-response","430","363629","0.0-1.0-590.0-0.0","0","0","20035","","286","","","75","65","","","2","65","training","adjacent","FG","6","7","O.jpg","N.jpg","1","1","1","",""
"","feedback","","html-keyboard-response","431","364632","0.0-1.0-591.0-0.0","0","0","20035","","null","","","null","65","","","","","","","","","","","","","","","",""
"","ITI","","html-keyboard-response","432","365636","0.0-1.0-594.0","0","0","20035","","null","","","null","65","","","","","","","","","","","","","","","NaN",""
"","S1","","html-keyboard-response","433","365889","0.0-1.0-596.0","0","0","20035","","null","","","null","66","","","","","","","","","","","","","","","",""
"","ISI","","html-keyboard-response","434","366042","0.0-1.0-597.0","0","0","20035","","null","","","null","66","NaN","","","","","","","","","","","","","","",""
"","S2","","html-keyboard-response","435","366294","0.0-1.0-598.0","0","0","20035","","null","","","null","66","","NaN","","","","","","","","","","","","","",""
"","response","","html-keyboard-response","436","366549","0.0-1.0-599.0-0.0","0","0","20035","","252","","","68","66","","","2","66","training","adjacent","FE","6","5","O.jpg","Q.jpg","0","0","1","",""
"","feedback","","html-keyboard-response","437","367552","0.0-1.0-600.0-0.0","0","0","20035","","null","","","null","66","","","","","","","","","","","","","","","",""
"","ITI","","html-keyboard-response","438","368554","0.0-1.0-603.0","0","0","20035","","null","","","null","66","","","","","","","","","","","","","","","NaN",""
"","S1","","html-keyboard-response","439","368807","0.0-1.0-605.0","0","0","20035","","null","","","null","67","","","","","","","","","","","","","","","",""
"","ISI","","html-keyboard-response","440","368960","0.0-1.0-606.0","0","0","20035","","null","","","null","67","NaN","","","","","","","","","","","","","","",""
"","S2","","html-keyboard-response","441","369224","0.0-1.0-607.0","0","0","20035","","null","","","null","67","","NaN","","","","","","","","","","","","","",""
"","response","","html-keyboard-response","442","369372","0.0-1.0-608.0-0.0","0","0","20035","","146","","","68","67","","","2","67","training","adjacent","EF","5","6","Q.jpg","O.jpg","0","1","0","",""
"","feedback","","html-keyboard-response","443","370376","0.0-1.0-609.0-0.0","0","0","20035","","null","","","null","67","","","","","","","","","","","","","","","",""
"","time_out","","html-keyboard-response","444","372379","0.0-1.0-611.0-0.0","0","0","20035","","null","","","null","67","","","","","","","","","","","","","","","",""
"","ITI","","html-keyboard-response","445","373382","0.0-1.0-612.0","0","0","20035","","null","","","null","67","","","","","","","","","","","","","","","NaN",""
"","S1","","html-keyboard-response","446","373635","0.0-1.0-614.0","0","0","20035","","null","","","null","68","","","","","","","","","","","","","","","",""
"","ISI","","html-keyboard-response","447","373787","0.0-1.0-615.0","0","0","20035","","null","","","null","68","NaN","","","","","","","","","","","","","","",""
"","S2","","html-keyboard-response","448","374040","0.0-1.0-616.0","0","0","20035","","null","","","null","68","","NaN","","","","","","","","","","","","","",""
"","response","","html-keyboard-response","449","374253","0.0-1.0-617.0-0.0","0","0","20035","","211","","","75","68","","","2","68","training","adjacent","BC","2","3","L.jpg","R.jpg","1","1","1","",""
"","feedback","","html-keyboard-response","450","375256","0.0-1.0-618.0-0.0","0","0","20035","","null","","","null","68","","","","","","","","","","","","","","","",""
"","ITI","","html-keyboard-response","451","376258","0.0-1.0-621.0","0","0","20035","","null","","","null","68","","","","","","","","","","","","","","","NaN",""
"","S1","","html-keyboard-response","452","376511","0.0-1.0-623.0","0","0","20035","","null","","","null","69","","","","","","","","","","","","","","","",""
"","ISI","","html-keyboard-response","453","376665","0.0-1.0-624.0","0","0","20035","","null","","","null","69","NaN","","","","","","","","","","","","","","",""
"","S2","","html-keyboard-response","454","376919","0.0-1.0-625.0","0","0","20035","","null","","","null","69","","NaN","","","","","","","","","","","","","",""
"","response","","html-keyboard-response","455","377516","0.0-1.0-626.0-0.0","0","0","20035","","595","","","75","69","","","2","69","training","adjacent","AB","1","2","M.jpg","L.jpg","1","1","1","",""
"","feedback","","html-keyboard-response","456","378519","0.0-1.0-627.0-0.0","0","0","20035","","null","","","null","69","","","","","","","","","","","","","","","",""
"","ITI","","html-keyboard-response","457","379522","0.0-1.0-630.0","0","0","20035","","null","","","null","69","","","","","","","","","","","","","","","NaN",""
"","S1","","html-keyboard-response","458","379775","0.0-1.0-632.0","0","0","20035","","null","","","null","70","","","","","","","","","","","","","","","",""
"","ISI","","html-keyboard-response","459","379928","0.0-1.0-633.0","0","0","20035","","null","","","null","70","NaN","","","","","","","","","","","","","","",""
"","S2","","html-keyboard-response","460","380181","0.0-1.0-634.0","0","0","20035","","null","","","null","70","","NaN","","","","","","","","","","","","","",""
"","response","","html-keyboard-response","461","380453","0.0-1.0-635.0-0.0","0","0","20035","","269","","","75","70","","","2","70","training","adjacent","BC","2","3","L.jpg","R.jpg","1","1","1","",""
"","feedback","","html-keyboard-response","462","381455","0.0-1.0-636.0-0.0","0","0","20035","","null","","","null","70","","","","","","","","","","","","","","","",""
"","ITI","","html-keyboard-response","463","382458","0.0-1.0-639.0","0","0","20035","","null","","","null","70","","","","","","","","","","","","","","","NaN",""
"","S1","","html-keyboard-response","464","382711","0.0-1.0-641.0","0","0","20035","","null","","","null","71","","","","","","","","","","","","","","","",""
"","ISI","","html-keyboard-response","465","382864","0.0-1.0-642.0","0","0","20035","","null","","","null","71","NaN","","","","","","","","","","","","","","",""
"","S2","","html-keyboard-response","466","383118","0.0-1.0-643.0","0","0","20035","","null","","","null","71","","NaN","","","","","","","","","","","","","",""
"","response","","html-keyboard-response","467","383476","0.0-1.0-644.0-0.0","0","0","20035","","357","","","68","71","","","2","71","training","adjacent","FE","6","5","O.jpg","Q.jpg","0","0","1","",""
"","feedback","","html-keyboard-response","468","384479","0.0-1.0-645.0-0.0","0","0","20035","","null","","","null","71","","","","","","","","","","","","","","","",""
"","ITI","","html-keyboard-response","469","385482","0.0-1.0-648.0","0","0","20035","","null","","","null","71","","","","","","","","","","","","","","","NaN",""
"","S1","","html-keyboard-response","470","385736","0.0-1.0-650.0","0","0","20035","","null","","","null","72","","","","","","","","","","","","","","","",""
"","ISI","","html-keyboard-response","471","385889","0.0-1.0-651.0","0","0","20035","","null","","","null","72","NaN","","","","","","","","","","","","","","",""
"","S2","","html-keyboard-response","472","386142","0.0-1.0-652.0","0","0","20035","","null","","","null","72","","NaN","","","","","","","","","","","","","",""
"","response","","html-keyboard-response","473","386372","0.0-1.0-653.0-0.0","0","0","20035","","228","","","75","72","","","2","72","training","adjacent","BA","2","1","L.jpg","M.jpg","1","0","0","",""
"","feedback","","html-keyboard-response","474","387375","0.0-1.0-654.0-0.0","0","0","20035","","null","","","null","72","","","","","","","","","","","","","","","",""
"","time_out","","html-keyboard-response","475","389378","0.0-1.0-656.0-0.0","0","0","20035","","null","","","null","72","","","","","","","","","","","","","","","",""
"","ITI","","html-keyboard-response","476","390380","0.0-1.0-657.0","0","0","20035","","null","","","null","72","","","","","","","","","","","","","","","NaN",""
"","S1","","html-keyboard-response","477","390633","0.0-1.0-659.0","0","0","20035","","null","","","null","73","","","","","","","","","","","","","","","",""
"","ISI","","html-keyboard-response","478","390785","0.0-1.0-660.0","0","0","20035","","null","","","null","73","NaN","","","","","","","","","","","","","","",""
"","S2","","html-keyboard-response","479","391037","0.0-1.0-661.0","0","0","20035","","null","","","null","73","","NaN","","","","","","","","","","","","","",""
"","response","","html-keyboard-response","480","391372","0.0-1.0-662.0-0.0","0","0","20035","","333","","","68","73","","","2","73","training","adjacent","EF","5","6","Q.jpg","O.jpg","0","1","0","",""
"","feedback","","html-keyboard-response","481","392376","0.0-1.0-663.0-0.0","0","0","20035","","null","","","null","73","","","","","","","","","","","","","","","",""
"","time_out","","html-keyboard-response","482","394379","0.0-1.0-665.0-0.0","0","0","20035","","null","","","null","73","","","","","","","","","","","","","","","",""
"","ITI","","html-keyboard-response","483","395382","0.0-1.0-666.0","0","0","20035","","null","","","null","73","","","","","","","","","","","","","","","NaN",""
"","S1","","html-keyboard-response","484","395635","0.0-1.0-668.0","0","0","20035","","null","","","null","74","","","","","","","","","","","","","","","",""
"","ISI","","html-keyboard-response","485","395787","0.0-1.0-669.0","0","0","20035","","null","","","null","74","NaN","","","","","","","","","","","","","","",""
"","S2","","html-keyboard-response","486","396040","0.0-1.0-670.0","0","0","20035","","null","","","null","74","","NaN","","","","","","","","","","","","","",""
"","response","","html-keyboard-response","487","396621","0.0-1.0-671.0-0.0","0","0","20035","","578","","","68","74","","","2","74","training","adjacent","GF","7","6","N.jpg","O.jpg","0","0","1","",""
"","feedback","","html-keyboard-response","488","397624","0.0-1.0-672.0-0.0","0","0","20035","","null","","","null","74","","","","","","","","","","","","","","","",""
"","ITI","","html-keyboard-response","489","398627","0.0-1.0-675.0","0","0","20035","","null","","","null","74","","","","","","","","","","","","","","","NaN",""
"","S1","","html-keyboard-response","490","398880","0.0-1.0-677.0","0","0","20035","","null","","","null","75","","","","","","","","","","","","","","","",""
"","ISI","","html-keyboard-response","491","399034","0.0-1.0-678.0","0","0","20035","","null","","","null","75","NaN","","","","","","","","","","","","","","",""
"","S2","","html-keyboard-response","492","399286","0.0-1.0-679.0","0","0","20035","","null","","","null","75","","NaN","","","","","","","","","","","","","",""
"","response","","html-keyboard-response","493","399435","0.0-1.0-680.0-0.0","0","0","20035","","147","","","75","75","","","2","75","training","adjacent","BA","2","1","L.jpg","M.jpg","1","0","0","",""
"","feedback","","html-keyboard-response","494","400437","0.0-1.0-681.0-0.0","0","0","20035","","null","","","null","75","","","","","","","","","","","","","","","",""
"","time_out","","html-keyboard-response","495","402441","0.0-1.0-683.0-0.0","0","0","20035","","null","","","null","75","","","","","","","","","","","","","","","",""
"","ITI","","html-keyboard-response","496","403444","0.0-1.0-684.0","0","0","20035","","null","","","null","75","","","","","","","","","","","","","","","NaN",""
"","S1","","html-keyboard-response","497","403698","0.0-1.0-686.0","0","0","20035","","null","","","null","76","","","","","","","","","","","","","","","",""
"","ISI","","html-keyboard-response","498","403851","0.0-1.0-687.0","0","0","20035","","null","","","null","76","NaN","","","","","","","","","","","","","","",""
"","S2","","html-keyboard-response","499","404104","0.0-1.0-688.0","0","0","20035","","null","","","null","76","","NaN","","","","","","","","","","","","","",""
"","response","","html-keyboard-response","500","404419","0.0-1.0-689.0-0.0","0","0","20035","","314","","","68","76","","","2","76","training","adjacent","FE","6","5","O.jpg","Q.jpg","0","0","1","",""
"","feedback","","html-keyboard-response","501","405421","0.0-1.0-690.0-0.0","0","0","20035","","null","","","null","76","","","","","","","","","","","","","","","",""
"","ITI","","html-keyboard-response","502","406425","0.0-1.0-693.0","0","0","20035","","null","","","null","76","","","","","","","","","","","","","","","NaN",""
"","S1","","html-keyboard-response","503","406678","0.0-1.0-695.0","0","0","20035","","null","","","null","77","","","","","","","","","","","","","","","",""
"","ISI","","html-keyboard-response","504","406831","0.0-1.0-696.0","0","0","20035","","null","","","null","77","NaN","","","","","","","","","","","","","","",""
"","S2","","html-keyboard-response","505","407083","0.0-1.0-697.0","0","0","20035","","null","","","null","77","","NaN","","","","","","","","","","","","","",""
"","response","","html-keyboard-response","506","407268","0.0-1.0-698.0-0.0","0","0","20035","","183","","","75","77","","","2","77","training","adjacent","DE","4","5","P.jpg","Q.jpg","1","1","1","",""
"","feedback","","html-keyboard-response","507","408272","0.0-1.0-699.0-0.0","0","0","20035","","null","","","null","77","","","","","","","","","","","","","","","",""
"","ITI","","html-keyboard-response","508","409276","0.0-1.0-702.0","0","0","20035","","null","","","null","77","","","","","","","","","","","","","","","NaN",""
"","S1","","html-keyboard-response","509","409528","0.0-1.0-704.0","0","0","20035","","null","","","null","78","","","","","","","","","","","","","","","",""
"","ISI","","html-keyboard-response","510","409681","0.0-1.0-705.0","0","0","20035","","null","","","null","78","NaN","","","","","","","","","","","","","","",""
"","S2","","html-keyboard-response","511","409934","0.0-1.0-706.0","0","0","20035","","null","","","null","78","","NaN","","","","","","","","","","","","","",""
"","response","","html-keyboard-response","512","410285","0.0-1.0-707.0-0.0","0","0","20035","","348","","","75","78","","","2","78","training","adjacent","GF","7","6","N.jpg","O.jpg","1","0","0","",""
"","feedback","","html-keyboard-response","513","411288","0.0-1.0-708.0-0.0","0","0","20035","","null","","","null","78","","","","","","","","","","","","","","","",""
"","time_out","","html-keyboard-response","514","413291","0.0-1.0-710.0-0.0","0","0","20035","","null","","","null","78","","","","","","","","","","","","","","","",""
"","ITI","","html-keyboard-response","515","414293","0.0-1.0-711.0","0","0","20035","","null","","","null","78","","","","","","","","","","","","","","","NaN",""
"","S1","","html-keyboard-response","516","414546","0.0-1.0-713.0","0","0","20035","","null","","","null","79","","","","","","","","","","","","","","","",""
"","ISI","","html-keyboard-response","517","414698","0.0-1.0-714.0","0","0","20035","","null","","","null","79","NaN","","","","","","","","","","","","","","",""
"","S2","","html-keyboard-response","518","414951","0.0-1.0-715.0","0","0","20035","","null","","","null","79","","NaN","","","","","","","","","","","","","",""
"","response","","html-keyboard-response","519","415236","0.0-1.0-716.0-0.0","0","0","20035","","283","","","75","79","","","2","79","training","adjacent","ED","5","4","Q.jpg","P.jpg","1","0","0","",""
"","feedback","","html-keyboard-response","520","416239","0.0-1.0-717.0-0.0","0","0","20035","","null","","","null","79","","","","","","","","","","","","","","","",""
"","time_out","","html-keyboard-response","521","418241","0.0-1.0-719.0-0.0","0","0","20035","","null","","","null","79","","","","","","","","","","","","","","","",""
"","ITI","","html-keyboard-response","522","419244","0.0-1.0-720.0","0","0","20035","","null","","","null","79","","","","","","","","","","","","","","","NaN",""
"","S1","","html-keyboard-response","523","419498","0.0-1.0-722.0","0","0","20035","","null","","","null","80","","","","","","","","","","","","","","","",""
"","ISI","","html-keyboard-response","524","419651","0.0-1.0-723.0","0","0","20035","","null","","","null","80","NaN","","","","","","","","","","","","","","",""
"","S2","","html-keyboard-response","525","419903","0.0-1.0-724.0","0","0","20035","","null","","","null","80","","NaN","","","","","","","","","","","","","",""
"","response","","html-keyboard-response","526","420133","0.0-1.0-725.0-0.0","0","0","20035","","227","","","75","80","","","2","80","training","adjacent","ED","5","4","Q.jpg","P.jpg","1","0","0","",""
"","feedback","","html-keyboard-response","527","421136","0.0-1.0-726.0-0.0","0","0","20035","","null","","","null","80","","","","","","","","","","","","","","","",""
"","time_out","","html-keyboard-response","528","423138","0.0-1.0-728.0-0.0","0","0","20035","","null","","","null","80","","","","","","","","","","","","","","","",""
"","ITI","","html-keyboard-response","529","424141","0.0-1.0-729.0","0","0","20035","","null","","","null","80","","","","","","","","","","","","","","","NaN",""
"","S1","","html-keyboard-response","530","424393","0.0-1.0-731.0","0","0","20035","","null","","","null","81","","","","","","","","","","","","","","","",""
"","ISI","","html-keyboard-response","531","424546","0.0-1.0-732.0","0","0","20035","","null","","","null","81","NaN","","","","","","","","","","","","","","",""
"","S2","","html-keyboard-response","532","424798","0.0-1.0-733.0","0","0","20035","","null","","","null","81","","NaN","","","","","","","","","","","","","",""
"","response","","html-keyboard-response","533","424948","0.0-1.0-734.0-0.0","0","0","20035","","148","","","75","81","","","2","81","training","adjacent","CB","3","2","R.jpg","L.jpg","1","0","0","",""
"","feedback","","html-keyboard-response","534","425951","0.0-1.0-735.0-0.0","0","0","20035","","null","","","null","81","","","","","","","","","","","","","","","",""
"","time_out","","html-keyboard-response","535","427953","0.0-1.0-737.0-0.0","0","0","20035","","null","","","null","81","","","","","","","","","","","","","","","",""
"","ITI","","html-keyboard-response","536","428956","0.0-1.0-738.0","0","0","20035","","null","","","null","81","","","","","","","","","","","","","","","NaN",""
"","S1","","html-keyboard-response","537","429208","0.0-1.0-740.0","0","0","20035","","null","","","null","82","","","","","","","","","","","","","","","",""
"","ISI","","html-keyboard-response","538","429361","0.0-1.0-741.0","0","0","20035","","null","","","null","82","NaN","","","","","","","","","","","","","","",""
"","S2","","html-keyboard-response","539","429613","0.0-1.0-742.0","0","0","20035","","null","","","null","82","","NaN","","","","","","","","","","","","","",""
"","response","","html-keyboard-response","540","430148","0.0-1.0-743.0-0.0","0","0","20035","","533","","","75","82","","","2","82","training","adjacent","CB","3","2","R.jpg","L.jpg","1","0","0","",""
"","feedback","","html-keyboard-response","541","431152","0.0-1.0-744.0-0.0","0","0","20035","","null","","","null","82","","","","","","","","","","","","","","","",""
"","time_out","","html-keyboard-response","542","433155","0.0-1.0-746.0-0.0","0","0","20035","","null","","","null","82","","","","","","","","","","","","","","","",""
"","ITI","","html-keyboard-response","543","434157","0.0-1.0-747.0","0","0","20035","","null","","","null","82","","","","","","","","","","","","","","","NaN",""
"","S1","","html-keyboard-response","544","434410","0.0-1.0-749.0","0","0","20035","","null","","","null","83","","","","","","","","","","","","","","","",""
"","ISI","","html-keyboard-response","545","434563","0.0-1.0-750.0","0","0","20035","","null","","","null","83","NaN","","","","","","","","","","","","","","",""
"","S2","","html-keyboard-response","546","434816","0.0-1.0-751.0","0","0","20035","","null","","","null","83","","NaN","","","","","","","","","","","","","",""
"","response","","html-keyboard-response","547","434973","0.0-1.0-752.0-0.0","0","0","20035","","155","","","68","83","","","2","83","training","adjacent","BA","2","1","L.jpg","M.jpg","0","0","1","",""
"","feedback","","html-keyboard-response","548","435976","0.0-1.0-753.0-0.0","0","0","20035","","null","","","null","83","","","","","","","","","","","","","","","",""
"","ITI","","html-keyboard-response","549","436979","0.0-1.0-756.0","0","0","20035","","null","","","null","83","","","","","","","","","","","","","","","NaN",""
"","S1","","html-keyboard-response","550","437232","0.0-1.0-758.0","0","0","20035","","null","","","null","84","","","","","","","","","","","","","","","",""
"","ISI","","html-keyboard-response","551","437385","0.0-1.0-759.0","0","0","20035","","null","","","null","84","NaN","","","","","","","","","","","","","","",""
"","S2","","html-keyboard-response","552","437638","0.0-1.0-760.0","0","0","20035","","null","","","null","84","","NaN","","","","","","","","","","","","","",""
"","response","","html-keyboard-response","553","438068","0.0-1.0-761.0-0.0","0","0","20035","","428","","","75","84","","","2","84","training","adjacent","BC","2","3","L.jpg","R.jpg","1","1","1","",""
"","feedback","","html-keyboard-response","554","439071","0.0-1.0-762.0-0.0","0","0","20035","","null","","","null","84","","","","","","","","","","","","","","","",""
"","ITI","","html-keyboard-response","555","440075","0.0-1.0-765.0","0","0","20035","","null","","","null","84","","","","","","","","","","","","","","","NaN",""
"","S1","","html-keyboard-response","556","440327","0.0-1.0-767.0","0","0","20035","","null","","","null","85","","","","","","","","","","","","","","","",""
"","ISI","","html-keyboard-response","557","440479","0.0-1.0-768.0","0","0","20035","","null","","","null","85","NaN","","","","","","","","","","","","","","",""
"","S2","","html-keyboard-response","558","440732","0.0-1.0-769.0","0","0","20035","","null","","","null","85","","NaN","","","","","","","","","","","","","",""
"","response","","html-keyboard-response","559","441149","0.0-1.0-770.0-0.0","0","0","20035","","415","","","75","85","","","2","85","training","adjacent","ED","5","4","Q.jpg","P.jpg","1","0","0","",""
"","feedback","","html-keyboard-response","560","442152","0.0-1.0-771.0-0.0","0","0","20035","","null","","","null","85","","","","","","","","","","","","","","","",""
"","time_out","","html-keyboard-response","561","444155","0.0-1.0-773.0-0.0","0","0","20035","","null","","","null","85","","","","","","","","","","","","","","","",""
"","ITI","","html-keyboard-response","562","445158","0.0-1.0-774.0","0","0","20035","","null","","","null","85","","","","","","","","","","","","","","","NaN",""
"","S1","","html-keyboard-response","563","445411","0.0-1.0-776.0","0","0","20035","","null","","","null","86","","","","","","","","","","","","","","","",""
"","ISI","","html-keyboard-response","564","445569","0.0-1.0-777.0","0","0","20035","","null","","","null","86","NaN","","","","","","","","","","","","","","",""
"","S2","","html-keyboard-response","565","445822","0.0-1.0-778.0","0","0","20035","","null","","","null","86","","NaN","","","","","","","","","","","","","",""
"","response","","html-keyboard-response","566","446124","0.0-1.0-779.0-0.0","0","0","20035","","300","","","75","86","","","2","86","training","adjacent","BA","2","1","L.jpg","M.jpg","1","0","0","",""
"","feedback","","html-keyboard-response","567","447127","0.0-1.0-780.0-0.0","0","0","20035","","null","","","null","86","","","","","","","","","","","","","","","",""
"","time_out","","html-keyboard-response","568","449131","0.0-1.0-782.0-0.0","0","0","20035","","null","","","null","86","","","","","","","","","","","","","","","",""
"","ITI","","html-keyboard-response","569","450133","0.0-1.0-783.0","0","0","20035","","null","","","null","86","","","","","","","","","","","","","","","NaN",""
"","S1","","html-keyboard-response","570","450386","0.0-1.0-785.0","0","0","20035","","null","","","null","87","","","","","","","","","","","","","","","",""
"","ISI","","html-keyboard-response","571","450539","0.0-1.0-786.0","0","0","20035","","null","","","null","87","NaN","","","","","","","","","","","","","","",""
"","S2","","html-keyboard-response","572","450791","0.0-1.0-787.0","0","0","20035","","null","","","null","87","","NaN","","","","","","","","","","","","","",""
"","response","","html-keyboard-response","573","450908","0.0-1.0-788.0-0.0","0","0","20035","","116","","","68","87","","","2","87","training","adjacent","DC","4","3","P.jpg","R.jpg","0","0","1","",""
"","feedback","","html-keyboard-response","574","451911","0.0-1.0-789.0-0.0","0","0","20035","","null","","","null","87","","","","","","","","","","","","","","","",""
"","ITI","","html-keyboard-response","575","452914","0.0-1.0-792.0","0","0","20035","","null","","","null","87","","","","","","","","","","","","","","","NaN",""
"","S1","","html-keyboard-response","576","453167","0.0-1.0-794.0","0","0","20035","","null","","","null","88","","","","","","","","","","","","","","","",""
"","ISI","","html-keyboard-response","577","453320","0.0-1.0-795.0","0","0","20035","","null","","","null","88","NaN","","","","","","","","","","","","","","",""
"","S2","","html-keyboard-response","578","453572","0.0-1.0-796.0","0","0","20035","","null","","","null","88","","NaN","","","","","","","","","","","","","",""
"","response","","html-keyboard-response","579","453933","0.0-1.0-797.0-0.0","0","0","20035","","358","","","68","88","","","2","88","training","adjacent","AB","1","2","M.jpg","L.jpg","0","1","0","",""
"","feedback","","html-keyboard-response","580","454936","0.0-1.0-798.0-0.0","0","0","20035","","null","","","null","88","","","","","","","","","","","","","","","",""
"","time_out","","html-keyboard-response","581","456938","0.0-1.0-800.0-0.0","0","0","20035","","null","","","null","88","","","","","","","","","","","","","","","",""
"","ITI","","html-keyboard-response","582","457942","0.0-1.0-801.0","0","0","20035","","null","","","null","88","","","","","","","","","","","","","","","NaN",""
