"success","ttype","start_time","trial_type","trial_index","time_elapsed","internal_node_id","warning","missed_checkup","PID","view_history","rt","responses","repeat_instructions","key_press","index","keypress_isi","keypress_S2","block","trial_num","phase","group_type","pair_type","S1_stim","S2_stim","S1_img","S2_img","S1_chosen","S1_higher","accuracy","keypress_iti","total_bonus_tally"
"true","full_screen","d04142023hr1940","fullscreen","0","23805","0.0-0.0","0","0","75328","","","","","","","","","","","","","","","","","","","","","",""
"","instructions","","instructions","1","125111","0.0-1.0-0.0-0.0","0","0","75328","[{""page_index"":0,""viewing_time"":31803},{""page_index"":1,""viewing_time"":43314},{""page_index"":2,""viewing_time"":22447},{""page_index"":3,""viewing_time"":3740}]","101304","","","","","","","","","","","","","","","","","","","",""
"","comprehension_check","","survey-multi-choice","2","168940","0.0-1.0-0.0-1.0","0","0","75328","","43824","{""Q0"":""True"",""Q1"":""D"",""Q2"":""Once the second image appears and while the screen 'MAKE A CHOICE' is shown"",""Q3"":""Green mark"",""Q4"":""either D or K""}","0","","","","","","","","","","","","","","","","","",""
"","start_exp","","html-keyboard-response","3","171749","0.0-1.0-1.0","0","0","75328","","2807","","","32","","","","","","","","","","","","","","","","",""
"","S1","","html-keyboard-response","4","172008","0.0-1.0-2.0","0","0","75328","","null","","","null","0","","","","","","","","","","","","","","","",""
"","ISI","","html-keyboard-response","5","173014","0.0-1.0-3.0","0","0","75328","","null","","","null","0","NaN","","","","","","","","","","","","","","",""
"","S2","","html-keyboard-response","6","173265","0.0-1.0-4.0","0","0","75328","","null","","","null","0","","NaN","","","","","","","","","","","","","",""
"","response","","html-keyboard-response","7","175018","0.0-1.0-5.0-0.0","0","0","75328","","null","","","null","0","","","1","0","training","adjacent","FE","6","5","M.jpg","N.jpg","NaN","0","0","",""
"","too_slow_prompt","","html-keyboard-response","8","176026","0.0-1.0-7.0-0.0","1","0","75328","","null","","","null","","","","","","","","","","","","","","","","",""
"","time_out","","html-keyboard-response","9","178029","0.0-1.0-8.0-0.0","0","0","75328","","null","","","null","0","","","","","","","","","","","","","","","",""
"","ITI","","html-keyboard-response","10","179043","0.0-1.0-9.0","0","0","75328","","null","","","null","0","","","","","","","","","","","","","","","NaN",""
"","S1","","html-keyboard-response","11","179312","0.0-1.0-11.0","0","0","75328","","null","","","null","1","","","","","","","","","","","","","","","",""
"","ISI","","html-keyboard-response","12","180322","0.0-1.0-12.0","0","0","75328","","null","","","null","1","NaN","","","","","","","","","","","","","","",""
"","S2","","html-keyboard-response","13","180591","0.0-1.0-13.0","0","0","75328","","null","","","null","1","","NaN","","","","","","","","","","","","","",""
"","response","","html-keyboard-response","14","180865","0.0-1.0-14.0-0.0","0","0","75328","","272","","","75","1","","","1","1","training","adjacent","DC","4","3","R.jpg","L.jpg","0","0","1","",""
"","feedback","","html-keyboard-response","15","181872","0.0-1.0-15.0-0.0","0","0","75328","","null","","","null","1","","","","","","","","","","","","","","","",""
"","ITI","","html-keyboard-response","16","182884","0.0-1.0-18.0","0","0","75328","","null","","","null","1","","","","","","","","","","","","","","","NaN",""
"","S1","","html-keyboard-response","17","183138","0.0-1.0-20.0","0","0","75328","","null","","","null","2","","","","","","","","","","","","","","","",""
"","ISI","","html-keyboard-response","18","184141","0.0-1.0-21.0","0","0","75328","","null","","","null","2","NaN","","","","","","","","","","","","","","",""
"","S2","","html-keyboard-response","19","184396","0.0-1.0-22.0","0","0","75328","","null","","","null","2","","NaN","","","","","","","","","","","","","",""
"","response","","html-keyboard-response","20","184795","0.0-1.0-23.0-0.0","0","0","75328","","398","","","75","2","","","1","2","training","adjacent","CB","3","2","L.jpg","O.jpg","0","0","1","",""
"","feedback","","html-keyboard-response","21","185803","0.0-1.0-24.0-0.0","0","0","75328","","null","","","null","2","","","","","","","","","","","","","","","",""
"","ITI","","html-keyboard-response","22","186816","0.0-1.0-27.0","0","0","75328","","null","","","null","2","","","","","","","","","","","","","","","NaN",""
"","S1","","html-keyboard-response","23","187069","0.0-1.0-29.0","0","0","75328","","null","","","null","3","","","","","","","","","","","","","","","",""
"","ISI","","html-keyboard-response","24","188077","0.0-1.0-30.0","0","0","75328","","null","","","null","3","NaN","","","","","","","","","","","","","","",""
"","S2","","html-keyboard-response","25","188330","0.0-1.0-31.0","0","0","75328","","null","","","null","3","","NaN","","","","","","","","","","","","","",""
"","response","","html-keyboard-response","26","188578","0.0-1.0-32.0-0.0","0","0","75328","","247","","","68","3","","","1","3","training","adjacent","DC","4","3","R.jpg","L.jpg","1","0","0","",""
"","feedback","","html-keyboard-response","27","189581","0.0-1.0-33.0-0.0","0","0","75328","","null","","","null","3","","","","","","","","","","","","","","","",""
"","time_out","","html-keyboard-response","28","191592","0.0-1.0-35.0-0.0","0","0","75328","","null","","","null","3","","","","","","","","","","","","","","","",""
"","ITI","","html-keyboard-response","29","192606","0.0-1.0-36.0","0","0","75328","","null","","","null","3","","","","","","","","","","","","","","","NaN",""
"","S1","","html-keyboard-response","30","192874","0.0-1.0-38.0","0","0","75328","","null","","","null","4","","","","","","","","","","","","","","","",""
"","ISI","","html-keyboard-response","31","193888","0.0-1.0-39.0","0","0","75328","","null","","","null","4","NaN","","","","","","","","","","","","","","",""
"","S2","","html-keyboard-response","32","194154","0.0-1.0-40.0","0","0","75328","","null","","","null","4","","NaN","","","","","","","","","","","","","",""
"","response","","html-keyboard-response","33","194932","0.0-1.0-41.0-0.0","0","0","75328","","776","","","68","4","","","1","4","training","adjacent","GF","7","6","P.jpg","M.jpg","1","0","0","",""
"","feedback","","html-keyboard-response","34","195950","0.0-1.0-42.0-0.0","0","0","75328","","null","","","null","4","","","","","","","","","","","","","","","",""
"","time_out","","html-keyboard-response","35","197962","0.0-1.0-44.0-0.0","0","0","75328","","null","","","null","4","","","","","","","","","","","","","","","",""
"","ITI","","html-keyboard-response","36","198967","0.0-1.0-45.0","0","0","75328","","null","","","null","4","","","","","","","","","","","","","","","NaN",""
"","S1","","html-keyboard-response","37","199220","0.0-1.0-47.0","0","0","75328","","null","","","null","5","","","","","","","","","","","","","","","",""
"","ISI","","html-keyboard-response","38","200234","0.0-1.0-48.0","0","0","75328","","null","","","null","5","NaN","","","","","","","","","","","","","","",""
"","S2","","html-keyboard-response","39","200489","0.0-1.0-49.0","0","0","75328","","null","","","null","5","","NaN","","","","","","","","","","","","","",""
"","response","","html-keyboard-response","40","200661","0.0-1.0-50.0-0.0","0","0","75328","","170","","","68","5","","","1","5","training","adjacent","BC","2","3","O.jpg","L.jpg","1","1","1","",""
"","feedback","","html-keyboard-response","41","201672","0.0-1.0-51.0-0.0","0","0","75328","","null","","","null","5","","","","","","","","","","","","","","","",""
"","ITI","","html-keyboard-response","42","202682","0.0-1.0-54.0","0","0","75328","","null","","","null","5","","","","","","","","","","","","","","","NaN",""
"","S1","","html-keyboard-response","43","202950","0.0-1.0-56.0","0","0","75328","","null","","","null","6","","","","","","","","","","","","","","","",""
"","ISI","","html-keyboard-response","44","203960","0.0-1.0-57.0","0","0","75328","","null","","","null","6","NaN","","","","","","","","","","","","","","",""
"","S2","","html-keyboard-response","45","204214","0.0-1.0-58.0","0","0","75328","","null","","","null","6","","NaN","","","","","","","","","","","","","",""
"","response","","html-keyboard-response","46","204530","0.0-1.0-59.0-0.0","0","0","75328","","314","","","75","6","","","1","6","training","adjacent","CD","3","4","L.jpg","R.jpg","0","1","0","",""
"","feedback","","html-keyboard-response","47","205542","0.0-1.0-60.0-0.0","0","0","75328","","null","","","null","6","","","","","","","","","","","","","","","",""
"","time_out","","html-keyboard-response","48","207552","0.0-1.0-62.0-0.0","0","0","75328","","null","","","null","6","","","","","","","","","","","","","","","",""
"","ITI","","html-keyboard-response","49","208567","0.0-1.0-63.0","0","0","75328","","null","","","null","6","","","","","","","","","","","","","","","NaN",""
"","S1","","html-keyboard-response","50","208820","0.0-1.0-65.0","0","0","75328","","null","","","null","7","","","","","","","","","","","","","","","",""
"","ISI","","html-keyboard-response","51","209832","0.0-1.0-66.0","0","0","75328","","null","","","null","7","NaN","","","","","","","","","","","","","","",""
"","S2","","html-keyboard-response","52","210086","0.0-1.0-67.0","0","0","75328","","null","","","null","7","","NaN","","","","","","","","","","","","","",""
"","response","","html-keyboard-response","53","210345","0.0-1.0-68.0-0.0","0","0","75328","","257","","","68","7","","","1","7","training","adjacent","GF","7","6","P.jpg","M.jpg","1","0","0","",""
"","feedback","","html-keyboard-response","54","211350","0.0-1.0-69.0-0.0","0","0","75328","","null","","","null","7","","","","","","","","","","","","","","","",""
"","time_out","","html-keyboard-response","55","213354","0.0-1.0-71.0-0.0","0","0","75328","","null","","","null","7","","","","","","","","","","","","","","","",""
"","ITI","","html-keyboard-response","56","214360","0.0-1.0-72.0","0","0","75328","","null","","","null","7","","","","","","","","","","","","","","","NaN",""
"","S1","","html-keyboard-response","57","214614","0.0-1.0-74.0","0","0","75328","","null","","","null","8","","","","","","","","","","","","","","","",""
"","ISI","","html-keyboard-response","58","215617","0.0-1.0-75.0","0","0","75328","","null","","","null","8","NaN","","","","","","","","","","","","","","",""
"","S2","","html-keyboard-response","59","215884","0.0-1.0-76.0","0","0","75328","","null","","","null","8","","NaN","","","","","","","","","","","","","",""
"","response","","html-keyboard-response","60","216182","0.0-1.0-77.0-0.0","0","0","75328","","297","","","75","8","","","1","8","training","adjacent","GF","7","6","P.jpg","M.jpg","0","0","1","",""
"","feedback","","html-keyboard-response","61","217200","0.0-1.0-78.0-0.0","0","0","75328","","null","","","null","8","","","","","","","","","","","","","","","",""
"","ITI","","html-keyboard-response","62","218217","0.0-1.0-81.0","0","0","75328","","null","","","null","8","","","","","","","","","","","","","","","NaN",""
"","S1","","html-keyboard-response","63","218470","0.0-1.0-83.0","0","0","75328","","null","","","null","9","","","","","","","","","","","","","","","",""
"","ISI","","html-keyboard-response","64","219472","0.0-1.0-84.0","0","0","75328","","null","","","null","9","NaN","","","","","","","","","","","","","","",""
"","S2","","html-keyboard-response","65","219726","0.0-1.0-85.0","0","0","75328","","null","","","null","9","","NaN","","","","","","","","","","","","","",""
"","response","","html-keyboard-response","66","220178","0.0-1.0-86.0-0.0","0","0","75328","","449","","","68","9","","","1","9","training","adjacent","BA","2","1","O.jpg","Q.jpg","1","0","0","",""
"","feedback","","html-keyboard-response","67","221186","0.0-1.0-87.0-0.0","0","0","75328","","null","","","null","9","","","","","","","","","","","","","","","",""
"","time_out","","html-keyboard-response","68","223198","0.0-1.0-89.0-0.0","0","0","75328","","null","","","null","9","","","","","","","","","","","","","","","",""
"","ITI","","html-keyboard-response","69","224201","0.0-1.0-90.0","0","0","75328","","null","","","null","9","","","","","","","","","","","","","","","NaN",""
"","S1","","html-keyboard-response","70","224453","0.0-1.0-92.0","0","0","75328","","null","","","null","10","","","","","","","","","","","","","","","",""
"","ISI","","html-keyboard-response","71","225469","0.0-1.0-93.0","0","0","75328","","null","","","null","10","NaN","","","","","","","","","","","","","","",""
"","S2","","html-keyboard-response","72","225723","0.0-1.0-94.0","0","0","75328","","null","","","null","10","","NaN","","","","","","","","","","","","","",""
"","response","","html-keyboard-response","73","226339","0.0-1.0-95.0-0.0","0","0","75328","","614","","","75","10","","","1","10","training","adjacent","CD","3","4","L.jpg","R.jpg","0","1","0","",""
"","feedback","","html-keyboard-response","74","227346","0.0-1.0-96.0-0.0","0","0","75328","","null","","","null","10","","","","","","","","","","","","","","","",""
"","time_out","","html-keyboard-response","75","229357","0.0-1.0-98.0-0.0","0","0","75328","","null","","","null","10","","","","","","","","","","","","","","","",""
"","ITI","","html-keyboard-response","76","230371","0.0-1.0-99.0","0","0","75328","","null","","","null","10","","","","","","","","","","","","","","","NaN",""
"","S1","","html-keyboard-response","77","230638","0.0-1.0-101.0","0","0","75328","","null","","","null","11","","","","","","","","","","","","","","","",""
"","ISI","","html-keyboard-response","78","231649","0.0-1.0-102.0","0","0","75328","","null","","","null","11","NaN","","","","","","","","","","","","","","",""
"","S2","","html-keyboard-response","79","231916","0.0-1.0-103.0","0","0","75328","","null","","","null","11","","NaN","","","","","","","","","","","","","",""
"","response","","html-keyboard-response","80","232327","0.0-1.0-104.0-0.0","0","0","75328","","410","","","75","11","","","1","11","training","adjacent","FG","6","7","M.jpg","P.jpg","0","1","0","",""
"","feedback","","html-keyboard-response","81","233336","0.0-1.0-105.0-0.0","0","0","75328","","null","","","null","11","","","","","","","","","","","","","","","",""
"","time_out","","html-keyboard-response","82","235346","0.0-1.0-107.0-0.0","0","0","75328","","null","","","null","11","","","","","","","","","","","","","","","",""
"","ITI","","html-keyboard-response","83","236350","0.0-1.0-108.0","0","0","75328","","null","","","null","11","","","","","","","","","","","","","","","NaN",""
"","S1","","html-keyboard-response","84","236619","0.0-1.0-110.0","0","0","75328","","null","","","null","12","","","","","","","","","","","","","","","",""
"","ISI","","html-keyboard-response","85","237628","0.0-1.0-111.0","0","0","75328","","null","","","null","12","NaN","","","","","","","","","","","","","","",""
"","S2","","html-keyboard-response","86","237896","0.0-1.0-112.0","0","0","75328","","null","","","null","12","","NaN","","","","","","","","","","","","","",""
"","response","","html-keyboard-response","87","238465","0.0-1.0-113.0-0.0","0","0","75328","","567","","","68","12","","","1","12","training","adjacent","AB","1","2","Q.jpg","O.jpg","1","1","1","",""
"","feedback","","html-keyboard-response","88","239477","0.0-1.0-114.0-0.0","0","0","75328","","null","","","null","12","","","","","","","","","","","","","","","",""
"","ITI","","html-keyboard-response","89","240485","0.0-1.0-117.0","0","0","75328","","null","","","null","12","","","","","","","","","","","","","","","NaN",""
"","S1","","html-keyboard-response","90","240739","0.0-1.0-119.0","0","0","75328","","null","","","null","13","","","","","","","","","","","","","","","",""
"","ISI","","html-keyboard-response","91","241749","0.0-1.0-120.0","0","0","75328","","null","","","null","13","NaN","","","","","","","","","","","","","","",""
"","S2","","html-keyboard-response","92","242015","0.0-1.0-121.0","0","0","75328","","null","","","null","13","","NaN","","","","","","","","","","","","","",""
"","response","","html-keyboard-response","93","243044","0.0-1.0-122.0-0.0","0","0","75328","","1026","","","68","13","","","1","13","training","adjacent","ED","5","4","N.jpg","R.jpg","1","0","0","",""
"","feedback","","html-keyboard-response","94","244050","0.0-1.0-123.0-0.0","0","0","75328","","null","","","null","13","","","","","","","","","","","","","","","",""
"","time_out","","html-keyboard-response","95","246057","0.0-1.0-125.0-0.0","0","0","75328","","null","","","null","13","","","","","","","","","","","","","","","",""
"","ITI","","html-keyboard-response","96","247065","0.0-1.0-126.0","0","0","75328","","null","","","null","13","","","","","","","","","","","","","","","NaN",""
"","S1","","html-keyboard-response","97","247332","0.0-1.0-128.0","0","0","75328","","null","","","null","14","","","","","","","","","","","","","","","",""
"","ISI","","html-keyboard-response","98","248344","0.0-1.0-129.0","0","0","75328","","null","","","null","14","NaN","","","","","","","","","","","","","","",""
"","S2","","html-keyboard-response","99","248597","0.0-1.0-130.0","0","0","75328","","null","","","null","14","","NaN","","","","","","","","","","","","","",""
"","response","","html-keyboard-response","100","249322","0.0-1.0-131.0-0.0","0","0","75328","","722","","","68","14","","","1","14","training","adjacent","FG","6","7","M.jpg","P.jpg","1","1","1","",""
"","feedback","","html-keyboard-response","101","250336","0.0-1.0-132.0-0.0","0","0","75328","","null","","","null","14","","","","","","","","","","","","","","","",""
"","ITI","","html-keyboard-response","102","251342","0.0-1.0-135.0","0","0","75328","","null","","","null","14","","","","","","","","","","","","","","","NaN",""
"","S1","","html-keyboard-response","103","251595","0.0-1.0-137.0","0","0","75328","","null","","","null","15","","","","","","","","","","","","","","","",""
"","ISI","","html-keyboard-response","104","252609","0.0-1.0-138.0","0","0","75328","","null","","","null","15","NaN","","","","","","","","","","","","","","",""
"","S2","","html-keyboard-response","105","252864","0.0-1.0-139.0","0","0","75328","","null","","","null","15","","NaN","","","","","","","","","","","","","",""
"","response","","html-keyboard-response","106","253140","0.0-1.0-140.0-0.0","0","0","75328","","274","","","75","15","","","1","15","training","adjacent","AB","1","2","Q.jpg","O.jpg","0","1","0","",""
"","feedback","","html-keyboard-response","107","254152","0.0-1.0-141.0-0.0","0","0","75328","","null","","","null","15","","","","","","","","","","","","","","","",""
"","time_out","","html-keyboard-response","108","256157","0.0-1.0-143.0-0.0","0","0","75328","","null","","","null","15","","","","","","","","","","","","","","","",""
"","ITI","","html-keyboard-response","109","257160","0.0-1.0-144.0","0","0","75328","","null","","","null","15","","","","","","","","","","","","","","","NaN",""
"","S1","","html-keyboard-response","110","257428","0.0-1.0-146.0","0","0","75328","","null","","","null","16","","","","","","","","","","","","","","","",""
"","ISI","","html-keyboard-response","111","258435","0.0-1.0-147.0","0","0","75328","","null","","","null","16","NaN","","","","","","","","","","","","","","",""
"","S2","","html-keyboard-response","112","258702","0.0-1.0-148.0","0","0","75328","","null","","","null","16","","NaN","","","","","","","","","","","","","",""
"","response","","html-keyboard-response","113","259071","0.0-1.0-149.0-0.0","0","0","75328","","367","","","75","16","","","1","16","training","adjacent","EF","5","6","N.jpg","M.jpg","0","1","0","",""
"","feedback","","html-keyboard-response","114","260085","0.0-1.0-150.0-0.0","0","0","75328","","null","","","null","16","","","","","","","","","","","","","","","",""
"","time_out","","html-keyboard-response","115","262095","0.0-1.0-152.0-0.0","0","0","75328","","null","","","null","16","","","","","","","","","","","","","","","",""
"","ITI","","html-keyboard-response","116","263099","0.0-1.0-153.0","0","0","75328","","null","","","null","16","","","","","","","","","","","","","","","NaN",""
"","S1","","html-keyboard-response","117","263353","0.0-1.0-155.0","0","0","75328","","null","","","null","17","","","","","","","","","","","","","","","",""
"","ISI","","html-keyboard-response","118","264363","0.0-1.0-156.0","0","0","75328","","null","","","null","17","NaN","","","","","","","","","","","","","","",""
"","S2","","html-keyboard-response","119","264616","0.0-1.0-157.0","0","0","75328","","null","","","null","17","","NaN","","","","","","","","","","","","","",""
"","response","","html-keyboard-response","120","265182","0.0-1.0-158.0-0.0","0","0","75328","","565","","","75","17","","","1","17","training","adjacent","BA","2","1","O.jpg","Q.jpg","0","0","1","",""
"","feedback","","html-keyboard-response","121","266196","0.0-1.0-159.0-0.0","0","0","75328","","null","","","null","17","","","","","","","","","","","","","","","",""
"","ITI","","html-keyboard-response","122","267204","0.0-1.0-162.0","0","0","75328","","null","","","null","17","","","","","","","","","","","","","","","NaN",""
"","S1","","html-keyboard-response","123","267457","0.0-1.0-164.0","0","0","75328","","null","","","null","18","","","","","","","","","","","","","","","",""
"","ISI","","html-keyboard-response","124","268467","0.0-1.0-165.0","0","0","75328","","null","","","null","18","NaN","","","","","","","","","","","","","","",""
"","S2","","html-keyboard-response","125","268719","0.0-1.0-166.0","0","0","75328","","null","","","null","18","","NaN","","","","","","","","","","","","","",""
"","response","","html-keyboard-response","126","269611","0.0-1.0-167.0-0.0","0","0","75328","","891","","","75","18","","","1","18","training","adjacent","EF","5","6","N.jpg","M.jpg","0","1","0","",""
"","feedback","","html-keyboard-response","127","270629","0.0-1.0-168.0-0.0","0","0","75328","","null","","","null","18","","","","","","","","","","","","","","","",""
"","time_out","","html-keyboard-response","128","272640","0.0-1.0-170.0-0.0","0","0","75328","","null","","","null","18","","","","","","","","","","","","","","","",""
"","ITI","","html-keyboard-response","129","273655","0.0-1.0-171.0","0","0","75328","","null","","","null","18","","","","","","","","","","","","","","","NaN",""
"","S1","","html-keyboard-response","130","273908","0.0-1.0-173.0","0","0","75328","","null","","","null","19","","","","","","","","","","","","","","","",""
"","ISI","","html-keyboard-response","131","274923","0.0-1.0-174.0","0","0","75328","","null","","","null","19","NaN","","","","","","","","","","","","","","",""
"","S2","","html-keyboard-response","132","275177","0.0-1.0-175.0","0","0","75328","","null","","","null","19","","NaN","","","","","","","","","","","","","",""
"","response","","html-keyboard-response","133","275345","0.0-1.0-176.0-0.0","0","0","75328","","167","","","75","19","","","1","19","training","adjacent","BA","2","1","O.jpg","Q.jpg","0","0","1","",""
"","feedback","","html-keyboard-response","134","276362","0.0-1.0-177.0-0.0","0","0","75328","","null","","","null","19","","","","","","","","","","","","","","","",""
"","ITI","","html-keyboard-response","135","277374","0.0-1.0-180.0","0","0","75328","","null","","","null","19","","","","","","","","","","","","","","","NaN",""
"","S1","","html-keyboard-response","136","277630","0.0-1.0-182.0","0","0","75328","","null","","","null","20","","","","","","","","","","","","","","","",""
"","ISI","","html-keyboard-response","137","278642","0.0-1.0-183.0","0","0","75328","","null","","","null","20","NaN","","","","","","","","","","","","","","",""
"","S2","","html-keyboard-response","138","278896","0.0-1.0-184.0","0","0","75328","","null","","","null","20","","NaN","","","","","","","","","","","","","",""
"","response","","html-keyboard-response","139","279122","0.0-1.0-185.0-0.0","0","0","75328","","225","","","68","20","","","1","20","training","adjacent","FE","6","5","M.jpg","N.jpg","1","0","0","",""
"","feedback","","html-keyboard-response","140","280126","0.0-1.0-186.0-0.0","0","0","75328","","null","","","null","20","","","","","","","","","","","","","","","",""
"","time_out","","html-keyboard-response","141","282132","0.0-1.0-188.0-0.0","0","0","75328","","null","","","null","20","","","","","","","","","","","","","","","",""
"","ITI","","html-keyboard-response","142","283144","0.0-1.0-189.0","0","0","75328","","null","","","null","20","","","","","","","","","","","","","","","NaN",""
"","S1","","html-keyboard-response","143","283399","0.0-1.0-191.0","0","0","75328","","null","","","null","21","","","","","","","","","","","","","","","",""
"","ISI","","html-keyboard-response","144","284403","0.0-1.0-192.0","0","0","75328","","null","","","null","21","NaN","","","","","","","","","","","","","","",""
"","S2","","html-keyboard-response","145","284656","0.0-1.0-193.0","0","0","75328","","null","","","null","21","","NaN","","","","","","","","","","","","","",""
"","response","","html-keyboard-response","146","285154","0.0-1.0-194.0-0.0","0","0","75328","","496","","","68","21","","","1","21","training","adjacent","CD","3","4","L.jpg","R.jpg","1","1","1","",""
"","feedback","","html-keyboard-response","147","286164","0.0-1.0-195.0-0.0","0","0","75328","","null","","","null","21","","","","","","","","","","","","","","","",""
"","ITI","","html-keyboard-response","148","287173","0.0-1.0-198.0","0","0","75328","","null","","","null","21","","","","","","","","","","","","","","","NaN",""
"","S1","","html-keyboard-response","149","287426","0.0-1.0-200.0","0","0","75328","","null","","","null","22","","","","","","","","","","","","","","","",""
"","ISI","","html-keyboard-response","150","288434","0.0-1.0-201.0","0","0","75328","","null","","","null","22","NaN","","","","","","","","","","","","","","",""
"","S2","","html-keyboard-response","151","288688","0.0-1.0-202.0","0","0","75328","","null","","","null","22","","NaN","","","","","","","","","","","","","",""
"","response","","html-keyboard-response","152","289315","0.0-1.0-203.0-0.0","0","0","75328","","624","","","68","22","","","1","22","training","adjacent","FG","6","7","M.jpg","P.jpg","1","1","1","",""
"","feedback","","html-keyboard-response","153","290327","0.0-1.0-204.0-0.0","0","0","75328","","null","","","null","22","","","","","","","","","","","","","","","",""
"","ITI","","html-keyboard-response","154","291339","0.0-1.0-207.0","0","0","75328","","642","","","68","22","","","","","","","","","","","","","","","d",""
"","S1","","html-keyboard-response","155","291592","0.0-1.0-209.0","0","0","75328","","null","","","null","23","","","","","","","","","","","","","","","",""
"","ISI","","html-keyboard-response","156","292607","0.0-1.0-210.0","0","0","75328","","null","","","null","23","NaN","","","","","","","","","","","","","","",""
"","S2","","html-keyboard-response","157","292862","0.0-1.0-211.0","0","0","75328","","null","","","null","23","","NaN","","","","","","","","","","","","","",""
"","response","","html-keyboard-response","158","293297","0.0-1.0-212.0-0.0","0","0","75328","","433","","","75","23","","","1","23","training","adjacent","EF","5","6","N.jpg","M.jpg","0","1","0","",""
"","feedback","","html-keyboard-response","159","294309","0.0-1.0-213.0-0.0","0","0","75328","","null","","","null","23","","","","","","","","","","","","","","","",""
"","time_out","","html-keyboard-response","160","296313","0.0-1.0-215.0-0.0","0","0","75328","","null","","","null","23","","","","","","","","","","","","","","","",""
"","ITI","","html-keyboard-response","161","297323","0.0-1.0-216.0","0","0","75328","","null","","","null","23","","","","","","","","","","","","","","","NaN",""
"","S1","","html-keyboard-response","162","297574","0.0-1.0-218.0","0","0","75328","","null","","","null","24","","","","","","","","","","","","","","","",""
"","ISI","","html-keyboard-response","163","298580","0.0-1.0-219.0","0","0","75328","","null","","","null","24","NaN","","","","","","","","","","","","","","",""
"","S2","","html-keyboard-response","164","298836","0.0-1.0-220.0","0","0","75328","","null","","","null","24","","NaN","","","","","","","","","","","","","",""
"","response","","html-keyboard-response","165","298958","0.0-1.0-221.0-0.0","0","0","75328","","121","","","75","24","","","1","24","training","adjacent","EF","5","6","N.jpg","M.jpg","0","1","0","",""
"","feedback","","html-keyboard-response","166","299966","0.0-1.0-222.0-0.0","0","0","75328","","null","","","null","24","","","","","","","","","","","","","","","",""
"","time_out","","html-keyboard-response","167","301982","0.0-1.0-224.0-0.0","0","0","75328","","null","","","null","24","","","","","","","","","","","","","","","",""
"","ITI","","html-keyboard-response","168","302985","0.0-1.0-225.0","0","0","75328","","null","","","null","24","","","","","","","","","","","","","","","NaN",""
"","S1","","html-keyboard-response","169","303237","0.0-1.0-227.0","0","0","75328","","null","","","null","25","","","","","","","","","","","","","","","",""
"","ISI","","html-keyboard-response","170","304241","0.0-1.0-228.0","0","0","75328","","null","","","null","25","NaN","","","","","","","","","","","","","","",""
"","S2","","html-keyboard-response","171","304498","0.0-1.0-229.0","0","0","75328","","254","","","68","25","","d","1","25","training","adjacent","BA","2","1","O.jpg","Q.jpg","1","0","0","",""
"","feedback","","html-keyboard-response","172","305500","0.0-1.0-231.0-0.0","0","0","75328","","null","","","null","25","","","","","","","","","","","","","","","",""
"","time_out","","html-keyboard-response","173","307516","0.0-1.0-233.0-0.0","0","0","75328","","null","","","null","25","","","","","","","","","","","","","","","",""
"","ITI","","html-keyboard-response","174","308525","0.0-1.0-234.0","0","0","75328","","null","","","null","25","","","","","","","","","","","","","","","NaN",""
"","S1","","html-keyboard-response","175","308792","0.0-1.0-236.0","0","0","75328","","null","","","null","26","","","","","","","","","","","","","","","",""
"","ISI","","html-keyboard-response","176","309801","0.0-1.0-237.0","0","0","75328","","null","","","null","26","NaN","","","","","","","","","","","","","","",""
"","S2","","html-keyboard-response","177","310068","0.0-1.0-238.0","0","0","75328","","null","","","null","26","","NaN","","","","","","","","","","","","","",""
"","response","","html-keyboard-response","178","310090","0.0-1.0-239.0-0.0","0","0","75328","","21","","","68","26","","","1","26","training","adjacent","CD","3","4","L.jpg","R.jpg","1","1","1","",""
"","feedback","","html-keyboard-response","179","311099","0.0-1.0-240.0-0.0","0","0","75328","","null","","","null","26","","","","","","","","","","","","","","","",""
"","ITI","","html-keyboard-response","180","312109","0.0-1.0-243.0","0","0","75328","","null","","","null","26","","","","","","","","","","","","","","","NaN",""
"","S1","","html-keyboard-response","181","312378","0.0-1.0-245.0","0","0","75328","","null","","","null","27","","","","","","","","","","","","","","","",""
"","ISI","","html-keyboard-response","182","313388","0.0-1.0-246.0","0","0","75328","","null","","","null","27","NaN","","","","","","","","","","","","","","",""
"","S2","","html-keyboard-response","183","313656","0.0-1.0-247.0","0","0","75328","","null","","","null","27","","NaN","","","","","","","","","","","","","",""
"","response","","html-keyboard-response","184","313660","0.0-1.0-248.0-0.0","0","0","75328","","3","","","75","27","","","1","27","training","adjacent","AB","1","2","Q.jpg","O.jpg","0","1","0","",""
"","feedback","","html-keyboard-response","185","314669","0.0-1.0-249.0-0.0","0","0","75328","","null","","","null","27","","","","","","","","","","","","","","","",""
"","time_out","","html-keyboard-response","186","316675","0.0-1.0-251.0-0.0","0","0","75328","","null","","","null","27","","","","","","","","","","","","","","","",""
"","ITI","","html-keyboard-response","187","317680","0.0-1.0-252.0","0","0","75328","","null","","","null","27","","","","","","","","","","","","","","","NaN",""
"","S1","","html-keyboard-response","188","317933","0.0-1.0-254.0","0","0","75328","","null","","","null","28","","","","","","","","","","","","","","","",""
"","ISI","","html-keyboard-response","189","318947","0.0-1.0-255.0","0","0","75328","","null","","","null","28","NaN","","","","","","","","","","","","","","",""
"","S2","","html-keyboard-response","190","319201","0.0-1.0-256.0","0","0","75328","","null","","","null","28","","NaN","","","","","","","","","","","","","",""
"","response","","html-keyboard-response","191","319560","0.0-1.0-257.0-0.0","0","0","75328","","358","","","68","28","","","1","28","training","adjacent","ED","5","4","N.jpg","R.jpg","1","0","0","",""
"","feedback","","html-keyboard-response","192","320568","0.0-1.0-258.0-0.0","0","0","75328","","null","","","null","28","","","","","","","","","","","","","","","",""
"","time_out","","html-keyboard-response","193","322574","0.0-1.0-260.0-0.0","0","0","75328","","null","","","null","28","","","","","","","","","","","","","","","",""
"","ITI","","html-keyboard-response","194","323584","0.0-1.0-261.0","0","0","75328","","null","","","null","28","","","","","","","","","","","","","","","NaN",""
"","S1","","html-keyboard-response","195","323838","0.0-1.0-263.0","0","0","75328","","null","","","null","29","","","","","","","","","","","","","","","",""
"","ISI","","html-keyboard-response","196","324855","0.0-1.0-264.0","0","0","75328","","null","","","null","29","NaN","","","","","","","","","","","","","","",""
"","S2","","html-keyboard-response","197","325109","0.0-1.0-265.0","0","0","75328","","null","","","null","29","","NaN","","","","","","","","","","","","","",""
"","response","","html-keyboard-response","198","325367","0.0-1.0-266.0-0.0","0","0","75328","","256","","","75","29","","","1","29","training","adjacent","FG","6","7","M.jpg","P.jpg","0","1","0","",""
"","feedback","","html-keyboard-response","199","326386","0.0-1.0-267.0-0.0","0","0","75328","","null","","","null","29","","","","","","","","","","","","","","","",""
"","time_out","","html-keyboard-response","200","328402","0.0-1.0-269.0-0.0","0","0","75328","","null","","","null","29","","","","","","","","","","","","","","","",""
"","ITI","","html-keyboard-response","201","329416","0.0-1.0-270.0","0","0","75328","","null","","","null","29","","","","","","","","","","","","","","","NaN",""
"","S1","","html-keyboard-response","202","329669","0.0-1.0-272.0","0","0","75328","","null","","","null","30","","","","","","","","","","","","","","","",""
"","ISI","","html-keyboard-response","203","330685","0.0-1.0-273.0","0","0","75328","","null","","","null","30","NaN","","","","","","","","","","","","","","",""
"","S2","","html-keyboard-response","204","330897","0.0-1.0-274.0","0","0","75328","","210","","","68","30","","d","1","30","training","adjacent","BC","2","3","O.jpg","L.jpg","1","1","1","",""
"","feedback","","html-keyboard-response","205","331907","0.0-1.0-276.0-0.0","0","0","75328","","null","","","null","30","","","","","","","","","","","","","","","",""
"","ITI","","html-keyboard-response","206","332911","0.0-1.0-279.0","0","0","75328","","null","","","null","30","","","","","","","","","","","","","","","NaN",""
"","S1","","html-keyboard-response","207","333164","0.0-1.0-281.0","0","0","75328","","null","","","null","31","","","","","","","","","","","","","","","",""
"","ISI","","html-keyboard-response","208","334177","0.0-1.0-282.0","0","0","75328","","null","","","null","31","NaN","","","","","","","","","","","","","","",""
"","S2","","html-keyboard-response","209","334410","0.0-1.0-283.0","0","0","75328","","230","","","68","31","","d","1","31","training","adjacent","DC","4","3","R.jpg","L.jpg","1","0","0","",""
"","feedback","","html-keyboard-response","210","335421","0.0-1.0-285.0-0.0","0","0","75328","","null","","","null","31","","","","","","","","","","","","","","","",""
"","time_out","","html-keyboard-response","211","337438","0.0-1.0-287.0-0.0","0","0","75328","","null","","","null","31","","","","","","","","","","","","","","","",""
"","ITI","","html-keyboard-response","212","338442","0.0-1.0-288.0","0","0","75328","","null","","","null","31","","","","","","","","","","","","","","","NaN",""
"","S1","","html-keyboard-response","213","338710","0.0-1.0-290.0","0","0","75328","","null","","","null","32","","","","","","","","","","","","","","","",""
"","ISI","","html-keyboard-response","214","339717","0.0-1.0-291.0","0","0","75328","","null","","","null","32","NaN","","","","","","","","","","","","","","",""
"","S2","","html-keyboard-response","215","339970","0.0-1.0-292.0","0","0","75328","","null","","","null","32","","NaN","","","","","","","","","","","","","",""
"","response","","html-keyboard-response","216","340183","0.0-1.0-293.0-0.0","0","0","75328","","212","","","75","32","","","1","32","training","adjacent","DE","4","5","R.jpg","N.jpg","0","1","0","",""
"","feedback","","html-keyboard-response","217","341199","0.0-1.0-294.0-0.0","0","0","75328","","null","","","null","32","","","","","","","","","","","","","","","",""
"","time_out","","html-keyboard-response","218","343216","0.0-1.0-296.0-0.0","0","0","75328","","null","","","null","32","","","","","","","","","","","","","","","",""
"","ITI","","html-keyboard-response","219","344229","0.0-1.0-297.0","0","0","75328","","null","","","null","32","","","","","","","","","","","","","","","NaN",""
"","S1","","html-keyboard-response","220","344482","0.0-1.0-299.0","0","0","75328","","null","","","null","33","","","","","","","","","","","","","","","",""
"","ISI","","html-keyboard-response","221","345492","0.0-1.0-300.0","0","0","75328","","null","","","null","33","NaN","","","","","","","","","","","","","","",""
"","S2","","html-keyboard-response","222","345720","0.0-1.0-301.0","0","0","75328","","226","","","75","33","","k","1","33","training","adjacent","GF","7","6","P.jpg","M.jpg","0","0","1","",""
"","feedback","","html-keyboard-response","223","346735","0.0-1.0-303.0-0.0","0","0","75328","","null","","","null","33","","","","","","","","","","","","","","","",""
"","ITI","","html-keyboard-response","224","347743","0.0-1.0-306.0","0","0","75328","","null","","","null","33","","","","","","","","","","","","","","","NaN",""
"","S1","","html-keyboard-response","225","347996","0.0-1.0-308.0","0","0","75328","","null","","","null","34","","","","","","","","","","","","","","","",""
"","ISI","","html-keyboard-response","226","349014","0.0-1.0-309.0","0","0","75328","","null","","","null","34","NaN","","","","","","","","","","","","","","",""
"","S2","","html-keyboard-response","227","349268","0.0-1.0-310.0","0","0","75328","","null","","","null","34","","NaN","","","","","","","","","","","","","",""
"","response","","html-keyboard-response","228","349628","0.0-1.0-311.0-0.0","0","0","75328","","358","","","75","34","","","1","34","training","adjacent","CB","3","2","L.jpg","O.jpg","0","0","1","",""
"","feedback","","html-keyboard-response","229","350637","0.0-1.0-312.0-0.0","0","0","75328","","null","","","null","34","","","","","","","","","","","","","","","",""
"","ITI","","html-keyboard-response","230","351643","0.0-1.0-315.0","0","0","75328","","null","","","null","34","","","","","","","","","","","","","","","NaN",""
"","S1","","html-keyboard-response","231","351910","0.0-1.0-317.0","0","0","75328","","null","","","null","35","","","","","","","","","","","","","","","",""
"","ISI","","html-keyboard-response","232","352917","0.0-1.0-318.0","0","0","75328","","null","","","null","35","NaN","","","","","","","","","","","","","","",""
"","S2","","html-keyboard-response","233","353170","0.0-1.0-319.0","0","0","75328","","null","","","null","35","","NaN","","","","","","","","","","","","","",""
"","response","","html-keyboard-response","234","354013","0.0-1.0-320.0-0.0","0","0","75328","","841","","","75","35","","","1","35","training","adjacent","DE","4","5","R.jpg","N.jpg","0","1","0","",""
"","feedback","","html-keyboard-response","235","355029","0.0-1.0-321.0-0.0","0","0","75328","","null","","","null","35","","","","","","","","","","","","","","","",""
"","time_out","","html-keyboard-response","236","357036","0.0-1.0-323.0-0.0","0","0","75328","","null","","","null","35","","","","","","","","","","","","","","","",""
"","ITI","","html-keyboard-response","237","358049","0.0-1.0-324.0","0","0","75328","","null","","","null","35","","","","","","","","","","","","","","","NaN",""
"","S1","","html-keyboard-response","238","358304","0.0-1.0-326.0","0","0","75328","","null","","","null","36","","","","","","","","","","","","","","","",""
"","ISI","","html-keyboard-response","239","359317","0.0-1.0-327.0","0","0","75328","","null","","","null","36","NaN","","","","","","","","","","","","","","",""
"","S2","","html-keyboard-response","240","359572","0.0-1.0-328.0","0","0","75328","","null","","","null","36","","NaN","","","","","","","","","","","","","",""
"","response","","html-keyboard-response","241","360200","0.0-1.0-329.0-0.0","0","0","75328","","625","","","68","36","","","1","36","training","adjacent","DE","4","5","R.jpg","N.jpg","1","1","1","",""
"","feedback","","html-keyboard-response","242","361208","0.0-1.0-330.0-0.0","0","0","75328","","null","","","null","36","","","","","","","","","","","","","","","",""
"","ITI","","html-keyboard-response","243","362219","0.0-1.0-333.0","0","0","75328","","null","","","null","36","","","","","","","","","","","","","","","NaN",""
"","S1","","html-keyboard-response","244","362473","0.0-1.0-335.0","0","0","75328","","null","","","null","37","","","","","","","","","","","","","","","",""
"","ISI","","html-keyboard-response","245","363480","0.0-1.0-336.0","0","0","75328","","null","","","null","37","NaN","","","","","","","","","","","","","","",""
"","S2","","html-keyboard-response","246","363733","0.0-1.0-337.0","0","0","75328","","null","","","null","37","","NaN","","","","","","","","","","","","","",""
"","response","","html-keyboard-response","247","364194","0.0-1.0-338.0-0.0","0","0","75328","","459","","","68","37","","","1","37","training","adjacent","ED","5","4","N.jpg","R.jpg","1","0","0","",""
"","feedback","","html-keyboard-response","248","365202","0.0-1.0-339.0-0.0","0","0","75328","","null","","","null","37","","","","","","","","","","","","","","","",""
"","time_out","","html-keyboard-response","249","367205","0.0-1.0-341.0-0.0","0","0","75328","","null","","","null","37","","","","","","","","","","","","","","","",""
"","ITI","","html-keyboard-response","250","368214","0.0-1.0-342.0","0","0","75328","","null","","","null","37","","","","","","","","","","","","","","","NaN",""
"","S1","","html-keyboard-response","251","368466","0.0-1.0-344.0","0","0","75328","","null","","","null","38","","","","","","","","","","","","","","","",""
"","ISI","","html-keyboard-response","252","369479","0.0-1.0-345.0","0","0","75328","","null","","","null","38","NaN","","","","","","","","","","","","","","",""
"","S2","","html-keyboard-response","253","369732","0.0-1.0-346.0","0","0","75328","","null","","","null","38","","NaN","","","","","","","","","","","","","",""
"","response","","html-keyboard-response","254","370202","0.0-1.0-347.0-0.0","0","0","75328","","467","","","68","38","","","1","38","training","adjacent","DE","4","5","R.jpg","N.jpg","1","1","1","",""
"","feedback","","html-keyboard-response","255","371207","0.0-1.0-348.0-0.0","0","0","75328","","null","","","null","38","","","","","","","","","","","","","","","",""
"","ITI","","html-keyboard-response","256","372218","0.0-1.0-351.0","0","0","75328","","null","","","null","38","","","","","","","","","","","","","","","NaN",""
"","S1","","html-keyboard-response","257","372470","0.0-1.0-353.0","0","0","75328","","null","","","null","39","","","","","","","","","","","","","","","",""
"","ISI","","html-keyboard-response","258","373482","0.0-1.0-354.0","0","0","75328","","null","","","null","39","NaN","","","","","","","","","","","","","","",""
"","S2","","html-keyboard-response","259","373736","0.0-1.0-355.0","0","0","75328","","null","","","null","39","","NaN","","","","","","","","","","","","","",""
"","response","","html-keyboard-response","260","374104","0.0-1.0-356.0-0.0","0","0","75328","","368","","","68","39","","","1","39","training","adjacent","CB","3","2","L.jpg","O.jpg","1","0","0","",""
"","feedback","","html-keyboard-response","261","375111","0.0-1.0-357.0-0.0","0","0","75328","","null","","","null","39","","","","","","","","","","","","","","","",""
"","time_out","","html-keyboard-response","262","377125","0.0-1.0-359.0-0.0","0","0","75328","","null","","","null","39","","","","","","","","","","","","","","","",""
"","ITI","","html-keyboard-response","263","378132","0.0-1.0-360.0","0","0","75328","","null","","","null","39","","","","","","","","","","","","","","","NaN",""
"","S1","","html-keyboard-response","264","378400","0.0-1.0-362.0","0","0","75328","","null","","","null","40","","","","","","","","","","","","","","","",""
"","ISI","","html-keyboard-response","265","379404","0.0-1.0-363.0","0","0","75328","","null","","","null","40","NaN","","","","","","","","","","","","","","",""
"","S2","","html-keyboard-response","266","379659","0.0-1.0-364.0","0","0","75328","","null","","","null","40","","NaN","","","","","","","","","","","","","",""
"","response","","html-keyboard-response","267","379769","0.0-1.0-365.0-0.0","0","0","75328","","108","","","75","40","","","1","40","training","adjacent","FE","6","5","M.jpg","N.jpg","0","0","1","",""
"","feedback","","html-keyboard-response","268","380786","0.0-1.0-366.0-0.0","0","0","75328","","null","","","null","40","","","","","","","","","","","","","","","",""
"","ITI","","html-keyboard-response","269","381795","0.0-1.0-369.0","0","0","75328","","null","","","null","40","","","","","","","","","","","","","","","NaN",""
"","S1","","html-keyboard-response","270","382050","0.0-1.0-371.0","0","0","75328","","null","","","null","41","","","","","","","","","","","","","","","",""
"","ISI","","html-keyboard-response","271","383057","0.0-1.0-372.0","0","0","75328","","null","","","null","41","NaN","","","","","","","","","","","","","","",""
"","S2","","html-keyboard-response","272","383311","0.0-1.0-373.0","0","0","75328","","null","","","null","41","","NaN","","","","","","","","","","","","","",""
"","response","","html-keyboard-response","273","383809","0.0-1.0-374.0-0.0","0","0","75328","","496","","","75","41","","","1","41","training","adjacent","DC","4","3","R.jpg","L.jpg","0","0","1","",""
"","feedback","","html-keyboard-response","274","384820","0.0-1.0-375.0-0.0","0","0","75328","","null","","","null","41","","","","","","","","","","","","","","","",""
"","ITI","","html-keyboard-response","275","385834","0.0-1.0-378.0","0","0","75328","","null","","","null","41","","","","","","","","","","","","","","","NaN",""
"","S1","","html-keyboard-response","276","386089","0.0-1.0-380.0","0","0","75328","","null","","","null","42","","","","","","","","","","","","","","","",""
"","ISI","","html-keyboard-response","277","387102","0.0-1.0-381.0","0","0","75328","","null","","","null","42","NaN","","","","","","","","","","","","","","",""
"","S2","","html-keyboard-response","278","387355","0.0-1.0-382.0","0","0","75328","","null","","","null","42","","NaN","","","","","","","","","","","","","",""
"","response","","html-keyboard-response","279","387960","0.0-1.0-383.0-0.0","0","0","75328","","603","","","75","42","","","1","42","training","adjacent","BC","2","3","O.jpg","L.jpg","0","1","0","",""
"","feedback","","html-keyboard-response","280","388964","0.0-1.0-384.0-0.0","0","0","75328","","null","","","null","42","","","","","","","","","","","","","","","",""
"","time_out","","html-keyboard-response","281","390981","0.0-1.0-386.0-0.0","0","0","75328","","null","","","null","42","","","","","","","","","","","","","","","",""
"","ITI","","html-keyboard-response","282","391983","0.0-1.0-387.0","0","0","75328","","null","","","null","42","","","","","","","","","","","","","","","NaN",""
"","S1","","html-keyboard-response","283","392237","0.0-1.0-389.0","0","0","75328","","null","","","null","43","","","","","","","","","","","","","","","",""
"","ISI","","html-keyboard-response","284","393252","0.0-1.0-390.0","0","0","75328","","null","","","null","43","NaN","","","","","","","","","","","","","","",""
"","S2","","html-keyboard-response","285","393505","0.0-1.0-391.0","0","0","75328","","null","","","null","43","","NaN","","","","","","","","","","","","","",""
"","response","","html-keyboard-response","286","394037","0.0-1.0-392.0-0.0","0","0","75328","","530","","","68","43","","","1","43","training","adjacent","CB","3","2","L.jpg","O.jpg","1","0","0","",""
"","feedback","","html-keyboard-response","287","395049","0.0-1.0-393.0-0.0","0","0","75328","","null","","","null","43","","","","","","","","","","","","","","","",""
"","time_out","","html-keyboard-response","288","397054","0.0-1.0-395.0-0.0","0","0","75328","","null","","","null","43","","","","","","","","","","","","","","","",""
"","ITI","","html-keyboard-response","289","398063","0.0-1.0-396.0","0","0","75328","","null","","","null","43","","","","","","","","","","","","","","","NaN",""
"","S1","","html-keyboard-response","290","398316","0.0-1.0-398.0","0","0","75328","","null","","","null","44","","","","","","","","","","","","","","","",""
"","ISI","","html-keyboard-response","291","399331","0.0-1.0-399.0","0","0","75328","","null","","","null","44","NaN","","","","","","","","","","","","","","",""
"","S2","","html-keyboard-response","292","399585","0.0-1.0-400.0","0","0","75328","","null","","","null","44","","NaN","","","","","","","","","","","","","",""
"","response","","html-keyboard-response","293","400131","0.0-1.0-401.0-0.0","0","0","75328","","545","","","68","44","","","1","44","training","adjacent","AB","1","2","Q.jpg","O.jpg","1","1","1","",""
"","feedback","","html-keyboard-response","294","401135","0.0-1.0-402.0-0.0","0","0","75328","","null","","","null","44","","","","","","","","","","","","","","","",""
"","ITI","","html-keyboard-response","295","402142","0.0-1.0-405.0","0","0","75328","","null","","","null","44","","","","","","","","","","","","","","","NaN",""
"","S1","","html-keyboard-response","296","402410","0.0-1.0-407.0","0","0","75328","","null","","","null","45","","","","","","","","","","","","","","","",""
"","ISI","","html-keyboard-response","297","403417","0.0-1.0-408.0","0","0","75328","","null","","","null","45","NaN","","","","","","","","","","","","","","",""
"","S2","","html-keyboard-response","298","403671","0.0-1.0-409.0","0","0","75328","","null","","","null","45","","NaN","","","","","","","","","","","","","",""
"","response","","html-keyboard-response","299","404112","0.0-1.0-410.0-0.0","0","0","75328","","439","","","68","45","","","1","45","training","adjacent","ED","5","4","N.jpg","R.jpg","1","0","0","",""
"","feedback","","html-keyboard-response","300","405128","0.0-1.0-411.0-0.0","0","0","75328","","null","","","null","45","","","","","","","","","","","","","","","",""
"","time_out","","html-keyboard-response","301","407132","0.0-1.0-413.0-0.0","0","0","75328","","null","","","null","45","","","","","","","","","","","","","","","",""
"","ITI","","html-keyboard-response","302","408144","0.0-1.0-414.0","0","0","75328","","null","","","null","45","","","","","","","","","","","","","","","NaN",""
"","S1","","html-keyboard-response","303","408411","0.0-1.0-416.0","0","0","75328","","null","","","null","46","","","","","","","","","","","","","","","",""
"","ISI","","html-keyboard-response","304","409419","0.0-1.0-417.0","0","0","75328","","null","","","null","46","NaN","","","","","","","","","","","","","","",""
"","S2","","html-keyboard-response","305","409673","0.0-1.0-418.0","0","0","75328","","null","","","null","46","","NaN","","","","","","","","","","","","","",""
"","response","","html-keyboard-response","306","409932","0.0-1.0-419.0-0.0","0","0","75328","","258","","","75","46","","","1","46","training","adjacent","FE","6","5","M.jpg","N.jpg","0","0","1","",""
"","feedback","","html-keyboard-response","307","410950","0.0-1.0-420.0-0.0","0","0","75328","","null","","","null","46","","","","","","","","","","","","","","","",""
"","ITI","","html-keyboard-response","308","411960","0.0-1.0-423.0","0","0","75328","","null","","","null","46","","","","","","","","","","","","","","","NaN",""
"","S1","","html-keyboard-response","309","412228","0.0-1.0-425.0","0","0","75328","","null","","","null","47","","","","","","","","","","","","","","","",""
"","ISI","","html-keyboard-response","310","413234","0.0-1.0-426.0","0","0","75328","","null","","","null","47","NaN","","","","","","","","","","","","","","",""
"","S2","","html-keyboard-response","311","413487","0.0-1.0-427.0","0","0","75328","","null","","","null","47","","NaN","","","","","","","","","","","","","",""
"","response","","html-keyboard-response","312","413573","0.0-1.0-428.0-0.0","0","0","75328","","85","","","68","47","","","1","47","training","adjacent","BC","2","3","O.jpg","L.jpg","1","1","1","",""
"","feedback","","html-keyboard-response","313","414584","0.0-1.0-429.0-0.0","0","0","75328","","null","","","null","47","","","","","","","","","","","","","","","",""
"","ITI","","html-keyboard-response","314","415595","0.0-1.0-432.0","0","0","75328","","null","","","null","47","","","","","","","","","","","","","","","NaN",""
"","block_over","","html-keyboard-response","315","424888","0.0-1.0-433.0-0.0","0","0","75328","","9291","","","32","47","","","","","","","","","","","","","","","",""
"","S1","","html-keyboard-response","316","425154","0.0-1.0-434.0","0","0","75328","","null","","","null","48","","","","","","","","","","","","","","","",""
"","ISI","","html-keyboard-response","317","426164","0.0-1.0-435.0","0","0","75328","","null","","","null","48","NaN","","","","","","","","","","","","","","",""
"","S2","","html-keyboard-response","318","426431","0.0-1.0-436.0","0","0","75328","","null","","","null","48","","NaN","","","","","","","","","","","","","",""
"","response","","html-keyboard-response","319","427448","0.0-1.0-437.0-0.0","0","0","75328","","1015","","","68","48","","","2","48","training","adjacent","AB","1","2","Q.jpg","O.jpg","1","1","1","",""
"","feedback","","html-keyboard-response","320","428461","0.0-1.0-438.0-0.0","0","0","75328","","null","","","null","48","","","","","","","","","","","","","","","",""
"","ITI","","html-keyboard-response","321","429478","0.0-1.0-441.0","0","0","75328","","null","","","null","48","","","","","","","","","","","","","","","NaN",""
"","S1","","html-keyboard-response","322","429745","0.0-1.0-443.0","0","0","75328","","null","","","null","49","","","","","","","","","","","","","","","",""
"","ISI","","html-keyboard-response","323","430754","0.0-1.0-444.0","0","0","75328","","null","","","null","49","NaN","","","","","","","","","","","","","","",""
"","S2","","html-keyboard-response","324","431008","0.0-1.0-445.0","0","0","75328","","null","","","null","49","","NaN","","","","","","","","","","","","","",""
"","response","","html-keyboard-response","325","431623","0.0-1.0-446.0-0.0","0","0","75328","","612","","","75","49","","","2","49","training","adjacent","DE","4","5","R.jpg","N.jpg","0","1","0","",""
"","feedback","","html-keyboard-response","326","432640","0.0-1.0-447.0-0.0","0","0","75328","","null","","","null","49","","","","","","","","","","","","","","","",""
"","time_out","","html-keyboard-response","327","434644","0.0-1.0-449.0-0.0","0","0","75328","","null","","","null","49","","","","","","","","","","","","","","","",""
"","ITI","","html-keyboard-response","328","435661","0.0-1.0-450.0","0","0","75328","","null","","","null","49","","","","","","","","","","","","","","","NaN",""
"","S1","","html-keyboard-response","329","435913","0.0-1.0-452.0","0","0","75328","","null","","","null","50","","","","","","","","","","","","","","","",""
"","ISI","","html-keyboard-response","330","436930","0.0-1.0-453.0","0","0","75328","","null","","","null","50","NaN","","","","","","","","","","","","","","",""
"","S2","","html-keyboard-response","331","437184","0.0-1.0-454.0","0","0","75328","","null","","","null","50","","NaN","","","","","","","","","","","","","",""
"","response","","html-keyboard-response","332","437594","0.0-1.0-455.0-0.0","0","0","75328","","409","","","68","50","","","2","50","training","adjacent","CD","3","4","L.jpg","R.jpg","1","1","1","",""
"","feedback","","html-keyboard-response","333","438602","0.0-1.0-456.0-0.0","0","0","75328","","null","","","null","50","","","","","","","","","","","","","","","",""
"","ITI","","html-keyboard-response","334","439611","0.0-1.0-459.0","0","0","75328","","null","","","null","50","","","","","","","","","","","","","","","NaN",""
"","S1","","html-keyboard-response","335","439865","0.0-1.0-461.0","0","0","75328","","null","","","null","51","","","","","","","","","","","","","","","",""
"","ISI","","html-keyboard-response","336","440874","0.0-1.0-462.0","0","0","75328","","null","","","null","51","NaN","","","","","","","","","","","","","","",""
"","S2","","html-keyboard-response","337","441142","0.0-1.0-463.0","0","0","75328","","null","","","null","51","","NaN","","","","","","","","","","","","","",""
"","response","","html-keyboard-response","338","441780","0.0-1.0-464.0-0.0","0","0","75328","","636","","","75","51","","","2","51","training","adjacent","DE","4","5","R.jpg","N.jpg","0","1","0","",""
"","feedback","","html-keyboard-response","339","442786","0.0-1.0-465.0-0.0","0","0","75328","","null","","","null","51","","","","","","","","","","","","","","","",""
"","time_out","","html-keyboard-response","340","444799","0.0-1.0-467.0-0.0","0","0","75328","","null","","","null","51","","","","","","","","","","","","","","","",""
"","ITI","","html-keyboard-response","341","445814","0.0-1.0-468.0","0","0","75328","","null","","","null","51","","","","","","","","","","","","","","","NaN",""
"","S1","","html-keyboard-response","342","446068","0.0-1.0-470.0","0","0","75328","","null","","","null","52","","","","","","","","","","","","","","","",""
"","ISI","","html-keyboard-response","343","447082","0.0-1.0-471.0","0","0","75328","","null","","","null","52","NaN","","","","","","","","","","","","","","",""
"","S2","","html-keyboard-response","344","447351","0.0-1.0-472.0","0","0","75328","","null","","","null","52","","NaN","","","","","","","","","","","","","",""
"","response","","html-keyboard-response","345","447628","0.0-1.0-473.0-0.0","0","0","75328","","276","","","75","52","","","2","52","training","adjacent","AB","1","2","Q.jpg","O.jpg","0","1","0","",""
"","feedback","","html-keyboard-response","346","448633","0.0-1.0-474.0-0.0","0","0","75328","","null","","","null","52","","","","","","","","","","","","","","","",""
"","time_out","","html-keyboard-response","347","450638","0.0-1.0-476.0-0.0","0","0","75328","","null","","","null","52","","","","","","","","","","","","","","","",""
"","ITI","","html-keyboard-response","348","451648","0.0-1.0-477.0","0","0","75328","","null","","","null","52","","","","","","","","","","","","","","","NaN",""
"","S1","","html-keyboard-response","349","451902","0.0-1.0-479.0","0","0","75328","","null","","","null","53","","","","","","","","","","","","","","","",""
"","ISI","","html-keyboard-response","350","452916","0.0-1.0-480.0","0","0","75328","","null","","","null","53","NaN","","","","","","","","","","","","","","",""
"","S2","","html-keyboard-response","351","453169","0.0-1.0-481.0","0","0","75328","","null","","","null","53","","NaN","","","","","","","","","","","","","",""
"","response","","html-keyboard-response","352","453454","0.0-1.0-482.0-0.0","0","0","75328","","282","","","75","53","","","2","53","training","adjacent","BA","2","1","O.jpg","Q.jpg","0","0","1","",""
"","feedback","","html-keyboard-response","353","454471","0.0-1.0-483.0-0.0","0","0","75328","","null","","","null","53","","","","","","","","","","","","","","","",""
"","ITI","","html-keyboard-response","354","455485","0.0-1.0-486.0","0","0","75328","","null","","","null","53","","","","","","","","","","","","","","","NaN",""
"","S1","","html-keyboard-response","355","455740","0.0-1.0-488.0","0","0","75328","","null","","","null","54","","","","","","","","","","","","","","","",""
"","ISI","","html-keyboard-response","356","456746","0.0-1.0-489.0","0","0","75328","","null","","","null","54","NaN","","","","","","","","","","","","","","",""
"","S2","","html-keyboard-response","357","456999","0.0-1.0-490.0","0","0","75328","","null","","","null","54","","NaN","","","","","","","","","","","","","",""
"","response","","html-keyboard-response","358","457383","0.0-1.0-491.0-0.0","0","0","75328","","381","","","68","54","","","2","54","training","adjacent","CB","3","2","L.jpg","O.jpg","1","0","0","",""
"","feedback","","html-keyboard-response","359","458391","0.0-1.0-492.0-0.0","0","0","75328","","null","","","null","54","","","","","","","","","","","","","","","",""
"","time_out","","html-keyboard-response","360","460403","0.0-1.0-494.0-0.0","0","0","75328","","null","","","null","54","","","","","","","","","","","","","","","",""
"","ITI","","html-keyboard-response","361","461406","0.0-1.0-495.0","0","0","75328","","null","","","null","54","","","","","","","","","","","","","","","NaN",""
"","S1","","html-keyboard-response","362","461660","0.0-1.0-497.0","0","0","75328","","null","","","null","55","","","","","","","","","","","","","","","",""
"","ISI","","html-keyboard-response","363","462674","0.0-1.0-498.0","0","0","75328","","null","","","null","55","NaN","","","","","","","","","","","","","","",""
"","S2","","html-keyboard-response","364","462943","0.0-1.0-499.0","0","0","75328","","null","","","null","55","","NaN","","","","","","","","","","","","","",""
"","response","","html-keyboard-response","365","463427","0.0-1.0-500.0-0.0","0","0","75328","","481","","","75","55","","","2","55","training","adjacent","BA","2","1","O.jpg","Q.jpg","0","0","1","",""
"","feedback","","html-keyboard-response","366","464435","0.0-1.0-501.0-0.0","0","0","75328","","null","","","null","55","","","","","","","","","","","","","","","",""
"","ITI","","html-keyboard-response","367","465452","0.0-1.0-504.0","0","0","75328","","null","","","null","55","","","","","","","","","","","","","","","NaN",""
"","S1","","html-keyboard-response","368","465720","0.0-1.0-506.0","0","0","75328","","null","","","null","56","","","","","","","","","","","","","","","",""
"","ISI","","html-keyboard-response","369","466739","0.0-1.0-507.0","0","0","75328","","null","","","null","56","NaN","","","","","","","","","","","","","","",""
"","S2","","html-keyboard-response","370","466994","0.0-1.0-508.0","0","0","75328","","null","","","null","56","","NaN","","","","","","","","","","","","","",""
"","response","","html-keyboard-response","371","467837","0.0-1.0-509.0-0.0","0","0","75328","","842","","","75","56","","","2","56","training","adjacent","DE","4","5","R.jpg","N.jpg","0","1","0","",""
"","feedback","","html-keyboard-response","372","468842","0.0-1.0-510.0-0.0","0","0","75328","","null","","","null","56","","","","","","","","","","","","","","","",""
"","time_out","","html-keyboard-response","373","470855","0.0-1.0-512.0-0.0","0","0","75328","","null","","","null","56","","","","","","","","","","","","","","","",""
"","ITI","","html-keyboard-response","374","471864","0.0-1.0-513.0","0","0","75328","","null","","","null","56","","","","","","","","","","","","","","","NaN",""
"","S1","","html-keyboard-response","375","472131","0.0-1.0-515.0","0","0","75328","","null","","","null","57","","","","","","","","","","","","","","","",""
"","ISI","","html-keyboard-response","376","473139","0.0-1.0-516.0","0","0","75328","","null","","","null","57","NaN","","","","","","","","","","","","","","",""
"","S2","","html-keyboard-response","377","473392","0.0-1.0-517.0","0","0","75328","","null","","","null","57","","NaN","","","","","","","","","","","","","",""
"","response","","html-keyboard-response","378","473795","0.0-1.0-518.0-0.0","0","0","75328","","400","","","75","57","","","2","57","training","adjacent","BC","2","3","O.jpg","L.jpg","0","1","0","",""
"","feedback","","html-keyboard-response","379","474797","0.0-1.0-519.0-0.0","0","0","75328","","null","","","null","57","","","","","","","","","","","","","","","",""
"","time_out","","html-keyboard-response","380","476813","0.0-1.0-521.0-0.0","0","0","75328","","null","","","null","57","","","","","","","","","","","","","","","",""
"","ITI","","html-keyboard-response","381","477825","0.0-1.0-522.0","0","0","75328","","null","","","null","57","","","","","","","","","","","","","","","NaN",""
"","S1","","html-keyboard-response","382","478078","0.0-1.0-524.0","0","0","75328","","null","","","null","58","","","","","","","","","","","","","","","",""
"","ISI","","html-keyboard-response","383","479087","0.0-1.0-525.0","0","0","75328","","null","","","null","58","NaN","","","","","","","","","","","","","","",""
"","S2","","html-keyboard-response","384","479354","0.0-1.0-526.0","0","0","75328","","null","","","null","58","","NaN","","","","","","","","","","","","","",""
"","response","","html-keyboard-response","385","479816","0.0-1.0-527.0-0.0","0","0","75328","","458","","","75","58","","","2","58","training","adjacent","GF","7","6","P.jpg","M.jpg","0","0","1","",""
"","feedback","","html-keyboard-response","386","480822","0.0-1.0-528.0-0.0","0","0","75328","","null","","","null","58","","","","","","","","","","","","","","","",""
"","ITI","","html-keyboard-response","387","481830","0.0-1.0-531.0","0","0","75328","","null","","","null","58","","","","","","","","","","","","","","","NaN",""
"","S1","","html-keyboard-response","388","482097","0.0-1.0-533.0","0","0","75328","","null","","","null","59","","","","","","","","","","","","","","","",""
"","ISI","","html-keyboard-response","389","483107","0.0-1.0-534.0","0","0","75328","","null","","","null","59","NaN","","","","","","","","","","","","","","",""
"","S2","","html-keyboard-response","390","483359","0.0-1.0-535.0","0","0","75328","","null","","","null","59","","NaN","","","","","","","","","","","","","",""
"","response","","html-keyboard-response","391","483889","0.0-1.0-536.0-0.0","0","0","75328","","527","","","75","59","","","2","59","training","adjacent","GF","7","6","P.jpg","M.jpg","0","0","1","",""
"","feedback","","html-keyboard-response","392","484896","0.0-1.0-537.0-0.0","0","0","75328","","null","","","null","59","","","","","","","","","","","","","","","",""
"","ITI","","html-keyboard-response","393","485911","0.0-1.0-540.0","0","0","75328","","null","","","null","59","","","","","","","","","","","","","","","NaN",""
"","S1","","html-keyboard-response","394","486164","0.0-1.0-542.0","0","0","75328","","null","","","null","60","","","","","","","","","","","","","","","",""
"","ISI","","html-keyboard-response","395","487180","0.0-1.0-543.0","0","0","75328","","null","","","null","60","NaN","","","","","","","","","","","","","","",""
"","S2","","html-keyboard-response","396","487434","0.0-1.0-544.0","0","0","75328","","null","","","null","60","","NaN","","","","","","","","","","","","","",""
"","response","","html-keyboard-response","397","488317","0.0-1.0-545.0-0.0","0","0","75328","","881","","","68","60","","","2","60","training","adjacent","GF","7","6","P.jpg","M.jpg","1","0","0","",""
"","feedback","","html-keyboard-response","398","489328","0.0-1.0-546.0-0.0","0","0","75328","","null","","","null","60","","","","","","","","","","","","","","","",""
"","time_out","","html-keyboard-response","399","491337","0.0-1.0-548.0-0.0","0","0","75328","","null","","","null","60","","","","","","","","","","","","","","","",""
"","ITI","","html-keyboard-response","400","492350","0.0-1.0-549.0","0","0","75328","","null","","","null","60","","","","","","","","","","","","","","","NaN",""
"","S1","","html-keyboard-response","401","492603","0.0-1.0-551.0","0","0","75328","","null","","","null","61","","","","","","","","","","","","","","","",""
"","ISI","","html-keyboard-response","402","493612","0.0-1.0-552.0","0","0","75328","","null","","","null","61","NaN","","","","","","","","","","","","","","",""
"","S2","","html-keyboard-response","403","493878","0.0-1.0-553.0","0","0","75328","","null","","","null","61","","NaN","","","","","","","","","","","","","",""
"","response","","html-keyboard-response","404","494160","0.0-1.0-554.0-0.0","0","0","75328","","281","","","75","61","","","2","61","training","adjacent","FE","6","5","M.jpg","N.jpg","0","0","1","",""
"","feedback","","html-keyboard-response","405","495169","0.0-1.0-555.0-0.0","0","0","75328","","null","","","null","61","","","","","","","","","","","","","","","",""
"","ITI","","html-keyboard-response","406","496180","0.0-1.0-558.0","0","0","75328","","null","","","null","61","","","","","","","","","","","","","","","NaN",""
"","S1","","html-keyboard-response","407","496446","0.0-1.0-560.0","0","0","75328","","null","","","null","62","","","","","","","","","","","","","","","",""
"","ISI","","html-keyboard-response","408","497452","0.0-1.0-561.0","0","0","75328","","null","","","null","62","NaN","","","","","","","","","","","","","","",""
"","S2","","html-keyboard-response","409","497705","0.0-1.0-562.0","0","0","75328","","null","","","null","62","","NaN","","","","","","","","","","","","","",""
"","response","","html-keyboard-response","410","498060","0.0-1.0-563.0-0.0","0","0","75328","","353","","","68","62","","","2","62","training","adjacent","CD","3","4","L.jpg","R.jpg","1","1","1","",""
"","feedback","","html-keyboard-response","411","499076","0.0-1.0-564.0-0.0","0","0","75328","","null","","","null","62","","","","","","","","","","","","","","","",""
"","ITI","","html-keyboard-response","412","500088","0.0-1.0-567.0","0","0","75328","","null","","","null","62","","","","","","","","","","","","","","","NaN",""
"","S1","","html-keyboard-response","413","500344","0.0-1.0-569.0","0","0","75328","","null","","","null","63","","","","","","","","","","","","","","","",""
"","ISI","","html-keyboard-response","414","501357","0.0-1.0-570.0","0","0","75328","","null","","","null","63","NaN","","","","","","","","","","","","","","",""
"","S2","","html-keyboard-response","415","501610","0.0-1.0-571.0","0","0","75328","","null","","","null","63","","NaN","","","","","","","","","","","","","",""
"","response","","html-keyboard-response","416","502242","0.0-1.0-572.0-0.0","0","0","75328","","631","","","68","63","","","2","63","training","adjacent","FG","6","7","M.jpg","P.jpg","1","1","1","",""
"","feedback","","html-keyboard-response","417","503252","0.0-1.0-573.0-0.0","0","0","75328","","null","","","null","63","","","","","","","","","","","","","","","",""
"","ITI","","html-keyboard-response","418","504262","0.0-1.0-576.0","0","0","75328","","null","","","null","63","","","","","","","","","","","","","","","NaN",""
"","S1","","html-keyboard-response","419","504514","0.0-1.0-578.0","0","0","75328","","null","","","null","64","","","","","","","","","","","","","","","",""
"","ISI","","html-keyboard-response","420","505524","0.0-1.0-579.0","0","0","75328","","null","","","null","64","NaN","","","","","","","","","","","","","","",""
"","S2","","html-keyboard-response","421","505781","0.0-1.0-580.0","0","0","75328","","null","","","null","64","","NaN","","","","","","","","","","","","","",""
"","response","","html-keyboard-response","422","506156","0.0-1.0-581.0-0.0","0","0","75328","","374","","","75","64","","","2","64","training","adjacent","CB","3","2","L.jpg","O.jpg","0","0","1","",""
"","feedback","","html-keyboard-response","423","507159","0.0-1.0-582.0-0.0","0","0","75328","","null","","","null","64","","","","","","","","","","","","","","","",""
"","ITI","","html-keyboard-response","424","508168","0.0-1.0-585.0","0","0","75328","","null","","","null","64","","","","","","","","","","","","","","","NaN",""
"","S1","","html-keyboard-response","425","508437","0.0-1.0-587.0","0","0","75328","","null","","","null","65","","","","","","","","","","","","","","","",""
"","ISI","","html-keyboard-response","426","509453","0.0-1.0-588.0","0","0","75328","","null","","","null","65","NaN","","","","","","","","","","","","","","",""
"","S2","","html-keyboard-response","427","509706","0.0-1.0-589.0","0","0","75328","","null","","","null","65","","NaN","","","","","","","","","","","","","",""
"","response","","html-keyboard-response","428","510604","0.0-1.0-590.0-0.0","0","0","75328","","895","","","68","65","","","2","65","training","adjacent","BC","2","3","O.jpg","L.jpg","1","1","1","",""
"","feedback","","html-keyboard-response","429","511611","0.0-1.0-591.0-0.0","0","0","75328","","null","","","null","65","","","","","","","","","","","","","","","",""
"","ITI","","html-keyboard-response","430","512624","0.0-1.0-594.0","0","0","75328","","null","","","null","65","","","","","","","","","","","","","","","NaN",""
"","S1","","html-keyboard-response","431","512880","0.0-1.0-596.0","0","0","75328","","null","","","null","66","","","","","","","","","","","","","","","",""
"","ISI","","html-keyboard-response","432","513891","0.0-1.0-597.0","0","0","75328","","null","","","null","66","NaN","","","","","","","","","","","","","","",""
"","S2","","html-keyboard-response","433","514144","0.0-1.0-598.0","0","0","75328","","null","","","null","66","","NaN","","","","","","","","","","","","","",""
"","response","","html-keyboard-response","434","514825","0.0-1.0-599.0-0.0","0","0","75328","","680","","","75","66","","","2","66","training","adjacent","CD","3","4","L.jpg","R.jpg","0","1","0","",""
"","feedback","","html-keyboard-response","435","515829","0.0-1.0-600.0-0.0","0","0","75328","","null","","","null","66","","","","","","","","","","","","","","","",""
"","time_out","","html-keyboard-response","436","517846","0.0-1.0-602.0-0.0","0","0","75328","","null","","","null","66","","","","","","","","","","","","","","","",""
"","ITI","","html-keyboard-response","437","518853","0.0-1.0-603.0","0","0","75328","","null","","","null","66","","","","","","","","","","","","","","","NaN",""
"","S1","","html-keyboard-response","438","519112","0.0-1.0-605.0","0","0","75328","","null","","","null","67","","","","","","","","","","","","","","","",""
"","ISI","","html-keyboard-response","439","520121","0.0-1.0-606.0","0","0","75328","","null","","","null","67","NaN","","","","","","","","","","","","","","",""
"","S2","","html-keyboard-response","440","520375","0.0-1.0-607.0","0","0","75328","","null","","","null","67","","NaN","","","","","","","","","","","","","",""
"","response","","html-keyboard-response","441","520775","0.0-1.0-608.0-0.0","0","0","75328","","399","","","68","67","","","2","67","training","adjacent","DC","4","3","R.jpg","L.jpg","1","0","0","",""
"","feedback","","html-keyboard-response","442","521782","0.0-1.0-609.0-0.0","0","0","75328","","null","","","null","67","","","","","","","","","","","","","","","",""
"","time_out","","html-keyboard-response","443","523788","0.0-1.0-611.0-0.0","0","0","75328","","null","","","null","67","","","","","","","","","","","","","","","",""
"","ITI","","html-keyboard-response","444","524801","0.0-1.0-612.0","0","0","75328","","757","","","81","67","","","","","","","","","","","","","","","q",""
"","S1","","html-keyboard-response","445","525055","0.0-1.0-614.0","0","0","75328","","null","","","null","68","","","","","","","","","","","","","","","",""
"","ISI","","html-keyboard-response","446","526070","0.0-1.0-615.0","0","0","75328","","null","","","null","68","NaN","","","","","","","","","","","","","","",""
"","S2","","html-keyboard-response","447","526338","0.0-1.0-616.0","0","0","75328","","null","","","null","68","","NaN","","","","","","","","","","","","","",""
"","response","","html-keyboard-response","448","526387","0.0-1.0-617.0-0.0","0","0","75328","","46","","","68","68","","","2","68","training","adjacent","BC","2","3","O.jpg","L.jpg","1","1","1","",""
"","feedback","","html-keyboard-response","449","527396","0.0-1.0-618.0-0.0","0","0","75328","","null","","","null","68","","","","","","","","","","","","","","","",""
"","ITI","","html-keyboard-response","450","528410","0.0-1.0-621.0","0","0","75328","","null","","","null","68","","","","","","","","","","","","","","","NaN",""
"","S1","","html-keyboard-response","451","528678","0.0-1.0-623.0","0","0","75328","","null","","","null","69","","","","","","","","","","","","","","","",""
"","ISI","","html-keyboard-response","452","529691","0.0-1.0-624.0","0","0","75328","","null","","","null","69","NaN","","","","","","","","","","","","","","",""
"","S2","","html-keyboard-response","453","529944","0.0-1.0-625.0","0","0","75328","","null","","","null","69","","NaN","","","","","","","","","","","","","",""
"","response","","html-keyboard-response","454","530308","0.0-1.0-626.0-0.0","0","0","75328","","363","","","75","69","","","2","69","training","adjacent","BA","2","1","O.jpg","Q.jpg","0","0","1","",""
"","feedback","","html-keyboard-response","455","531323","0.0-1.0-627.0-0.0","0","0","75328","","null","","","null","69","","","","","","","","","","","","","","","",""
"","ITI","","html-keyboard-response","456","532331","0.0-1.0-630.0","0","0","75328","","null","","","null","69","","","","","","","","","","","","","","","NaN",""
"","S1","","html-keyboard-response","457","532585","0.0-1.0-632.0","0","0","75328","","null","","","null","70","","","","","","","","","","","","","","","",""
"","ISI","","html-keyboard-response","458","533595","0.0-1.0-633.0","0","0","75328","","null","","","null","70","NaN","","","","","","","","","","","","","","",""
"","S2","","html-keyboard-response","459","533848","0.0-1.0-634.0","0","0","75328","","null","","","null","70","","NaN","","","","","","","","","","","","","",""
"","response","","html-keyboard-response","460","534435","0.0-1.0-635.0-0.0","0","0","75328","","585","","","68","70","","","2","70","training","adjacent","FE","6","5","M.jpg","N.jpg","1","0","0","",""
"","feedback","","html-keyboard-response","461","535446","0.0-1.0-636.0-0.0","0","0","75328","","null","","","null","70","","","","","","","","","","","","","","","",""
"","time_out","","html-keyboard-response","462","537448","0.0-1.0-638.0-0.0","0","0","75328","","null","","","null","70","","","","","","","","","","","","","","","",""
"","ITI","","html-keyboard-response","463","538457","0.0-1.0-639.0","0","0","75328","","null","","","null","70","","","","","","","","","","","","","","","NaN",""
"","S1","","html-keyboard-response","464","538724","0.0-1.0-641.0","0","0","75328","","null","","","null","71","","","","","","","","","","","","","","","",""
"","ISI","","html-keyboard-response","465","539735","0.0-1.0-642.0","0","0","75328","","null","","","null","71","NaN","","","","","","","","","","","","","","",""
"","S2","","html-keyboard-response","466","539750","0.0-1.0-643.0","0","0","75328","","13","","","68","71","","d","2","71","training","adjacent","FE","6","5","M.jpg","N.jpg","1","0","0","",""
"","feedback","","html-keyboard-response","467","540768","0.0-1.0-645.0-0.0","0","0","75328","","null","","","null","71","","","","","","","","","","","","","","","",""
"","time_out","","html-keyboard-response","468","542776","0.0-1.0-647.0-0.0","0","0","75328","","null","","","null","71","","","","","","","","","","","","","","","",""
"","ITI","","html-keyboard-response","469","543784","0.0-1.0-648.0","0","0","75328","","null","","","null","71","","","","","","","","","","","","","","","NaN",""
"","S1","","html-keyboard-response","470","544052","0.0-1.0-650.0","0","0","75328","","null","","","null","72","","","","","","","","","","","","","","","",""
"","ISI","","html-keyboard-response","471","545060","0.0-1.0-651.0","0","0","75328","","null","","","null","72","NaN","","","","","","","","","","","","","","",""
"","S2","","html-keyboard-response","472","545313","0.0-1.0-652.0","0","0","75328","","null","","","null","72","","NaN","","","","","","","","","","","","","",""
"","response","","html-keyboard-response","473","545933","0.0-1.0-653.0-0.0","0","0","75328","","618","","","75","72","","","2","72","training","adjacent","ED","5","4","N.jpg","R.jpg","0","0","1","",""
"","feedback","","html-keyboard-response","474","546943","0.0-1.0-654.0-0.0","0","0","75328","","null","","","null","72","","","","","","","","","","","","","","","",""
"","ITI","","html-keyboard-response","475","547958","0.0-1.0-657.0","0","0","75328","","106","","","68","72","","","","","","","","","","","","","","","d",""
"","S1","","html-keyboard-response","476","548210","0.0-1.0-659.0","0","0","75328","","null","","","null","73","","","","","","","","","","","","","","","",""
"","ISI","","html-keyboard-response","477","549227","0.0-1.0-660.0","0","0","75328","","null","","","null","73","NaN","","","","","","","","","","","","","","",""
"","S2","","html-keyboard-response","478","549484","0.0-1.0-661.0","0","0","75328","","null","","","null","73","","NaN","","","","","","","","","","","","","",""
"","response","","html-keyboard-response","479","550139","0.0-1.0-662.0-0.0","0","0","75328","","653","","","75","73","","","2","73","training","adjacent","EF","5","6","N.jpg","M.jpg","0","1","0","",""
"","feedback","","html-keyboard-response","480","551149","0.0-1.0-663.0-0.0","0","0","75328","","null","","","null","73","","","","","","","","","","","","","","","",""
"","time_out","","html-keyboard-response","481","553164","0.0-1.0-665.0-0.0","0","0","75328","","null","","","null","73","","","","","","","","","","","","","","","",""
"","ITI","","html-keyboard-response","482","554182","0.0-1.0-666.0","0","0","75328","","null","","","null","73","","","","","","","","","","","","","","","NaN",""
"","S1","","html-keyboard-response","483","554450","0.0-1.0-668.0","0","0","75328","","null","","","null","74","","","","","","","","","","","","","","","",""
"","ISI","","html-keyboard-response","484","555463","0.0-1.0-669.0","0","0","75328","","null","","","null","74","NaN","","","","","","","","","","","","","","",""
"","S2","","html-keyboard-response","485","555717","0.0-1.0-670.0","0","0","75328","","null","","","null","74","","NaN","","","","","","","","","","","","","",""
"","response","","html-keyboard-response","486","556576","0.0-1.0-671.0-0.0","0","0","75328","","858","","","68","74","","","2","74","training","adjacent","CB","3","2","L.jpg","O.jpg","1","0","0","",""
"","feedback","","html-keyboard-response","487","557590","0.0-1.0-672.0-0.0","0","0","75328","","null","","","null","74","","","","","","","","","","","","","","","",""
"","time_out","","html-keyboard-response","488","559594","0.0-1.0-674.0-0.0","0","0","75328","","null","","","null","74","","","","","","","","","","","","","","","",""
"","ITI","","html-keyboard-response","489","560610","0.0-1.0-675.0","0","0","75328","","null","","","null","74","","","","","","","","","","","","","","","NaN",""
"","S1","","html-keyboard-response","490","560877","0.0-1.0-677.0","0","0","75328","","null","","","null","75","","","","","","","","","","","","","","","",""
"","ISI","","html-keyboard-response","491","561886","0.0-1.0-678.0","0","0","75328","","null","","","null","75","NaN","","","","","","","","","","","","","","",""
"","S2","","html-keyboard-response","492","562139","0.0-1.0-679.0","0","0","75328","","null","","","null","75","","NaN","","","","","","","","","","","","","",""
"","response","","html-keyboard-response","493","562578","0.0-1.0-680.0-0.0","0","0","75328","","438","","","75","75","","","2","75","training","adjacent","CB","3","2","L.jpg","O.jpg","0","0","1","",""
"","feedback","","html-keyboard-response","494","563590","0.0-1.0-681.0-0.0","0","0","75328","","null","","","null","75","","","","","","","","","","","","","","","",""
"","ITI","","html-keyboard-response","495","564601","0.0-1.0-684.0","0","0","75328","","null","","","null","75","","","","","","","","","","","","","","","NaN",""
"","S1","","html-keyboard-response","496","564854","0.0-1.0-686.0","0","0","75328","","null","","","null","76","","","","","","","","","","","","","","","",""
"","ISI","","html-keyboard-response","497","565866","0.0-1.0-687.0","0","0","75328","","null","","","null","76","NaN","","","","","","","","","","","","","","",""
"","S2","","html-keyboard-response","498","566124","0.0-1.0-688.0","0","0","75328","","null","","","null","76","","NaN","","","","","","","","","","","","","",""
"","response","","html-keyboard-response","499","566463","0.0-1.0-689.0-0.0","0","0","75328","","337","","","75","76","","","2","76","training","adjacent","AB","1","2","Q.jpg","O.jpg","0","1","0","",""
"","feedback","","html-keyboard-response","500","567473","0.0-1.0-690.0-0.0","0","0","75328","","null","","","null","76","","","","","","","","","","","","","","","",""
"","time_out","","html-keyboard-response","501","569484","0.0-1.0-692.0-0.0","0","0","75328","","null","","","null","76","","","","","","","","","","","","","","","",""
"","ITI","","html-keyboard-response","502","570493","0.0-1.0-693.0","0","0","75328","","null","","","null","76","","","","","","","","","","","","","","","NaN",""
"","S1","","html-keyboard-response","503","570748","0.0-1.0-695.0","0","0","75328","","null","","","null","77","","","","","","","","","","","","","","","",""
"","ISI","","html-keyboard-response","504","571765","0.0-1.0-696.0","0","0","75328","","null","","","null","77","NaN","","","","","","","","","","","","","","",""
"","S2","","html-keyboard-response","505","572033","0.0-1.0-697.0","0","0","75328","","null","","","null","77","","NaN","","","","","","","","","","","","","",""
"","response","","html-keyboard-response","506","572479","0.0-1.0-698.0-0.0","0","0","75328","","444","","","68","77","","","2","77","training","adjacent","BC","2","3","O.jpg","L.jpg","1","1","1","",""
"","feedback","","html-keyboard-response","507","573487","0.0-1.0-699.0-0.0","0","0","75328","","null","","","null","77","","","","","","","","","","","","","","","",""
"","ITI","","html-keyboard-response","508","574497","0.0-1.0-702.0","0","0","75328","","null","","","null","77","","","","","","","","","","","","","","","NaN",""
"","S1","","html-keyboard-response","509","574751","0.0-1.0-704.0","0","0","75328","","null","","","null","78","","","","","","","","","","","","","","","",""
"","ISI","","html-keyboard-response","510","575768","0.0-1.0-705.0","0","0","75328","","null","","","null","78","NaN","","","","","","","","","","","","","","",""
"","S2","","html-keyboard-response","511","576022","0.0-1.0-706.0","0","0","75328","","null","","","null","78","","NaN","","","","","","","","","","","","","",""
"","response","","html-keyboard-response","512","576607","0.0-1.0-707.0-0.0","0","0","75328","","583","","","75","78","","","2","78","training","adjacent","EF","5","6","N.jpg","M.jpg","0","1","0","",""
"","feedback","","html-keyboard-response","513","577624","0.0-1.0-708.0-0.0","0","0","75328","","null","","","null","78","","","","","","","","","","","","","","","",""
"","time_out","","html-keyboard-response","514","579638","0.0-1.0-710.0-0.0","0","0","75328","","null","","","null","78","","","","","","","","","","","","","","","",""
"","ITI","","html-keyboard-response","515","580646","0.0-1.0-711.0","0","0","75328","","null","","","null","78","","","","","","","","","","","","","","","NaN",""
"","S1","","html-keyboard-response","516","580900","0.0-1.0-713.0","0","0","75328","","null","","","null","79","","","","","","","","","","","","","","","",""
"","ISI","","html-keyboard-response","517","581912","0.0-1.0-714.0","0","0","75328","","null","","","null","79","NaN","","","","","","","","","","","","","","",""
"","S2","","html-keyboard-response","518","582165","0.0-1.0-715.0","0","0","75328","","null","","","null","79","","NaN","","","","","","","","","","","","","",""
"","response","","html-keyboard-response","519","582846","0.0-1.0-716.0-0.0","0","0","75328","","679","","","75","79","","","2","79","training","adjacent","DC","4","3","R.jpg","L.jpg","0","0","1","",""
"","feedback","","html-keyboard-response","520","583853","0.0-1.0-717.0-0.0","0","0","75328","","null","","","null","79","","","","","","","","","","","","","","","",""
"","ITI","","html-keyboard-response","521","584858","0.0-1.0-720.0","0","0","75328","","null","","","null","79","","","","","","","","","","","","","","","NaN",""
"","S1","","html-keyboard-response","522","585111","0.0-1.0-722.0","0","0","75328","","null","","","null","80","","","","","","","","","","","","","","","",""
"","ISI","","html-keyboard-response","523","586122","0.0-1.0-723.0","0","0","75328","","null","","","null","80","NaN","","","","","","","","","","","","","","",""
"","S2","","html-keyboard-response","524","586377","0.0-1.0-724.0","0","0","75328","","null","","","null","80","","NaN","","","","","","","","","","","","","",""
"","response","","html-keyboard-response","525","586760","0.0-1.0-725.0-0.0","0","0","75328","","380","","","75","80","","","2","80","training","adjacent","CD","3","4","L.jpg","R.jpg","0","1","0","",""
"","feedback","","html-keyboard-response","526","587765","0.0-1.0-726.0-0.0","0","0","75328","","null","","","null","80","","","","","","","","","","","","","","","",""
"","time_out","","html-keyboard-response","527","589779","0.0-1.0-728.0-0.0","0","0","75328","","null","","","null","80","","","","","","","","","","","","","","","",""
"","ITI","","html-keyboard-response","528","590788","0.0-1.0-729.0","0","0","75328","","null","","","null","80","","","","","","","","","","","","","","","NaN",""
"","S1","","html-keyboard-response","529","591056","0.0-1.0-731.0","0","0","75328","","null","","","null","81","","","","","","","","","","","","","","","",""
"","ISI","","html-keyboard-response","530","592062","0.0-1.0-732.0","0","0","75328","","null","","","null","81","NaN","","","","","","","","","","","","","","",""
"","S2","","html-keyboard-response","531","592329","0.0-1.0-733.0","0","0","75328","","null","","","null","81","","NaN","","","","","","","","","","","","","",""
"","response","","html-keyboard-response","532","592622","0.0-1.0-734.0-0.0","0","0","75328","","292","","","75","81","","","2","81","training","adjacent","FE","6","5","M.jpg","N.jpg","0","0","1","",""
"","feedback","","html-keyboard-response","533","593636","0.0-1.0-735.0-0.0","0","0","75328","","null","","","null","81","","","","","","","","","","","","","","","",""
"","ITI","","html-keyboard-response","534","594640","0.0-1.0-738.0","0","0","75328","","null","","","null","81","","","","","","","","","","","","","","","NaN",""
"","S1","","html-keyboard-response","535","594893","0.0-1.0-740.0","0","0","75328","","null","","","null","82","","","","","","","","","","","","","","","",""
"","ISI","","html-keyboard-response","536","595902","0.0-1.0-741.0","0","0","75328","","null","","","null","82","NaN","","","","","","","","","","","","","","",""
"","S2","","html-keyboard-response","537","596155","0.0-1.0-742.0","0","0","75328","","null","","","null","82","","NaN","","","","","","","","","","","","","",""
"","response","","html-keyboard-response","538","596942","0.0-1.0-743.0-0.0","0","0","75328","","786","","","68","82","","","2","82","training","adjacent","ED","5","4","N.jpg","R.jpg","1","0","0","",""
"","feedback","","html-keyboard-response","539","597946","0.0-1.0-744.0-0.0","0","0","75328","","null","","","null","82","","","","","","","","","","","","","","","",""
"","time_out","","html-keyboard-response","540","599959","0.0-1.0-746.0-0.0","0","0","75328","","null","","","null","82","","","","","","","","","","","","","","","",""
"","ITI","","html-keyboard-response","541","600973","0.0-1.0-747.0","0","0","75328","","null","","","null","82","","","","","","","","","","","","","","","NaN",""
"","S1","","html-keyboard-response","542","601226","0.0-1.0-749.0","0","0","75328","","null","","","null","83","","","","","","","","","","","","","","","",""
"","ISI","","html-keyboard-response","543","602239","0.0-1.0-750.0","0","0","75328","","null","","","null","83","NaN","","","","","","","","","","","","","","",""
"","S2","","html-keyboard-response","544","602507","0.0-1.0-751.0","0","0","75328","","null","","","null","83","","NaN","","","","","","","","","","","","","",""
"","response","","html-keyboard-response","545","603108","0.0-1.0-752.0-0.0","0","0","75328","","599","","","75","83","","","2","83","training","adjacent","BA","2","1","O.jpg","Q.jpg","0","0","1","",""
"","feedback","","html-keyboard-response","546","604119","0.0-1.0-753.0-0.0","0","0","75328","","null","","","null","83","","","","","","","","","","","","","","","",""
"","ITI","","html-keyboard-response","547","605130","0.0-1.0-756.0","0","0","75328","","null","","","null","83","","","","","","","","","","","","","","","NaN",""
"","S1","","html-keyboard-response","548","605384","0.0-1.0-758.0","0","0","75328","","null","","","null","84","","","","","","","","","","","","","","","",""
"","ISI","","html-keyboard-response","549","606393","0.0-1.0-759.0","0","0","75328","","null","","","null","84","NaN","","","","","","","","","","","","","","",""
"","S2","","html-keyboard-response","550","606649","0.0-1.0-760.0","0","0","75328","","null","","","null","84","","NaN","","","","","","","","","","","","","",""
"","response","","html-keyboard-response","551","607297","0.0-1.0-761.0-0.0","0","0","75328","","647","","","75","84","","","2","84","training","adjacent","DC","4","3","R.jpg","L.jpg","0","0","1","",""
"","feedback","","html-keyboard-response","552","608312","0.0-1.0-762.0-0.0","0","0","75328","","null","","","null","84","","","","","","","","","","","","","","","",""
"","ITI","","html-keyboard-response","553","609326","0.0-1.0-765.0","0","0","75328","","null","","","null","84","","","","","","","","","","","","","","","NaN",""
"","S1","","html-keyboard-response","554","609594","0.0-1.0-767.0","0","0","75328","","null","","","null","85","","","","","","","","","","","","","","","",""
"","ISI","","html-keyboard-response","555","610605","0.0-1.0-768.0","0","0","75328","","null","","","null","85","NaN","","","","","","","","","","","","","","",""
"","S2","","html-keyboard-response","556","610873","0.0-1.0-769.0","0","0","75328","","null","","","null","85","","NaN","","","","","","","","","","","","","",""
"","response","","html-keyboard-response","557","611636","0.0-1.0-770.0-0.0","0","0","75328","","760","","","68","85","","","2","85","training","adjacent","FG","6","7","M.jpg","P.jpg","1","1","1","",""
"","feedback","","html-keyboard-response","558","612643","0.0-1.0-771.0-0.0","0","0","75328","","null","","","null","85","","","","","","","","","","","","","","","",""
"","ITI","","html-keyboard-response","559","613655","0.0-1.0-774.0","0","0","75328","","null","","","null","85","","","","","","","","","","","","","","","NaN",""
"","S1","","html-keyboard-response","560","613923","0.0-1.0-776.0","0","0","75328","","null","","","null","86","","","","","","","","","","","","","","","",""
"","ISI","","html-keyboard-response","561","614937","0.0-1.0-777.0","0","0","75328","","null","","","null","86","NaN","","","","","","","","","","","","","","",""
"","S2","","html-keyboard-response","562","615194","0.0-1.0-778.0","0","0","75328","","null","","","null","86","","NaN","","","","","","","","","","","","","",""
"","response","","html-keyboard-response","563","615837","0.0-1.0-779.0-0.0","0","0","75328","","641","","","75","86","","","2","86","training","adjacent","GF","7","6","P.jpg","M.jpg","0","0","1","",""
"","feedback","","html-keyboard-response","564","616851","0.0-1.0-780.0-0.0","0","0","75328","","null","","","null","86","","","","","","","","","","","","","","","",""
"","ITI","","html-keyboard-response","565","617864","0.0-1.0-783.0","0","0","75328","","null","","","null","86","","","","","","","","","","","","","","","NaN",""
"","S1","","html-keyboard-response","566","618130","0.0-1.0-785.0","0","0","75328","","null","","","null","87","","","","","","","","","","","","","","","",""
"","ISI","","html-keyboard-response","567","619145","0.0-1.0-786.0","0","0","75328","","null","","","null","87","NaN","","","","","","","","","","","","","","",""
"","S2","","html-keyboard-response","568","619399","0.0-1.0-787.0","0","0","75328","","null","","","null","87","","NaN","","","","","","","","","","","","","",""
"","response","","html-keyboard-response","569","619739","0.0-1.0-788.0-0.0","0","0","75328","","339","","","68","87","","","2","87","training","adjacent","ED","5","4","N.jpg","R.jpg","1","0","0","",""
"","feedback","","html-keyboard-response","570","620758","0.0-1.0-789.0-0.0","0","0","75328","","null","","","null","87","","","","","","","","","","","","","","","",""
"","time_out","","html-keyboard-response","571","622761","0.0-1.0-791.0-0.0","0","0","75328","","null","","","null","87","","","","","","","","","","","","","","","",""
"","ITI","","html-keyboard-response","572","623768","0.0-1.0-792.0","0","0","75328","","283","","","68","87","","","","","","","","","","","","","","","d",""
"","S1","","html-keyboard-response","573","624022","0.0-1.0-794.0","0","0","75328","","null","","","null","88","","","","","","","","","","","","","","","",""
"","ISI","","html-keyboard-response","574","625038","0.0-1.0-795.0","0","0","75328","","null","","","null","88","NaN","","","","","","","","","","","","","","",""
"","S2","","html-keyboard-response","575","625305","0.0-1.0-796.0","0","0","75328","","null","","","null","88","","NaN","","","","","","","","","","","","","",""
"","response","","html-keyboard-response","576","625632","0.0-1.0-797.0-0.0","0","0","75328","","325","","","75","88","","","2","88","training","adjacent","AB","1","2","Q.jpg","O.jpg","0","1","0","",""
"","feedback","","html-keyboard-response","577","626638","0.0-1.0-798.0-0.0","0","0","75328","","null","","","null","88","","","","","","","","","","","","","","","",""
"","time_out","","html-keyboard-response","578","628645","0.0-1.0-800.0-0.0","0","0","75328","","null","","","null","88","","","","","","","","","","","","","","","",""
"","ITI","","html-keyboard-response","579","629657","0.0-1.0-801.0","0","0","75328","","null","","","null","88","","","","","","","","","","","","","","","NaN",""
"","S1","","html-keyboard-response","580","629925","0.0-1.0-803.0","0","0","75328","","null","","","null","89","","","","","","","","","","","","","","","",""
"","ISI","","html-keyboard-response","581","630935","0.0-1.0-804.0","0","0","75328","","null","","","null","89","NaN","","","","","","","","","","","","","","",""
"","S2","","html-keyboard-response","582","631203","0.0-1.0-805.0","0","0","75328","","null","","","null","89","","NaN","","","","","","","","","","","","","",""
