"success","ttype","start_time","trial_type","trial_index","time_elapsed","internal_node_id","warning","missed_checkup","PID","view_history","rt","responses","repeat_instructions","key_press","index","keypress_isi","keypress_S2","block","trial_num","phase","group_type","pair_type","S1_stim","S2_stim","S1_img","S2_img","S1_chosen","S1_higher","accuracy","keypress_iti","total_bonus_tally"
"true","full_screen","d03032023hr2031","fullscreen","0","21381","0.0-0.0","0","0","18860","","","","","","","","","","","","","","","","","","","","","",""
"","instructions","","instructions","1","66663","0.0-1.0-0.0-0.0","0","0","18860","[{""page_index"":0,""viewing_time"":13063},{""page_index"":1,""viewing_time"":23216},{""page_index"":2,""viewing_time"":6236},{""page_index"":3,""viewing_time"":2749}]","45268","","","","","","","","","","","","","","","","","","","",""
"","comprehension_check","","survey-multi-choice","2","89385","0.0-1.0-0.0-1.0","0","0","18860","","22696","{""Q0"":""True"",""Q1"":""D"",""Q2"":""Once the second image appears and while the screen 'MAKE A CHOICE' is shown"",""Q3"":""Green mark"",""Q4"":""either D or K""}","0","","","","","","","","","","","","","","","","","",""
"","start_exp","","html-keyboard-response","3","95392","0.0-1.0-1.0","0","0","18860","","5991","","","32","","","","","","","","","","","","","","","","",""
"","S1","","html-keyboard-response","4","95681","0.0-1.0-2.0","0","0","18860","","null","","","null","0","","","","","","","","","","","","","","","",""
"","ISI","","html-keyboard-response","5","96187","0.0-1.0-3.0","0","0","18860","","null","","","null","0","NaN","","","","","","","","","","","","","","",""
"","S2","","html-keyboard-response","6","96445","0.0-1.0-4.0","0","0","18860","","null","","","null","0","","NaN","","","","","","","","","","","","","",""
"","response","","html-keyboard-response","7","98205","0.0-1.0-5.0-0.0","0","0","18860","","null","","","null","0","","","1","0","training","adjacent","FG","6","7","P.jpg","M.jpg","NaN","1","0","",""
"","too_slow_prompt","","html-keyboard-response","8","99217","0.0-1.0-7.0-0.0","1","0","18860","","null","","","null","","","","","","","","","","","","","","","","",""
"","time_out","","html-keyboard-response","9","101223","0.0-1.0-8.0-0.0","0","0","18860","","null","","","null","0","","","","","","","","","","","","","","","",""
"","ITI","","html-keyboard-response","10","102229","0.0-1.0-9.0","0","0","18860","","null","","","null","0","","","","","","","","","","","","","","","NaN",""
"","S1","","html-keyboard-response","11","102483","0.0-1.0-11.0","0","0","18860","","null","","","null","1","","","","","","","","","","","","","","","",""
"","ISI","","html-keyboard-response","12","102987","0.0-1.0-12.0","0","0","18860","","null","","","null","1","NaN","","","","","","","","","","","","","","",""
"","S2","","html-keyboard-response","13","103243","0.0-1.0-13.0","0","0","18860","","null","","","null","1","","NaN","","","","","","","","","","","","","",""
"","response","","html-keyboard-response","14","105004","0.0-1.0-14.0-0.0","0","0","18860","","null","","","null","1","","","1","1","training","adjacent","DE","4","5","L.jpg","R.jpg","NaN","1","0","",""
"","too_slow_prompt","","html-keyboard-response","15","106011","0.0-1.0-16.0-0.0","1","0","18860","","null","","","null","","","","","","","","","","","","","","","","",""
"","time_out","","html-keyboard-response","16","108018","0.0-1.0-17.0-0.0","0","0","18860","","null","","","null","1","","","","","","","","","","","","","","","",""
"","ITI","","html-keyboard-response","17","109024","0.0-1.0-18.0","0","0","18860","","null","","","null","1","","","","","","","","","","","","","","","NaN",""
"","S1","","html-keyboard-response","18","109279","0.0-1.0-20.0","0","0","18860","","null","","","null","2","","","","","","","","","","","","","","","",""
"","ISI","","html-keyboard-response","19","109792","0.0-1.0-21.0","0","0","18860","","489","","","75","2","k","","","","","","","","","","","","","","",""
"","S2","","html-keyboard-response","20","110051","0.0-1.0-22.0","0","0","18860","","null","","","null","2","","NaN","","","","","","","","","","","","","",""
"","response","","html-keyboard-response","21","110766","0.0-1.0-23.0-0.0","0","0","18860","","710","","","68","2","","","1","2","training","adjacent","CD","3","4","N.jpg","L.jpg","1","1","1","",""
"","feedback","","html-keyboard-response","22","111773","0.0-1.0-24.0-0.0","0","0","18860","","null","","","null","2","","","","","","","","","","","","","","","",""
"","ITI","","html-keyboard-response","23","112777","0.0-1.0-27.0","0","0","18860","","null","","","null","2","","","","","","","","","","","","","","","NaN",""
"","S1","","html-keyboard-response","24","113031","0.0-1.0-29.0","0","0","18860","","null","","","null","3","","","","","","","","","","","","","","","",""
"","ISI","","html-keyboard-response","25","113635","0.0-1.0-30.0","0","0","18860","","426","","","75","3","k","","","","","","","","","","","","","","",""
"","S2","","html-keyboard-response","26","113889","0.0-1.0-31.0","0","0","18860","","null","","","null","3","","NaN","","","","","","","","","","","","","",""
"","response","","html-keyboard-response","27","114319","0.0-1.0-32.0-0.0","0","0","18860","","426","","","68","3","","","1","3","training","adjacent","CB","3","2","N.jpg","O.jpg","1","0","0","",""
"","feedback","","html-keyboard-response","28","115327","0.0-1.0-33.0-0.0","0","0","18860","","null","","","null","3","","","","","","","","","","","","","","","",""
"","time_out","","html-keyboard-response","29","117339","0.0-1.0-35.0-0.0","0","0","18860","","null","","","null","3","","","","","","","","","","","","","","","",""
"","ITI","","html-keyboard-response","30","118346","0.0-1.0-36.0","0","0","18860","","null","","","null","3","","","","","","","","","","","","","","","NaN",""
"","S1","","html-keyboard-response","31","118602","0.0-1.0-38.0","0","0","18860","","null","","","null","4","","","","","","","","","","","","","","","",""
"","ISI","","html-keyboard-response","32","119106","0.0-1.0-39.0","0","0","18860","","329","","","75","4","k","","","","","","","","","","","","","","",""
"","S2","","html-keyboard-response","33","119361","0.0-1.0-40.0","0","0","18860","","null","","","null","4","","NaN","","","","","","","","","","","","","",""
"","response","","html-keyboard-response","34","121121","0.0-1.0-41.0-0.0","0","0","18860","","null","","","null","4","","","1","4","training","adjacent","DC","4","3","L.jpg","N.jpg","NaN","0","0","",""
"","too_slow_prompt","","html-keyboard-response","35","122125","0.0-1.0-43.0-0.0","1","0","18860","","null","","","null","","","","","","","","","","","","","","","","",""
"","time_out","","html-keyboard-response","36","124131","0.0-1.0-44.0-0.0","0","0","18860","","null","","","null","4","","","","","","","","","","","","","","","",""
"","ITI","","html-keyboard-response","37","125137","0.0-1.0-45.0","0","0","18860","","563","","","75","4","","","","","","","","","","","","","","","k",""
"","S1","","html-keyboard-response","38","125393","0.0-1.0-47.0","0","0","18860","","null","","","null","5","","","","","","","","","","","","","","","",""
"","ISI","","html-keyboard-response","39","125897","0.0-1.0-48.0","0","0","18860","","274","","","70","5","f","","","","","","","","","","","","","","",""
"","S2","","html-keyboard-response","40","126154","0.0-1.0-49.0","0","0","18860","","null","","","null","5","","NaN","","","","","","","","","","","","","",""
"","response","","html-keyboard-response","41","126449","0.0-1.0-50.0-0.0","0","0","18860","","291","","","75","5","","","1","5","training","adjacent","EF","5","6","R.jpg","P.jpg","0","1","0","",""
"","feedback","","html-keyboard-response","42","127456","0.0-1.0-51.0-0.0","0","0","18860","","null","","","null","5","","","","","","","","","","","","","","","",""
"","time_out","","html-keyboard-response","43","129462","0.0-1.0-53.0-0.0","0","0","18860","","null","","","null","5","","","","","","","","","","","","","","","",""
"","ITI","","html-keyboard-response","44","130468","0.0-1.0-54.0","0","0","18860","","null","","","null","5","","","","","","","","","","","","","","","NaN",""
"","S1","","html-keyboard-response","45","130722","0.0-1.0-56.0","0","0","18860","","null","","","null","6","","","","","","","","","","","","","","","",""
"","ISI","","html-keyboard-response","46","131227","0.0-1.0-57.0","0","0","18860","","null","","","null","6","NaN","","","","","","","","","","","","","","",""
"","S2","","html-keyboard-response","47","131353","0.0-1.0-58.0","0","0","18860","","114","","","75","6","","k","1","6","training","adjacent","BC","2","3","O.jpg","N.jpg","0","1","0","",""
"","feedback","","html-keyboard-response","48","132362","0.0-1.0-60.0-0.0","0","0","18860","","null","","","null","6","","","","","","","","","","","","","","","",""
"","time_out","","html-keyboard-response","49","134367","0.0-1.0-62.0-0.0","0","0","18860","","null","","","null","6","","","","","","","","","","","","","","","",""
"","ITI","","html-keyboard-response","50","135371","0.0-1.0-63.0","0","0","18860","","487","","","75","6","","","","","","","","","","","","","","","k",""
"","S1","","html-keyboard-response","51","135629","0.0-1.0-65.0","0","0","18860","","null","","","null","7","","","","","","","","","","","","","","","",""
"","ISI","","html-keyboard-response","52","136135","0.0-1.0-66.0","0","0","18860","","20","","","75","7","k","","","","","","","","","","","","","","",""
"","S2","","html-keyboard-response","53","136395","0.0-1.0-67.0","0","0","18860","","null","","","null","7","","NaN","","","","","","","","","","","","","",""
"","response","","html-keyboard-response","54","136580","0.0-1.0-68.0-0.0","0","0","18860","","178","","","75","7","","","1","7","training","adjacent","GF","7","6","M.jpg","P.jpg","0","0","1","",""
"","feedback","","html-keyboard-response","55","137584","0.0-1.0-69.0-0.0","0","0","18860","","null","","","null","7","","","","","","","","","","","","","","","",""
"","ITI","","html-keyboard-response","56","138588","0.0-1.0-72.0","0","0","18860","","null","","","null","7","","","","","","","","","","","","","","","NaN",""
"","S1","","html-keyboard-response","57","138850","0.0-1.0-74.0","0","0","18860","","null","","","null","8","","","","","","","","","","","","","","","",""
"","ISI","","html-keyboard-response","58","139357","0.0-1.0-75.0","0","0","18860","","416","","","68","8","d","","","","","","","","","","","","","","",""
"","S2","","html-keyboard-response","59","139622","0.0-1.0-76.0","0","0","18860","","null","","","null","8","","NaN","","","","","","","","","","","","","",""
"","response","","html-keyboard-response","60","139780","0.0-1.0-77.0-0.0","0","0","18860","","151","","","68","8","","","1","8","training","adjacent","DC","4","3","L.jpg","N.jpg","1","0","0","",""
"","feedback","","html-keyboard-response","61","140786","0.0-1.0-78.0-0.0","0","0","18860","","null","","","null","8","","","","","","","","","","","","","","","",""
"","time_out","","html-keyboard-response","62","142794","0.0-1.0-80.0-0.0","0","0","18860","","null","","","null","8","","","","","","","","","","","","","","","",""
"","ITI","","html-keyboard-response","63","143801","0.0-1.0-81.0","0","0","18860","","478","","","75","8","","","","","","","","","","","","","","","k",""
"","S1","","html-keyboard-response","64","144055","0.0-1.0-83.0","0","0","18860","","null","","","null","9","","","","","","","","","","","","","","","",""
"","ISI","","html-keyboard-response","65","144559","0.0-1.0-84.0","0","0","18860","","120","","","75","9","k","","","","","","","","","","","","","","",""
"","S2","","html-keyboard-response","66","144600","0.0-1.0-85.0","0","0","18860","","35","","","68","9","","d","1","9","training","adjacent","GF","7","6","M.jpg","P.jpg","1","0","0","",""
"","feedback","","html-keyboard-response","67","145607","0.0-1.0-87.0-0.0","0","0","18860","","null","","","null","9","","","","","","","","","","","","","","","",""
"","time_out","","html-keyboard-response","68","147614","0.0-1.0-89.0-0.0","0","0","18860","","null","","","null","9","","","","","","","","","","","","","","","",""
"","ITI","","html-keyboard-response","69","148624","0.0-1.0-90.0","0","0","18860","","199","","","68","9","","","","","","","","","","","","","","","d",""
"","S1","","html-keyboard-response","70","148880","0.0-1.0-92.0","0","0","18860","","null","","","null","10","","","","","","","","","","","","","","","",""
"","ISI","","html-keyboard-response","71","149384","0.0-1.0-93.0","0","0","18860","","257","","","68","10","d","","","","","","","","","","","","","","",""
"","S2","","html-keyboard-response","72","149651","0.0-1.0-94.0","0","0","18860","","null","","","null","10","","NaN","","","","","","","","","","","","","",""
"","response","","html-keyboard-response","73","149749","0.0-1.0-95.0-0.0","0","0","18860","","92","","","75","10","","","1","10","training","adjacent","DE","4","5","L.jpg","R.jpg","0","1","0","",""
"","feedback","","html-keyboard-response","74","150756","0.0-1.0-96.0-0.0","0","0","18860","","null","","","null","10","","","","","","","","","","","","","","","",""
"","time_out","","html-keyboard-response","75","152762","0.0-1.0-98.0-0.0","0","0","18860","","null","","","null","10","","","","","","","","","","","","","","","",""
"","ITI","","html-keyboard-response","76","153769","0.0-1.0-99.0","0","0","18860","","506","","","75","10","","","","","","","","","","","","","","","k",""
"","S1","","html-keyboard-response","77","154025","0.0-1.0-101.0","0","0","18860","","null","","","null","11","","","","","","","","","","","","","","","",""
"","ISI","","html-keyboard-response","78","154529","0.0-1.0-102.0","0","0","18860","","59","","","68","11","d","","","","","","","","","","","","","","",""
"","S2","","html-keyboard-response","79","154560","0.0-1.0-103.0","0","0","18860","","26","","","68","11","","d","1","11","training","adjacent","FE","6","5","P.jpg","R.jpg","1","0","0","",""
"","feedback","","html-keyboard-response","80","155590","0.0-1.0-105.0-0.0","0","0","18860","","null","","","null","11","","","","","","","","","","","","","","","",""
"","time_out","","html-keyboard-response","81","157625","0.0-1.0-107.0-0.0","0","0","18860","","null","","","null","11","","","","","","","","","","","","","","","",""
"","ITI","","html-keyboard-response","82","158633","0.0-1.0-108.0","0","0","18860","","41","","","75","11","","","","","","","","","","","","","","","k",""
"","S1","","html-keyboard-response","83","158889","0.0-1.0-110.0","0","0","18860","","null","","","null","12","","","","","","","","","","","","","","","",""
"","ISI","","html-keyboard-response","84","159396","0.0-1.0-111.0","0","0","18860","","202","","","68","12","d","","","","","","","","","","","","","","",""
"","S2","","html-keyboard-response","85","159417","0.0-1.0-112.0","0","0","18860","","15","","","68","12","","d","1","12","training","adjacent","CB","3","2","N.jpg","O.jpg","1","0","0","",""
"","feedback","","html-keyboard-response","86","160433","0.0-1.0-114.0-0.0","0","0","18860","","null","","","null","12","","","","","","","","","","","","","","","",""
"","time_out","","html-keyboard-response","87","162440","0.0-1.0-116.0-0.0","0","0","18860","","null","","","null","12","","","","","","","","","","","","","","","",""
"","ITI","","html-keyboard-response","88","163446","0.0-1.0-117.0","0","0","18860","","null","","","null","12","","","","","","","","","","","","","","","NaN",""
"","S1","","html-keyboard-response","89","163704","0.0-1.0-119.0","0","0","18860","","null","","","null","13","","","","","","","","","","","","","","","",""
"","ISI","","html-keyboard-response","90","164212","0.0-1.0-120.0","0","0","18860","","null","","","null","13","NaN","","","","","","","","","","","","","","",""
"","S2","","html-keyboard-response","91","164467","0.0-1.0-121.0","0","0","18860","","null","","","null","13","","NaN","","","","","","","","","","","","","",""
"","response","","html-keyboard-response","92","164761","0.0-1.0-122.0-0.0","0","0","18860","","287","","","68","13","","","1","13","training","adjacent","CD","3","4","N.jpg","L.jpg","1","1","1","",""
"","feedback","","html-keyboard-response","93","165769","0.0-1.0-123.0-0.0","0","0","18860","","null","","","null","13","","","","","","","","","","","","","","","",""
"","ITI","","html-keyboard-response","94","166774","0.0-1.0-126.0","0","0","18860","","66","","","75","13","","","","","","","","","","","","","","","k",""
"","S1","","html-keyboard-response","95","167029","0.0-1.0-128.0","0","0","18860","","null","","","null","14","","","","","","","","","","","","","","","",""
"","ISI","","html-keyboard-response","96","167533","0.0-1.0-129.0","0","0","18860","","345","","","68","14","d","","","","","","","","","","","","","","",""
"","S2","","html-keyboard-response","97","167776","0.0-1.0-130.0","0","0","18860","","238","","","68","14","","d","1","14","training","adjacent","BA","2","1","O.jpg","Q.jpg","1","0","0","",""
"","feedback","","html-keyboard-response","98","168793","0.0-1.0-132.0-0.0","0","0","18860","","null","","","null","14","","","","","","","","","","","","","","","",""
"","time_out","","html-keyboard-response","99","170796","0.0-1.0-134.0-0.0","0","0","18860","","null","","","null","14","","","","","","","","","","","","","","","",""
"","ITI","","html-keyboard-response","100","171801","0.0-1.0-135.0","0","0","18860","","111","","","75","14","","","","","","","","","","","","","","","k",""
"","S1","","html-keyboard-response","101","172057","0.0-1.0-137.0","0","0","18860","","null","","","null","15","","","","","","","","","","","","","","","",""
"","ISI","","html-keyboard-response","102","172561","0.0-1.0-138.0","0","0","18860","","76","","","68","15","d","","","","","","","","","","","","","","",""
"","S2","","html-keyboard-response","103","172667","0.0-1.0-139.0","0","0","18860","","101","","","68","15","","d","1","15","training","adjacent","BA","2","1","O.jpg","Q.jpg","1","0","0","",""
"","feedback","","html-keyboard-response","104","173675","0.0-1.0-141.0-0.0","0","0","18860","","null","","","null","15","","","","","","","","","","","","","","","",""
"","time_out","","html-keyboard-response","105","175685","0.0-1.0-143.0-0.0","0","0","18860","","null","","","null","15","","","","","","","","","","","","","","","",""
"","ITI","","html-keyboard-response","106","176692","0.0-1.0-144.0","0","0","18860","","853","","","75","15","","","","","","","","","","","","","","","k",""
"","S1","","html-keyboard-response","107","176949","0.0-1.0-146.0","0","0","18860","","null","","","null","16","","","","","","","","","","","","","","","",""
"","ISI","","html-keyboard-response","108","177462","0.0-1.0-147.0","0","0","18860","","164","","","75","16","k","","","","","","","","","","","","","","",""
"","S2","","html-keyboard-response","109","177659","0.0-1.0-148.0","0","0","18860","","193","","","75","16","","k","1","16","training","adjacent","CD","3","4","N.jpg","L.jpg","0","1","0","",""
"","feedback","","html-keyboard-response","110","178664","0.0-1.0-150.0-0.0","0","0","18860","","null","","","null","16","","","","","","","","","","","","","","","",""
"","time_out","","html-keyboard-response","111","180668","0.0-1.0-152.0-0.0","0","0","18860","","null","","","null","16","","","","","","","","","","","","","","","",""
"","ITI","","html-keyboard-response","112","181674","0.0-1.0-153.0","0","0","18860","","329","","","75","16","","","","","","","","","","","","","","","k",""
"","S1","","html-keyboard-response","113","181931","0.0-1.0-155.0","0","0","18860","","null","","","null","17","","","","","","","","","","","","","","","",""
"","ISI","","html-keyboard-response","114","182437","0.0-1.0-156.0","0","0","18860","","103","","","75","17","k","","","","","","","","","","","","","","",""
"","S2","","html-keyboard-response","115","182548","0.0-1.0-157.0","0","0","18860","","106","","","68","17","","d","1","17","training","adjacent","AB","1","2","Q.jpg","O.jpg","1","1","1","",""
"","feedback","","html-keyboard-response","116","183555","0.0-1.0-159.0-0.0","0","0","18860","","null","","","null","17","","","","","","","","","","","","","","","",""
"","ITI","","html-keyboard-response","117","184561","0.0-1.0-162.0","0","0","18860","","578","","","68","17","","","","","","","","","","","","","","","d",""
"","S1","","html-keyboard-response","118","184817","0.0-1.0-164.0","0","0","18860","","null","","","null","18","","","","","","","","","","","","","","","",""
"","ISI","","html-keyboard-response","119","185321","0.0-1.0-165.0","0","0","18860","","1","","","68","18","d","","","","","","","","","","","","","","",""
"","S2","","html-keyboard-response","120","185468","0.0-1.0-166.0","0","0","18860","","140","","","68","18","","d","1","18","training","adjacent","ED","5","4","R.jpg","L.jpg","1","0","0","",""
"","feedback","","html-keyboard-response","121","186475","0.0-1.0-168.0-0.0","0","0","18860","","null","","","null","18","","","","","","","","","","","","","","","",""
"","time_out","","html-keyboard-response","122","188484","0.0-1.0-170.0-0.0","0","0","18860","","null","","","null","18","","","","","","","","","","","","","","","",""
"","ITI","","html-keyboard-response","123","189493","0.0-1.0-171.0","0","0","18860","","99","","","75","18","","","","","","","","","","","","","","","k",""
"","S1","","html-keyboard-response","124","189799","0.0-1.0-173.0","0","0","18860","","null","","","null","19","","","","","","","","","","","","","","","",""
"","ISI","","html-keyboard-response","125","190303","0.0-1.0-174.0","0","0","18860","","207","","","75","19","k","","","","","","","","","","","","","","",""
"","S2","","html-keyboard-response","126","190379","0.0-1.0-175.0","0","0","18860","","71","","","75","19","","k","1","19","training","adjacent","AB","1","2","Q.jpg","O.jpg","0","1","0","",""
"","feedback","","html-keyboard-response","127","191386","0.0-1.0-177.0-0.0","0","0","18860","","null","","","null","19","","","","","","","","","","","","","","","",""
"","time_out","","html-keyboard-response","128","193392","0.0-1.0-179.0-0.0","0","0","18860","","null","","","null","19","","","","","","","","","","","","","","","",""
"","ITI","","html-keyboard-response","129","194400","0.0-1.0-180.0","0","0","18860","","295","","","68","19","","","","","","","","","","","","","","","d",""
"","S1","","html-keyboard-response","130","194657","0.0-1.0-182.0","0","0","18860","","null","","","null","20","","","","","","","","","","","","","","","",""
"","ISI","","html-keyboard-response","131","195163","0.0-1.0-183.0","0","0","18860","","217","","","75","20","k","","","","","","","","","","","","","","",""
"","S2","","html-keyboard-response","132","195398","0.0-1.0-184.0","0","0","18860","","231","","","75","20","","k","1","20","training","adjacent","EF","5","6","R.jpg","P.jpg","0","1","0","",""
"","feedback","","html-keyboard-response","133","196406","0.0-1.0-186.0-0.0","0","0","18860","","null","","","null","20","","","","","","","","","","","","","","","",""
"","time_out","","html-keyboard-response","134","198411","0.0-1.0-188.0-0.0","0","0","18860","","null","","","null","20","","","","","","","","","","","","","","","",""
"","ITI","","html-keyboard-response","135","199416","0.0-1.0-189.0","0","0","18860","","295","","","68","20","","","","","","","","","","","","","","","d",""
"","S1","","html-keyboard-response","136","199681","0.0-1.0-191.0","0","0","18860","","null","","","null","21","","","","","","","","","","","","","","","",""
"","ISI","","html-keyboard-response","137","200185","0.0-1.0-192.0","0","0","18860","","0","","","68","21","d","","","","","","","","","","","","","","",""
"","S2","","html-keyboard-response","138","200190","0.0-1.0-193.0","0","0","18860","","1","","","68","21","","d","1","21","training","adjacent","AB","1","2","Q.jpg","O.jpg","1","1","1","",""
"","feedback","","html-keyboard-response","139","201194","0.0-1.0-195.0-0.0","0","0","18860","","null","","","null","21","","","","","","","","","","","","","","","",""
"","ITI","","html-keyboard-response","140","202198","0.0-1.0-198.0","0","0","18860","","91","","","75","21","","","","","","","","","","","","","","","k",""
"","S1","","html-keyboard-response","141","202453","0.0-1.0-200.0","0","0","18860","","null","","","null","22","","","","","","","","","","","","","","","",""
"","ISI","","html-keyboard-response","142","202954","0.0-1.0-201.0","0","0","18860","","91","","","68","22","d","","","","","","","","","","","","","","",""
"","S2","","html-keyboard-response","143","203139","0.0-1.0-202.0","0","0","18860","","182","","","75","22","","k","1","22","training","adjacent","FE","6","5","P.jpg","R.jpg","0","0","1","",""
"","feedback","","html-keyboard-response","144","204143","0.0-1.0-204.0-0.0","0","0","18860","","null","","","null","22","","","","","","","","","","","","","","","",""
"","ITI","","html-keyboard-response","145","205146","0.0-1.0-207.0","0","0","18860","","144","","","75","22","","","","","","","","","","","","","","","k",""
"","S1","","html-keyboard-response","146","205405","0.0-1.0-209.0","0","0","18860","","null","","","null","23","","","","","","","","","","","","","","","",""
"","ISI","","html-keyboard-response","147","205909","0.0-1.0-210.0","0","0","18860","","17","","","75","23","k","","","","","","","","","","","","","","",""
"","S2","","html-keyboard-response","148","206049","0.0-1.0-211.0","0","0","18860","","137","","","68","23","","d","1","23","training","adjacent","BC","2","3","O.jpg","N.jpg","1","1","1","",""
"","feedback","","html-keyboard-response","149","207059","0.0-1.0-213.0-0.0","0","0","18860","","null","","","null","23","","","","","","","","","","","","","","","",""
"","ITI","","html-keyboard-response","150","208066","0.0-1.0-216.0","0","0","18860","","1","","","68","23","","","","","","","","","","","","","","","d",""
"","S1","","html-keyboard-response","151","208322","0.0-1.0-218.0","0","0","18860","","null","","","null","24","","","","","","","","","","","","","","","",""
"","ISI","","html-keyboard-response","152","208826","0.0-1.0-219.0","0","0","18860","","350","","","75","24","k","","","","","","","","","","","","","","",""
"","S2","","html-keyboard-response","153","209082","0.0-1.0-220.0","0","0","18860","","null","","","null","24","","NaN","","","","","","","","","","","","","",""
"","response","","html-keyboard-response","154","209105","0.0-1.0-221.0-0.0","0","0","18860","","19","","","75","24","","","1","24","training","adjacent","GF","7","6","M.jpg","P.jpg","0","0","1","",""
"","feedback","","html-keyboard-response","155","210110","0.0-1.0-222.0-0.0","0","0","18860","","null","","","null","24","","","","","","","","","","","","","","","",""
"","ITI","","html-keyboard-response","156","211117","0.0-1.0-225.0","0","0","18860","","125","","","68","24","","","","","","","","","","","","","","","d",""
"","S1","","html-keyboard-response","157","211373","0.0-1.0-227.0","0","0","18860","","null","","","null","25","","","","","","","","","","","","","","","",""
"","ISI","","html-keyboard-response","158","211877","0.0-1.0-228.0","0","0","18860","","402","","","75","25","k","","","","","","","","","","","","","","",""
"","S2","","html-keyboard-response","159","212131","0.0-1.0-229.0","0","0","18860","","null","","","null","25","","NaN","","","","","","","","","","","","","",""
"","response","","html-keyboard-response","160","212138","0.0-1.0-230.0-0.0","0","0","18860","","4","","","75","25","","","1","25","training","adjacent","FE","6","5","P.jpg","R.jpg","0","0","1","",""
"","feedback","","html-keyboard-response","161","213143","0.0-1.0-231.0-0.0","0","0","18860","","null","","","null","25","","","","","","","","","","","","","","","",""
"","ITI","","html-keyboard-response","162","214150","0.0-1.0-234.0","0","0","18860","","21","","","68","25","","","","","","","","","","","","","","","d",""
"","S1","","html-keyboard-response","163","214406","0.0-1.0-236.0","0","0","18860","","null","","","null","26","","","","","","","","","","","","","","","",""
"","ISI","","html-keyboard-response","164","214910","0.0-1.0-237.0","0","0","18860","","448","","","75","26","k","","","","","","","","","","","","","","",""
"","S2","","html-keyboard-response","165","215111","0.0-1.0-238.0","0","0","18860","","193","","","68","26","","d","1","26","training","adjacent","ED","5","4","R.jpg","L.jpg","1","0","0","",""
"","feedback","","html-keyboard-response","166","216119","0.0-1.0-240.0-0.0","0","0","18860","","null","","","null","26","","","","","","","","","","","","","","","",""
"","time_out","","html-keyboard-response","167","218126","0.0-1.0-242.0-0.0","0","0","18860","","null","","","null","26","","","","","","","","","","","","","","","",""
"","ITI","","html-keyboard-response","168","219133","0.0-1.0-243.0","0","0","18860","","38","","","75","26","","","","","","","","","","","","","","","k",""
"","S1","","html-keyboard-response","169","219390","0.0-1.0-245.0","0","0","18860","","null","","","null","27","","","","","","","","","","","","","","","",""
"","ISI","","html-keyboard-response","170","219896","0.0-1.0-246.0","0","0","18860","","288","","","75","27","k","","","","","","","","","","","","","","",""
"","S2","","html-keyboard-response","171","219919","0.0-1.0-247.0","0","0","18860","","15","","","75","27","","k","1","27","training","adjacent","FG","6","7","P.jpg","M.jpg","0","1","0","",""
"","feedback","","html-keyboard-response","172","220927","0.0-1.0-249.0-0.0","0","0","18860","","null","","","null","27","","","","","","","","","","","","","","","",""
"","time_out","","html-keyboard-response","173","222931","0.0-1.0-251.0-0.0","0","0","18860","","null","","","null","27","","","","","","","","","","","","","","","",""
"","ITI","","html-keyboard-response","174","223936","0.0-1.0-252.0","0","0","18860","","104","","","75","27","","","","","","","","","","","","","","","k",""
"","S1","","html-keyboard-response","175","224190","0.0-1.0-254.0","0","0","18860","","null","","","null","28","","","","","","","","","","","","","","","",""
"","ISI","","html-keyboard-response","176","224695","0.0-1.0-255.0","0","0","18860","","88","","","75","28","k","","","","","","","","","","","","","","",""
"","S2","","html-keyboard-response","177","224750","0.0-1.0-256.0","0","0","18860","","48","","","75","28","","k","1","28","training","adjacent","BC","2","3","O.jpg","N.jpg","0","1","0","",""
"","feedback","","html-keyboard-response","178","225757","0.0-1.0-258.0-0.0","0","0","18860","","null","","","null","28","","","","","","","","","","","","","","","",""
"","time_out","","html-keyboard-response","179","227763","0.0-1.0-260.0-0.0","0","0","18860","","null","","","null","28","","","","","","","","","","","","","","","",""
"","ITI","","html-keyboard-response","180","228768","0.0-1.0-261.0","0","0","18860","","90","","","75","28","","","","","","","","","","","","","","","k",""
"","S1","","html-keyboard-response","181","229025","0.0-1.0-263.0","0","0","18860","","null","","","null","29","","","","","","","","","","","","","","","",""
"","ISI","","html-keyboard-response","182","229676","0.0-1.0-264.0","0","0","18860","","131","","","75","29","k","","","","","","","","","","","","","","",""
"","S2","","html-keyboard-response","183","229687","0.0-1.0-265.0","0","0","18860","","8","","","75","29","","k","1","29","training","adjacent","DC","4","3","L.jpg","N.jpg","0","0","1","",""
"","feedback","","html-keyboard-response","184","230692","0.0-1.0-267.0-0.0","0","0","18860","","null","","","null","29","","","","","","","","","","","","","","","",""
"","ITI","","html-keyboard-response","185","231698","0.0-1.0-270.0","0","0","18860","","282","","","68","29","","","","","","","","","","","","","","","d",""
"","S1","","html-keyboard-response","186","231951","0.0-1.0-272.0","0","0","18860","","null","","","null","30","","","","","","","","","","","","","","","",""
"","ISI","","html-keyboard-response","187","232456","0.0-1.0-273.0","0","0","18860","","203","","","68","30","d","","","","","","","","","","","","","","",""
"","S2","","html-keyboard-response","188","232467","0.0-1.0-274.0","0","0","18860","","7","","","68","30","","d","1","30","training","adjacent","EF","5","6","R.jpg","P.jpg","1","1","1","",""
"","feedback","","html-keyboard-response","189","233478","0.0-1.0-276.0-0.0","0","0","18860","","null","","","null","30","","","","","","","","","","","","","","","",""
"","ITI","","html-keyboard-response","190","234482","0.0-1.0-279.0","0","0","18860","","407","","","68","30","","","","","","","","","","","","","","","d",""
"","S1","","html-keyboard-response","191","234737","0.0-1.0-281.0","0","0","18860","","null","","","null","31","","","","","","","","","","","","","","","",""
"","ISI","","html-keyboard-response","192","235241","0.0-1.0-282.0","0","0","18860","","null","","","null","31","NaN","","","","","","","","","","","","","","",""
"","S2","","html-keyboard-response","193","235500","0.0-1.0-283.0","0","0","18860","","null","","","null","31","","NaN","","","","","","","","","","","","","",""
"","response","","html-keyboard-response","194","235900","0.0-1.0-284.0-0.0","0","0","18860","","392","","","75","31","","","1","31","training","adjacent","CB","3","2","N.jpg","O.jpg","0","0","1","",""
"","feedback","","html-keyboard-response","195","236904","0.0-1.0-285.0-0.0","0","0","18860","","null","","","null","31","","","","","","","","","","","","","","","",""
"","ITI","","html-keyboard-response","196","237912","0.0-1.0-288.0","0","0","18860","","211","","","75","31","","","","","","","","","","","","","","","k",""
"","S1","","html-keyboard-response","197","238165","0.0-1.0-290.0","0","0","18860","","null","","","null","32","","","","","","","","","","","","","","","",""
"","ISI","","html-keyboard-response","198","238670","0.0-1.0-291.0","0","0","18860","","30","","","75","32","k","","","","","","","","","","","","","","",""
"","S2","","html-keyboard-response","199","238759","0.0-1.0-292.0","0","0","18860","","83","","","68","32","","d","1","32","training","adjacent","BC","2","3","O.jpg","N.jpg","1","1","1","",""
"","feedback","","html-keyboard-response","200","239767","0.0-1.0-294.0-0.0","0","0","18860","","null","","","null","32","","","","","","","","","","","","","","","",""
"","ITI","","html-keyboard-response","201","240776","0.0-1.0-297.0","0","0","18860","","94","","","68","32","","","","","","","","","","","","","","","d",""
"","S1","","html-keyboard-response","202","241033","0.0-1.0-299.0","0","0","18860","","null","","","null","33","","","","","","","","","","","","","","","",""
"","ISI","","html-keyboard-response","203","241581","0.0-1.0-300.0","0","0","18860","","162","","","68","33","d","","","","","","","","","","","","","","",""
"","S2","","html-keyboard-response","204","241845","0.0-1.0-301.0","0","0","18860","","null","","","null","33","","NaN","","","","","","","","","","","","","",""
"","response","","html-keyboard-response","205","242359","0.0-1.0-302.0-0.0","0","0","18860","","510","","","75","33","","","1","33","training","adjacent","CB","3","2","N.jpg","O.jpg","0","0","1","",""
"","feedback","","html-keyboard-response","206","243363","0.0-1.0-303.0-0.0","0","0","18860","","null","","","null","33","","","","","","","","","","","","","","","",""
"","ITI","","html-keyboard-response","207","244370","0.0-1.0-306.0","0","0","18860","","174","","","75","33","","","","","","","","","","","","","","","k",""
"","S1","","html-keyboard-response","208","244624","0.0-1.0-308.0","0","0","18860","","null","","","null","34","","","","","","","","","","","","","","","",""
"","ISI","","html-keyboard-response","209","245128","0.0-1.0-309.0","0","0","18860","","null","","","null","34","NaN","","","","","","","","","","","","","","",""
"","S2","","html-keyboard-response","210","245384","0.0-1.0-310.0","0","0","18860","","null","","","null","34","","NaN","","","","","","","","","","","","","",""
"","response","","html-keyboard-response","211","247140","0.0-1.0-311.0-0.0","0","0","18860","","null","","","null","34","","","1","34","training","adjacent","DE","4","5","L.jpg","R.jpg","NaN","1","0","",""
"","too_slow_prompt","","html-keyboard-response","212","248145","0.0-1.0-313.0-0.0","1","0","18860","","null","","","null","","","","","","","","","","","","","","","","",""
"","time_out","","html-keyboard-response","213","250150","0.0-1.0-314.0-0.0","0","0","18860","","null","","","null","34","","","","","","","","","","","","","","","",""
"","ITI","","html-keyboard-response","214","251161","0.0-1.0-315.0","0","0","18860","","358","","","75","34","","","","","","","","","","","","","","","k",""
"","S1","","html-keyboard-response","215","251426","0.0-1.0-317.0","0","0","18860","","null","","","null","35","","","","","","","","","","","","","","","",""
"","ISI","","html-keyboard-response","216","251930","0.0-1.0-318.0","0","0","18860","","200","","","75","35","k","","","","","","","","","","","","","","",""
"","S2","","html-keyboard-response","217","252006","0.0-1.0-319.0","0","0","18860","","61","","","68","35","","d","1","35","training","adjacent","BA","2","1","O.jpg","Q.jpg","1","0","0","",""
"","feedback","","html-keyboard-response","218","253011","0.0-1.0-321.0-0.0","0","0","18860","","null","","","null","35","","","","","","","","","","","","","","","",""
"","time_out","","html-keyboard-response","219","255019","0.0-1.0-323.0-0.0","0","0","18860","","null","","","null","35","","","","","","","","","","","","","","","",""
"","ITI","","html-keyboard-response","220","256026","0.0-1.0-324.0","0","0","18860","","357","","","68","35","","","","","","","","","","","","","","","d",""
"","S1","","html-keyboard-response","221","256282","0.0-1.0-326.0","0","0","18860","","null","","","null","36","","","","","","","","","","","","","","","",""
"","ISI","","html-keyboard-response","222","256786","0.0-1.0-327.0","0","0","18860","","361","","","68","36","d","","","","","","","","","","","","","","",""
"","S2","","html-keyboard-response","223","257051","0.0-1.0-328.0","0","0","18860","","null","","","null","36","","NaN","","","","","","","","","","","","","",""
"","response","","html-keyboard-response","224","258807","0.0-1.0-329.0-0.0","0","0","18860","","null","","","null","36","","","1","36","training","adjacent","DC","4","3","L.jpg","N.jpg","NaN","0","0","",""
"","too_slow_prompt","","html-keyboard-response","225","259816","0.0-1.0-331.0-0.0","1","0","18860","","null","","","null","","","","","","","","","","","","","","","","",""
"","time_out","","html-keyboard-response","226","261827","0.0-1.0-332.0-0.0","0","0","18860","","null","","","null","36","","","","","","","","","","","","","","","",""
"","ITI","","html-keyboard-response","227","262834","0.0-1.0-333.0","0","0","18860","","257","","","68","36","","","","","","","","","","","","","","","d",""
"","S1","","html-keyboard-response","228","263090","0.0-1.0-335.0","0","0","18860","","null","","","null","37","","","","","","","","","","","","","","","",""
"","ISI","","html-keyboard-response","229","263602","0.0-1.0-336.0","0","0","18860","","134","","","68","37","d","","","","","","","","","","","","","","",""
"","S2","","html-keyboard-response","230","263661","0.0-1.0-337.0","0","0","18860","","51","","","68","37","","d","1","37","training","adjacent","ED","5","4","R.jpg","L.jpg","1","0","0","",""
"","feedback","","html-keyboard-response","231","264669","0.0-1.0-339.0-0.0","0","0","18860","","null","","","null","37","","","","","","","","","","","","","","","",""
"","time_out","","html-keyboard-response","232","266678","0.0-1.0-341.0-0.0","0","0","18860","","null","","","null","37","","","","","","","","","","","","","","","",""
"","ITI","","html-keyboard-response","233","267682","0.0-1.0-342.0","0","0","18860","","58","","","68","37","","","","","","","","","","","","","","","d",""
"","S1","","html-keyboard-response","234","267938","0.0-1.0-344.0","0","0","18860","","null","","","null","38","","","","","","","","","","","","","","","",""
"","ISI","","html-keyboard-response","235","268443","0.0-1.0-345.0","0","0","18860","","4","","","75","38","k","","","","","","","","","","","","","","",""
"","S2","","html-keyboard-response","236","268660","0.0-1.0-346.0","0","0","18860","","214","","","75","38","","k","1","38","training","adjacent","FG","6","7","P.jpg","M.jpg","0","1","0","",""
"","feedback","","html-keyboard-response","237","269667","0.0-1.0-348.0-0.0","0","0","18860","","null","","","null","38","","","","","","","","","","","","","","","",""
"","time_out","","html-keyboard-response","238","271673","0.0-1.0-350.0-0.0","0","0","18860","","null","","","null","38","","","","","","","","","","","","","","","",""
"","ITI","","html-keyboard-response","239","272680","0.0-1.0-351.0","0","0","18860","","2","","","75","38","","","","","","","","","","","","","","","k",""
"","S1","","html-keyboard-response","240","272937","0.0-1.0-353.0","0","0","18860","","null","","","null","39","","","","","","","","","","","","","","","",""
"","ISI","","html-keyboard-response","241","273442","0.0-1.0-354.0","0","0","18860","","83","","","68","39","d","","","","","","","","","","","","","","",""
"","S2","","html-keyboard-response","242","273489","0.0-1.0-355.0","0","0","18860","","42","","","75","39","","k","1","39","training","adjacent","AB","1","2","Q.jpg","O.jpg","0","1","0","",""
"","feedback","","html-keyboard-response","243","274495","0.0-1.0-357.0-0.0","0","0","18860","","null","","","null","39","","","","","","","","","","","","","","","",""
"","time_out","","html-keyboard-response","244","276499","0.0-1.0-359.0-0.0","0","0","18860","","null","","","null","39","","","","","","","","","","","","","","","",""
"","ITI","","html-keyboard-response","245","277513","0.0-1.0-360.0","0","0","18860","","867","","","68","39","","","","","","","","","","","","","","","d",""
"","S1","","html-keyboard-response","246","277767","0.0-1.0-362.0","0","0","18860","","null","","","null","40","","","","","","","","","","","","","","","",""
"","ISI","","html-keyboard-response","247","278270","0.0-1.0-363.0","0","0","18860","","230","","","75","40","k","","","","","","","","","","","","","","",""
"","S2","","html-keyboard-response","248","278335","0.0-1.0-364.0","0","0","18860","","60","","","75","40","","k","1","40","training","adjacent","EF","5","6","R.jpg","P.jpg","0","1","0","",""
"","feedback","","html-keyboard-response","249","279341","0.0-1.0-366.0-0.0","0","0","18860","","null","","","null","40","","","","","","","","","","","","","","","",""
"","time_out","","html-keyboard-response","250","281345","0.0-1.0-368.0-0.0","0","0","18860","","null","","","null","40","","","","","","","","","","","","","","","",""
"","ITI","","html-keyboard-response","251","282349","0.0-1.0-369.0","0","0","18860","","151","","","75","40","","","","","","","","","","","","","","","k",""
"","S1","","html-keyboard-response","252","282604","0.0-1.0-371.0","0","0","18860","","null","","","null","41","","","","","","","","","","","","","","","",""
"","ISI","","html-keyboard-response","253","283108","0.0-1.0-372.0","0","0","18860","","null","","","null","41","NaN","","","","","","","","","","","","","","",""
"","S2","","html-keyboard-response","254","283149","0.0-1.0-373.0","0","0","18860","","37","","","68","41","","d","1","41","training","adjacent","DE","4","5","L.jpg","R.jpg","1","1","1","",""
"","feedback","","html-keyboard-response","255","284154","0.0-1.0-375.0-0.0","0","0","18860","","null","","","null","41","","","","","","","","","","","","","","","",""
"","ITI","","html-keyboard-response","256","285159","0.0-1.0-378.0","0","0","18860","","43","","","75","41","","","","","","","","","","","","","","","k",""
"","S1","","html-keyboard-response","257","285415","0.0-1.0-380.0","0","0","18860","","null","","","null","42","","","","","","","","","","","","","","","",""
"","ISI","","html-keyboard-response","258","285923","0.0-1.0-381.0","0","0","18860","","59","","","68","42","d","","","","","","","","","","","","","","",""
"","S2","","html-keyboard-response","259","286072","0.0-1.0-382.0","0","0","18860","","143","","","75","42","","k","1","42","training","adjacent","GF","7","6","M.jpg","P.jpg","0","0","1","",""
"","feedback","","html-keyboard-response","260","287078","0.0-1.0-384.0-0.0","0","0","18860","","null","","","null","42","","","","","","","","","","","","","","","",""
"","ITI","","html-keyboard-response","261","288087","0.0-1.0-387.0","0","0","18860","","null","","","null","42","","","","","","","","","","","","","","","NaN",""
"","S1","","html-keyboard-response","262","288340","0.0-1.0-389.0","0","0","18860","","null","","","null","43","","","","","","","","","","","","","","","",""
"","ISI","","html-keyboard-response","263","288843","0.0-1.0-390.0","0","0","18860","","null","","","null","43","NaN","","","","","","","","","","","","","","",""
"","S2","","html-keyboard-response","264","289089","0.0-1.0-391.0","0","0","18860","","243","","","68","43","","d","1","43","training","adjacent","FG","6","7","P.jpg","M.jpg","1","1","1","",""
"","feedback","","html-keyboard-response","265","290096","0.0-1.0-393.0-0.0","0","0","18860","","null","","","null","43","","","","","","","","","","","","","","","",""
"","ITI","","html-keyboard-response","266","291102","0.0-1.0-396.0","0","0","18860","","136","","","68","43","","","","","","","","","","","","","","","d",""
"","S1","","html-keyboard-response","267","291359","0.0-1.0-398.0","0","0","18860","","null","","","null","44","","","","","","","","","","","","","","","",""
"","ISI","","html-keyboard-response","268","291864","0.0-1.0-399.0","0","0","18860","","124","","","75","44","k","","","","","","","","","","","","","","",""
"","S2","","html-keyboard-response","269","292120","0.0-1.0-400.0","0","0","18860","","null","","","null","44","","NaN","","","","","","","","","","","","","",""
"","response","","html-keyboard-response","270","292139","0.0-1.0-401.0-0.0","0","0","18860","","16","","","75","44","","","1","44","training","adjacent","BA","2","1","O.jpg","Q.jpg","0","0","1","",""
"","feedback","","html-keyboard-response","271","293145","0.0-1.0-402.0-0.0","0","0","18860","","null","","","null","44","","","","","","","","","","","","","","","",""
"","ITI","","html-keyboard-response","272","294150","0.0-1.0-405.0","0","0","18860","","182","","","75","44","","","","","","","","","","","","","","","k",""
"","S1","","html-keyboard-response","273","294406","0.0-1.0-407.0","0","0","18860","","null","","","null","45","","","","","","","","","","","","","","","",""
"","ISI","","html-keyboard-response","274","294911","0.0-1.0-408.0","0","0","18860","","63","","","75","45","k","","","","","","","","","","","","","","",""
"","S2","","html-keyboard-response","275","295060","0.0-1.0-409.0","0","0","18860","","142","","","68","45","","d","1","45","training","adjacent","ED","5","4","R.jpg","L.jpg","1","0","0","",""
"","feedback","","html-keyboard-response","276","296067","0.0-1.0-411.0-0.0","0","0","18860","","null","","","null","45","","","","","","","","","","","","","","","",""
"","time_out","","html-keyboard-response","277","298073","0.0-1.0-413.0-0.0","0","0","18860","","null","","","null","45","","","","","","","","","","","","","","","",""
"","ITI","","html-keyboard-response","278","299080","0.0-1.0-414.0","0","0","18860","","43","","","68","45","","","","","","","","","","","","","","","d",""
"","S1","","html-keyboard-response","279","299336","0.0-1.0-416.0","0","0","18860","","null","","","null","46","","","","","","","","","","","","","","","",""
"","ISI","","html-keyboard-response","280","299841","0.0-1.0-417.0","0","0","18860","","18","","","68","46","d","","","","","","","","","","","","","","",""
"","S2","","html-keyboard-response","281","300096","0.0-1.0-418.0","0","0","18860","","null","","","null","46","","NaN","","","","","","","","","","","","","",""
"","response","","html-keyboard-response","282","300721","0.0-1.0-419.0-0.0","0","0","18860","","621","","","75","46","","","1","46","training","adjacent","CD","3","4","N.jpg","L.jpg","0","1","0","",""
"","feedback","","html-keyboard-response","283","301730","0.0-1.0-420.0-0.0","0","0","18860","","null","","","null","46","","","","","","","","","","","","","","","",""
"","time_out","","html-keyboard-response","284","303737","0.0-1.0-422.0-0.0","0","0","18860","","null","","","null","46","","","","","","","","","","","","","","","",""
"","ITI","","html-keyboard-response","285","304742","0.0-1.0-423.0","0","0","18860","","27","","","68","46","","","","","","","","","","","","","","","d",""
"","S1","","html-keyboard-response","286","304998","0.0-1.0-425.0","0","0","18860","","null","","","null","47","","","","","","","","","","","","","","","",""
"","ISI","","html-keyboard-response","287","305504","0.0-1.0-426.0","0","0","18860","","493","","","75","47","k","","","","","","","","","","","","","","",""
"","S2","","html-keyboard-response","288","305758","0.0-1.0-427.0","0","0","18860","","null","","","null","47","","NaN","","","","","","","","","","","","","",""
"","response","","html-keyboard-response","289","305768","0.0-1.0-428.0-0.0","0","0","18860","","6","","","68","47","","","1","47","training","adjacent","FE","6","5","P.jpg","R.jpg","1","0","0","",""
"","feedback","","html-keyboard-response","290","306772","0.0-1.0-429.0-0.0","0","0","18860","","null","","","null","47","","","","","","","","","","","","","","","",""
"","time_out","","html-keyboard-response","291","308780","0.0-1.0-431.0-0.0","0","0","18860","","null","","","null","47","","","","","","","","","","","","","","","",""
"","ITI","","html-keyboard-response","292","309788","0.0-1.0-432.0","0","0","18860","","314","","","75","47","","","","","","","","","","","","","","","k",""
"","block_over","","html-keyboard-response","293","439746","0.0-1.0-433.0-0.0","0","0","18860","","129942","","","32","47","","","","","","","","","","","","","","","",""
"","S1","","html-keyboard-response","294","440005","0.0-1.0-434.0","0","0","18860","","null","","","null","48","","","","","","","","","","","","","","","",""
"","ISI","","html-keyboard-response","295","440511","0.0-1.0-435.0","0","0","18860","","null","","","null","48","NaN","","","","","","","","","","","","","","",""
"","S2","","html-keyboard-response","296","440766","0.0-1.0-436.0","0","0","18860","","null","","","null","48","","NaN","","","","","","","","","","","","","",""
"","response","","html-keyboard-response","297","441038","0.0-1.0-437.0-0.0","0","0","18860","","267","","","68","48","","","2","48","training","adjacent","CD","3","4","N.jpg","L.jpg","1","1","1","",""
"","feedback","","html-keyboard-response","298","442045","0.0-1.0-438.0-0.0","0","0","18860","","null","","","null","48","","","","","","","","","","","","","","","",""
"","ITI","","html-keyboard-response","299","443052","0.0-1.0-441.0","0","0","18860","","141","","","68","48","","","","","","","","","","","","","","","d",""
"","S1","","html-keyboard-response","300","443308","0.0-1.0-443.0","0","0","18860","","null","","","null","49","","","","","","","","","","","","","","","",""
"","ISI","","html-keyboard-response","301","443815","0.0-1.0-444.0","0","0","18860","","20","","","75","49","k","","","","","","","","","","","","","","",""
"","S2","","html-keyboard-response","302","443874","0.0-1.0-445.0","0","0","18860","","50","","","68","49","","d","2","49","training","adjacent","FE","6","5","P.jpg","R.jpg","1","0","0","",""
"","feedback","","html-keyboard-response","303","444881","0.0-1.0-447.0-0.0","0","0","18860","","null","","","null","49","","","","","","","","","","","","","","","",""
"","time_out","","html-keyboard-response","304","446886","0.0-1.0-449.0-0.0","0","0","18860","","null","","","null","49","","","","","","","","","","","","","","","",""
"","ITI","","html-keyboard-response","305","447892","0.0-1.0-450.0","0","0","18860","","15","","","75","49","","","","","","","","","","","","","","","k",""
"","S1","","html-keyboard-response","306","448148","0.0-1.0-452.0","0","0","18860","","null","","","null","50","","","","","","","","","","","","","","","",""
"","ISI","","html-keyboard-response","307","448654","0.0-1.0-453.0","0","0","18860","","113","","","75","50","k","","","","","","","","","","","","","","",""
"","S2","","html-keyboard-response","308","448741","0.0-1.0-454.0","0","0","18860","","79","","","75","50","","k","2","50","training","adjacent","AB","1","2","Q.jpg","O.jpg","0","1","0","",""
"","feedback","","html-keyboard-response","309","449757","0.0-1.0-456.0-0.0","0","0","18860","","null","","","null","50","","","","","","","","","","","","","","","",""
"","time_out","","html-keyboard-response","310","451762","0.0-1.0-458.0-0.0","0","0","18860","","null","","","null","50","","","","","","","","","","","","","","","",""
"","ITI","","html-keyboard-response","311","452767","0.0-1.0-459.0","0","0","18860","","12","","","75","50","","","","","","","","","","","","","","","k",""
"","S1","","html-keyboard-response","312","453021","0.0-1.0-461.0","0","0","18860","","null","","","null","51","","","","","","","","","","","","","","","",""
"","ISI","","html-keyboard-response","313","453530","0.0-1.0-462.0","0","0","18860","","85","","","68","51","d","","","","","","","","","","","","","","",""
"","S2","","html-keyboard-response","314","453621","0.0-1.0-463.0","0","0","18860","","84","","","75","51","","k","2","51","training","adjacent","CB","3","2","N.jpg","O.jpg","0","0","1","",""
"","feedback","","html-keyboard-response","315","454628","0.0-1.0-465.0-0.0","0","0","18860","","null","","","null","51","","","","","","","","","","","","","","","",""
"","ITI","","html-keyboard-response","316","455646","0.0-1.0-468.0","0","0","18860","","99","","","75","51","","","","","","","","","","","","","","","k",""
"","S1","","html-keyboard-response","317","455901","0.0-1.0-470.0","0","0","18860","","null","","","null","52","","","","","","","","","","","","","","","",""
"","ISI","","html-keyboard-response","318","456405","0.0-1.0-471.0","0","0","18860","","77","","","75","52","k","","","","","","","","","","","","","","",""
"","S2","","html-keyboard-response","319","456452","0.0-1.0-472.0","0","0","18860","","42","","","68","52","","d","2","52","training","adjacent","DC","4","3","L.jpg","N.jpg","1","0","0","",""
"","feedback","","html-keyboard-response","320","457471","0.0-1.0-474.0-0.0","0","0","18860","","null","","","null","52","","","","","","","","","","","","","","","",""
"","time_out","","html-keyboard-response","321","459569","0.0-1.0-476.0-0.0","0","0","18860","","null","","","null","52","","","","","","","","","","","","","","","",""
"","ITI","","html-keyboard-response","322","460578","0.0-1.0-477.0","0","0","18860","","115","","","68","52","","","","","","","","","","","","","","","d",""
"","S1","","html-keyboard-response","323","460834","0.0-1.0-479.0","0","0","18860","","null","","","null","53","","","","","","","","","","","","","","","",""
"","ISI","","html-keyboard-response","324","461340","0.0-1.0-480.0","0","0","18860","","380","","","75","53","k","","","","","","","","","","","","","","",""
"","S2","","html-keyboard-response","325","461399","0.0-1.0-481.0","0","0","18860","","53","","","68","53","","d","2","53","training","adjacent","ED","5","4","R.jpg","L.jpg","1","0","0","",""
"","feedback","","html-keyboard-response","326","462403","0.0-1.0-483.0-0.0","0","0","18860","","null","","","null","53","","","","","","","","","","","","","","","",""
"","time_out","","html-keyboard-response","327","464409","0.0-1.0-485.0-0.0","0","0","18860","","null","","","null","53","","","","","","","","","","","","","","","",""
"","ITI","","html-keyboard-response","328","465417","0.0-1.0-486.0","0","0","18860","","147","","","68","53","","","","","","","","","","","","","","","d",""
"","S1","","html-keyboard-response","329","465677","0.0-1.0-488.0","0","0","18860","","null","","","null","54","","","","","","","","","","","","","","","",""
"","ISI","","html-keyboard-response","330","466182","0.0-1.0-489.0","0","0","18860","","20","","","75","54","k","","","","","","","","","","","","","","",""
"","S2","","html-keyboard-response","331","466198","0.0-1.0-490.0","0","0","18860","","11","","","68","54","","d","2","54","training","adjacent","CB","3","2","N.jpg","O.jpg","1","0","0","",""
"","feedback","","html-keyboard-response","332","467205","0.0-1.0-492.0-0.0","0","0","18860","","null","","","null","54","","","","","","","","","","","","","","","",""
"","time_out","","html-keyboard-response","333","469215","0.0-1.0-494.0-0.0","0","0","18860","","null","","","null","54","","","","","","","","","","","","","","","",""
"","ITI","","html-keyboard-response","334","470219","0.0-1.0-495.0","0","0","18860","","41","","","68","54","","","","","","","","","","","","","","","d",""
"","S1","","html-keyboard-response","335","470474","0.0-1.0-497.0","0","0","18860","","null","","","null","55","","","","","","","","","","","","","","","",""
"","ISI","","html-keyboard-response","336","470980","0.0-1.0-498.0","0","0","18860","","261","","","68","55","d","","","","","","","","","","","","","","",""
"","S2","","html-keyboard-response","337","471159","0.0-1.0-499.0","0","0","18860","","173","","","75","55","","k","2","55","training","adjacent","GF","7","6","M.jpg","P.jpg","0","0","1","",""
"","feedback","","html-keyboard-response","338","472164","0.0-1.0-501.0-0.0","0","0","18860","","null","","","null","55","","","","","","","","","","","","","","","",""
"","ITI","","html-keyboard-response","339","473170","0.0-1.0-504.0","0","0","18860","","277","","","75","55","","","","","","","","","","","","","","","k",""
"","S1","","html-keyboard-response","340","473425","0.0-1.0-506.0","0","0","18860","","null","","","null","56","","","","","","","","","","","","","","","",""
"","ISI","","html-keyboard-response","341","473931","0.0-1.0-507.0","0","0","18860","","369","","","68","56","d","","","","","","","","","","","","","","",""
"","S2","","html-keyboard-response","342","474003","0.0-1.0-508.0","0","0","18860","","64","","","75","56","","k","2","56","training","adjacent","AB","1","2","Q.jpg","O.jpg","0","1","0","",""
"","feedback","","html-keyboard-response","343","475009","0.0-1.0-510.0-0.0","0","0","18860","","null","","","null","56","","","","","","","","","","","","","","","",""
"","time_out","","html-keyboard-response","344","477019","0.0-1.0-512.0-0.0","0","0","18860","","null","","","null","56","","","","","","","","","","","","","","","",""
"","ITI","","html-keyboard-response","345","478027","0.0-1.0-513.0","0","0","18860","","118","","","75","56","","","","","","","","","","","","","","","k",""
"","S1","","html-keyboard-response","346","478283","0.0-1.0-515.0","0","0","18860","","null","","","null","57","","","","","","","","","","","","","","","",""
"","ISI","","html-keyboard-response","347","478788","0.0-1.0-516.0","0","0","18860","","222","","","75","57","k","","","","","","","","","","","","","","",""
"","S2","","html-keyboard-response","348","478948","0.0-1.0-517.0","0","0","18860","","154","","","68","57","","d","2","57","training","adjacent","DE","4","5","L.jpg","R.jpg","1","1","1","",""
"","feedback","","html-keyboard-response","349","479954","0.0-1.0-519.0-0.0","0","0","18860","","null","","","null","57","","","","","","","","","","","","","","","",""
"","ITI","","html-keyboard-response","350","480963","0.0-1.0-522.0","0","0","18860","","null","","","null","57","","","","","","","","","","","","","","","NaN",""
"","S1","","html-keyboard-response","351","481218","0.0-1.0-524.0","0","0","18860","","null","","","null","58","","","","","","","","","","","","","","","",""
"","ISI","","html-keyboard-response","352","481726","0.0-1.0-525.0","0","0","18860","","362","","","68","58","d","","","","","","","","","","","","","","",""
"","S2","","html-keyboard-response","353","481982","0.0-1.0-526.0","0","0","18860","","null","","","null","58","","NaN","","","","","","","","","","","","","",""
"","response","","html-keyboard-response","354","482066","0.0-1.0-527.0-0.0","0","0","18860","","80","","","75","58","","","2","58","training","adjacent","ED","5","4","R.jpg","L.jpg","0","0","1","",""
"","feedback","","html-keyboard-response","355","483072","0.0-1.0-528.0-0.0","0","0","18860","","null","","","null","58","","","","","","","","","","","","","","","",""
"","ITI","","html-keyboard-response","356","484078","0.0-1.0-531.0","0","0","18860","","765","","","68","58","","","","","","","","","","","","","","","d",""
"","S1","","html-keyboard-response","357","484334","0.0-1.0-533.0","0","0","18860","","null","","","null","59","","","","","","","","","","","","","","","",""
"","ISI","","html-keyboard-response","358","484839","0.0-1.0-534.0","0","0","18860","","280","","","68","59","d","","","","","","","","","","","","","","",""
"","S2","","html-keyboard-response","359","484973","0.0-1.0-535.0","0","0","18860","","130","","","75","59","","k","2","59","training","adjacent","GF","7","6","M.jpg","P.jpg","0","0","1","",""
"","feedback","","html-keyboard-response","360","486052","0.0-1.0-537.0-0.0","0","0","18860","","null","","","null","59","","","","","","","","","","","","","","","",""
"","ITI","","html-keyboard-response","361","487058","0.0-1.0-540.0","0","0","18860","","null","","","null","59","","","","","","","","","","","","","","","NaN",""
"","S1","","html-keyboard-response","362","487311","0.0-1.0-542.0","0","0","18860","","null","","","null","60","","","","","","","","","","","","","","","",""
"","ISI","","html-keyboard-response","363","487817","0.0-1.0-543.0","0","0","18860","","294","","","68","60","d","","","","","","","","","","","","","","",""
"","S2","","html-keyboard-response","364","487961","0.0-1.0-544.0","0","0","18860","","139","","","75","60","","k","2","60","training","adjacent","ED","5","4","R.jpg","L.jpg","0","0","1","",""
"","feedback","","html-keyboard-response","365","488969","0.0-1.0-546.0-0.0","0","0","18860","","null","","","null","60","","","","","","","","","","","","","","","",""
"","ITI","","html-keyboard-response","366","489975","0.0-1.0-549.0","0","0","18860","","null","","","null","60","","","","","","","","","","","","","","","NaN",""
"","S1","","html-keyboard-response","367","490230","0.0-1.0-551.0","0","0","18860","","null","","","null","61","","","","","","","","","","","","","","","",""
"","ISI","","html-keyboard-response","368","490734","0.0-1.0-552.0","0","0","18860","","297","","","68","61","d","","","","","","","","","","","","","","",""
"","S2","","html-keyboard-response","369","490901","0.0-1.0-553.0","0","0","18860","","161","","","75","61","","k","2","61","training","adjacent","CD","3","4","N.jpg","L.jpg","0","1","0","",""
"","feedback","","html-keyboard-response","370","491908","0.0-1.0-555.0-0.0","0","0","18860","","null","","","null","61","","","","","","","","","","","","","","","",""
"","time_out","","html-keyboard-response","371","493917","0.0-1.0-557.0-0.0","0","0","18860","","null","","","null","61","","","","","","","","","","","","","","","",""
"","ITI","","html-keyboard-response","372","494929","0.0-1.0-558.0","0","0","18860","","null","","","null","61","","","","","","","","","","","","","","","NaN",""
"","S1","","html-keyboard-response","373","495185","0.0-1.0-560.0","0","0","18860","","null","","","null","62","","","","","","","","","","","","","","","",""
"","ISI","","html-keyboard-response","374","495696","0.0-1.0-561.0","0","0","18860","","225","","","68","62","d","","","","","","","","","","","","","","",""
"","S2","","html-keyboard-response","375","495849","0.0-1.0-562.0","0","0","18860","","147","","","75","62","","k","2","62","training","adjacent","DE","4","5","L.jpg","R.jpg","0","1","0","",""
"","feedback","","html-keyboard-response","376","496853","0.0-1.0-564.0-0.0","0","0","18860","","null","","","null","62","","","","","","","","","","","","","","","",""
"","time_out","","html-keyboard-response","377","498858","0.0-1.0-566.0-0.0","0","0","18860","","null","","","null","62","","","","","","","","","","","","","","","",""
"","ITI","","html-keyboard-response","378","499863","0.0-1.0-567.0","0","0","18860","","356","","","75","62","","","","","","","","","","","","","","","k",""
"","S1","","html-keyboard-response","379","500119","0.0-1.0-569.0","0","0","18860","","null","","","null","63","","","","","","","","","","","","","","","",""
"","ISI","","html-keyboard-response","380","500622","0.0-1.0-570.0","0","0","18860","","155","","","75","63","k","","","","","","","","","","","","","","",""
"","S2","","html-keyboard-response","381","500817","0.0-1.0-571.0","0","0","18860","","185","","","68","63","","d","2","63","training","adjacent","CD","3","4","N.jpg","L.jpg","1","1","1","",""
"","feedback","","html-keyboard-response","382","501824","0.0-1.0-573.0-0.0","0","0","18860","","null","","","null","63","","","","","","","","","","","","","","","",""
"","ITI","","html-keyboard-response","383","502831","0.0-1.0-576.0","0","0","18860","","null","","","null","63","","","","","","","","","","","","","","","NaN",""
"","S1","","html-keyboard-response","384","503089","0.0-1.0-578.0","0","0","18860","","null","","","null","64","","","","","","","","","","","","","","","",""
"","ISI","","html-keyboard-response","385","503602","0.0-1.0-579.0","0","0","18860","","412","","","68","64","d","","","","","","","","","","","","","","",""
"","S2","","html-keyboard-response","386","503858","0.0-1.0-580.0","0","0","18860","","null","","","null","64","","NaN","","","","","","","","","","","","","",""
"","response","","html-keyboard-response","387","503978","0.0-1.0-581.0-0.0","0","0","18860","","115","","","68","64","","","2","64","training","adjacent","EF","5","6","R.jpg","P.jpg","1","1","1","",""
"","feedback","","html-keyboard-response","388","504985","0.0-1.0-582.0-0.0","0","0","18860","","null","","","null","64","","","","","","","","","","","","","","","",""
"","ITI","","html-keyboard-response","389","505992","0.0-1.0-585.0","0","0","18860","","null","","","null","64","","","","","","","","","","","","","","","NaN",""
"","S1","","html-keyboard-response","390","506246","0.0-1.0-587.0","0","0","18860","","null","","","null","65","","","","","","","","","","","","","","","",""
"","ISI","","html-keyboard-response","391","506751","0.0-1.0-588.0","0","0","18860","","322","","","75","65","k","","","","","","","","","","","","","","",""
"","S2","","html-keyboard-response","392","507005","0.0-1.0-589.0","0","0","18860","","null","","","null","65","","NaN","","","","","","","","","","","","","",""
"","response","","html-keyboard-response","393","507072","0.0-1.0-590.0-0.0","0","0","18860","","60","","","68","65","","","2","65","training","adjacent","FG","6","7","P.jpg","M.jpg","1","1","1","",""
"","feedback","","html-keyboard-response","394","508079","0.0-1.0-591.0-0.0","0","0","18860","","null","","","null","65","","","","","","","","","","","","","","","",""
"","ITI","","html-keyboard-response","395","509086","0.0-1.0-594.0","0","0","18860","","null","","","null","65","","","","","","","","","","","","","","","NaN",""
"","S1","","html-keyboard-response","396","509343","0.0-1.0-596.0","0","0","18860","","null","","","null","66","","","","","","","","","","","","","","","",""
"","ISI","","html-keyboard-response","397","509847","0.0-1.0-597.0","0","0","18860","","429","","","75","66","k","","","","","","","","","","","","","","",""
"","S2","","html-keyboard-response","398","510068","0.0-1.0-598.0","0","0","18860","","216","","","68","66","","d","2","66","training","adjacent","FE","6","5","P.jpg","R.jpg","1","0","0","",""
"","feedback","","html-keyboard-response","399","511076","0.0-1.0-600.0-0.0","0","0","18860","","null","","","null","66","","","","","","","","","","","","","","","",""
"","time_out","","html-keyboard-response","400","513083","0.0-1.0-602.0-0.0","0","0","18860","","null","","","null","66","","","","","","","","","","","","","","","",""
"","ITI","","html-keyboard-response","401","514088","0.0-1.0-603.0","0","0","18860","","null","","","null","66","","","","","","","","","","","","","","","NaN",""
"","S1","","html-keyboard-response","402","514346","0.0-1.0-605.0","0","0","18860","","null","","","null","67","","","","","","","","","","","","","","","",""
"","ISI","","html-keyboard-response","403","514850","0.0-1.0-606.0","0","0","18860","","29","","","68","67","d","","","","","","","","","","","","","","",""
"","S2","","html-keyboard-response","404","515107","0.0-1.0-607.0","0","0","18860","","null","","","null","67","","NaN","","","","","","","","","","","","","",""
"","response","","html-keyboard-response","405","515444","0.0-1.0-608.0-0.0","0","0","18860","","331","","","75","67","","","2","67","training","adjacent","ED","5","4","R.jpg","L.jpg","0","0","1","",""
"","feedback","","html-keyboard-response","406","516450","0.0-1.0-609.0-0.0","0","0","18860","","null","","","null","67","","","","","","","","","","","","","","","",""
"","ITI","","html-keyboard-response","407","517460","0.0-1.0-612.0","0","0","18860","","null","","","null","67","","","","","","","","","","","","","","","NaN",""
"","S1","","html-keyboard-response","408","517712","0.0-1.0-614.0","0","0","18860","","null","","","null","68","","","","","","","","","","","","","","","",""
"","ISI","","html-keyboard-response","409","518214","0.0-1.0-615.0","0","0","18860","","425","","","68","68","d","","","","","","","","","","","","","","",""
"","S2","","html-keyboard-response","410","518470","0.0-1.0-616.0","0","0","18860","","null","","","null","68","","NaN","","","","","","","","","","","","","",""
"","response","","html-keyboard-response","411","518566","0.0-1.0-617.0-0.0","0","0","18860","","92","","","75","68","","","2","68","training","adjacent","EF","5","6","R.jpg","P.jpg","0","1","0","",""
"","feedback","","html-keyboard-response","412","519576","0.0-1.0-618.0-0.0","0","0","18860","","null","","","null","68","","","","","","","","","","","","","","","",""
"","time_out","","html-keyboard-response","413","521588","0.0-1.0-620.0-0.0","0","0","18860","","null","","","null","68","","","","","","","","","","","","","","","",""
"","ITI","","html-keyboard-response","414","522603","0.0-1.0-621.0","0","0","18860","","1","","","68","68","","","","","","","","","","","","","","","d",""
"","S1","","html-keyboard-response","415","522860","0.0-1.0-623.0","0","0","18860","","null","","","null","69","","","","","","","","","","","","","","","",""
"","ISI","","html-keyboard-response","416","523365","0.0-1.0-624.0","0","0","18860","","444","","","75","69","k","","","","","","","","","","","","","","",""
"","S2","","html-keyboard-response","417","523619","0.0-1.0-625.0","0","0","18860","","null","","","null","69","","NaN","","","","","","","","","","","","","",""
"","response","","html-keyboard-response","418","525376","0.0-1.0-626.0-0.0","0","0","18860","","null","","","null","69","","","2","69","training","adjacent","FG","6","7","P.jpg","M.jpg","NaN","1","0","",""
"","too_slow_prompt","","html-keyboard-response","419","526391","0.0-1.0-628.0-0.0","1","0","18860","","null","","","null","","","","","","","","","","","","","","","","",""
"","time_out","","html-keyboard-response","420","528399","0.0-1.0-629.0-0.0","0","0","18860","","null","","","null","69","","","","","","","","","","","","","","","",""
"","ITI","","html-keyboard-response","421","529412","0.0-1.0-630.0","0","0","18860","","919","","","68","69","","","","","","","","","","","","","","","d",""
"","S1","","html-keyboard-response","422","529669","0.0-1.0-632.0","0","0","18860","","null","","","null","70","","","","","","","","","","","","","","","",""
"","ISI","","html-keyboard-response","423","530175","0.0-1.0-633.0","0","0","18860","","294","","","75","70","k","","","","","","","","","","","","","","",""
"","S2","","html-keyboard-response","424","530358","0.0-1.0-634.0","0","0","18860","","178","","","75","70","","k","2","70","training","adjacent","BC","2","3","O.jpg","N.jpg","0","1","0","",""
"","feedback","","html-keyboard-response","425","531364","0.0-1.0-636.0-0.0","0","0","18860","","null","","","null","70","","","","","","","","","","","","","","","",""
"","time_out","","html-keyboard-response","426","533367","0.0-1.0-638.0-0.0","0","0","18860","","null","","","null","70","","","","","","","","","","","","","","","",""
"","ITI","","html-keyboard-response","427","534370","0.0-1.0-639.0","0","0","18860","","null","","","null","70","","","","","","","","","","","","","","","NaN",""
"","S1","","html-keyboard-response","428","534627","0.0-1.0-641.0","0","0","18860","","null","","","null","71","","","","","","","","","","","","","","","",""
"","ISI","","html-keyboard-response","429","535130","0.0-1.0-642.0","0","0","18860","","312","","","68","71","d","","","","","","","","","","","","","","",""
"","S2","","html-keyboard-response","430","535338","0.0-1.0-643.0","0","0","18860","","203","","","75","71","","k","2","71","training","adjacent","FE","6","5","P.jpg","R.jpg","0","0","1","",""
"","feedback","","html-keyboard-response","431","536352","0.0-1.0-645.0-0.0","0","0","18860","","null","","","null","71","","","","","","","","","","","","","","","",""
"","ITI","","html-keyboard-response","432","537360","0.0-1.0-648.0","0","0","18860","","null","","","null","71","","","","","","","","","","","","","","","NaN",""
"","S1","","html-keyboard-response","433","537621","0.0-1.0-650.0","0","0","18860","","null","","","null","72","","","","","","","","","","","","","","","",""
"","ISI","","html-keyboard-response","434","538127","0.0-1.0-651.0","0","0","18860","","464","","","68","72","d","","","","","","","","","","","","","","",""
"","S2","","html-keyboard-response","435","538382","0.0-1.0-652.0","0","0","18860","","null","","","null","72","","NaN","","","","","","","","","","","","","",""
"","response","","html-keyboard-response","436","538624","0.0-1.0-653.0-0.0","0","0","18860","","231","","","75","72","","","2","72","training","adjacent","BC","2","3","O.jpg","N.jpg","0","1","0","",""
"","feedback","","html-keyboard-response","437","539642","0.0-1.0-654.0-0.0","0","0","18860","","null","","","null","72","","","","","","","","","","","","","","","",""
"","time_out","","html-keyboard-response","438","541657","0.0-1.0-656.0-0.0","0","0","18860","","null","","","null","72","","","","","","","","","","","","","","","",""
"","ITI","","html-keyboard-response","439","542667","0.0-1.0-657.0","0","0","18860","","null","","","null","72","","","","","","","","","","","","","","","NaN",""
"","S1","","html-keyboard-response","440","542923","0.0-1.0-659.0","0","0","18860","","null","","","null","73","","","","","","","","","","","","","","","",""
"","ISI","","html-keyboard-response","441","543427","0.0-1.0-660.0","0","0","18860","","293","","","75","73","k","","","","","","","","","","","","","","",""
"","S2","","html-keyboard-response","442","543632","0.0-1.0-661.0","0","0","18860","","200","","","68","73","","d","2","73","training","adjacent","EF","5","6","R.jpg","P.jpg","1","1","1","",""
"","feedback","","html-keyboard-response","443","544635","0.0-1.0-663.0-0.0","0","0","18860","","null","","","null","73","","","","","","","","","","","","","","","",""
"","ITI","","html-keyboard-response","444","545653","0.0-1.0-666.0","0","0","18860","","9","","","75","73","","","","","","","","","","","","","","","k",""
"","S1","","html-keyboard-response","445","545912","0.0-1.0-668.0","0","0","18860","","null","","","null","74","","","","","","","","","","","","","","","",""
"","ISI","","html-keyboard-response","446","546417","0.0-1.0-669.0","0","0","18860","","374","","","75","74","k","","","","","","","","","","","","","","",""
"","S2","","html-keyboard-response","447","546495","0.0-1.0-670.0","0","0","18860","","74","","","68","74","","d","2","74","training","adjacent","CB","3","2","N.jpg","O.jpg","1","0","0","",""
"","feedback","","html-keyboard-response","448","547543","0.0-1.0-672.0-0.0","0","0","18860","","null","","","null","74","","","","","","","","","","","","","","","",""
"","time_out","","html-keyboard-response","449","549556","0.0-1.0-674.0-0.0","0","0","18860","","null","","","null","74","","","","","","","","","","","","","","","",""
"","ITI","","html-keyboard-response","450","550563","0.0-1.0-675.0","0","0","18860","","null","","","null","74","","","","","","","","","","","","","","","NaN",""
"","S1","","html-keyboard-response","451","550817","0.0-1.0-677.0","0","0","18860","","null","","","null","75","","","","","","","","","","","","","","","",""
"","ISI","","html-keyboard-response","452","551322","0.0-1.0-678.0","0","0","18860","","443","","","75","75","k","","","","","","","","","","","","","","",""
"","S2","","html-keyboard-response","453","551582","0.0-1.0-679.0","0","0","18860","","null","","","null","75","","NaN","","","","","","","","","","","","","",""
"","response","","html-keyboard-response","454","551648","0.0-1.0-680.0-0.0","0","0","18860","","62","","","68","75","","","2","75","training","adjacent","FG","6","7","P.jpg","M.jpg","1","1","1","",""
"","feedback","","html-keyboard-response","455","552654","0.0-1.0-681.0-0.0","0","0","18860","","null","","","null","75","","","","","","","","","","","","","","","",""
"","ITI","","html-keyboard-response","456","553659","0.0-1.0-684.0","0","0","18860","","null","","","null","75","","","","","","","","","","","","","","","NaN",""
"","S1","","html-keyboard-response","457","553916","0.0-1.0-686.0","0","0","18860","","null","","","null","76","","","","","","","","","","","","","","","",""
"","ISI","","html-keyboard-response","458","554422","0.0-1.0-687.0","0","0","18860","","null","","","null","76","NaN","","","","","","","","","","","","","","",""
"","S2","","html-keyboard-response","459","554696","0.0-1.0-688.0","0","0","18860","","null","","","null","76","","NaN","","","","","","","","","","","","","",""
"","response","","html-keyboard-response","460","555002","0.0-1.0-689.0-0.0","0","0","18860","","302","","","75","76","","","2","76","training","adjacent","BC","2","3","O.jpg","N.jpg","0","1","0","",""
"","feedback","","html-keyboard-response","461","556010","0.0-1.0-690.0-0.0","0","0","18860","","null","","","null","76","","","","","","","","","","","","","","","",""
"","time_out","","html-keyboard-response","462","558017","0.0-1.0-692.0-0.0","0","0","18860","","null","","","null","76","","","","","","","","","","","","","","","",""
"","ITI","","html-keyboard-response","463","559025","0.0-1.0-693.0","0","0","18860","","350","","","68","76","","","","","","","","","","","","","","","d",""
"","S1","","html-keyboard-response","464","559281","0.0-1.0-695.0","0","0","18860","","null","","","null","77","","","","","","","","","","","","","","","",""
"","ISI","","html-keyboard-response","465","559786","0.0-1.0-696.0","0","0","18860","","434","","","68","77","d","","","","","","","","","","","","","","",""
"","S2","","html-keyboard-response","466","560042","0.0-1.0-697.0","0","0","18860","","null","","","null","77","","NaN","","","","","","","","","","","","","",""
"","response","","html-keyboard-response","467","560332","0.0-1.0-698.0-0.0","0","0","18860","","284","","","75","77","","","2","77","training","adjacent","GF","7","6","M.jpg","P.jpg","0","0","1","",""
"","feedback","","html-keyboard-response","468","561338","0.0-1.0-699.0-0.0","0","0","18860","","null","","","null","77","","","","","","","","","","","","","","","",""
"","ITI","","html-keyboard-response","469","562348","0.0-1.0-702.0","0","0","18860","","null","","","null","77","","","","","","","","","","","","","","","NaN",""
"","S1","","html-keyboard-response","470","562606","0.0-1.0-704.0","0","0","18860","","null","","","null","78","","","","","","","","","","","","","","","",""
"","ISI","","html-keyboard-response","471","563116","0.0-1.0-705.0","0","0","18860","","null","","","null","78","NaN","","","","","","","","","","","","","","",""
"","S2","","html-keyboard-response","472","563183","0.0-1.0-706.0","0","0","18860","","61","","","75","78","","k","2","78","training","adjacent","BA","2","1","O.jpg","Q.jpg","0","0","1","",""
"","feedback","","html-keyboard-response","473","564189","0.0-1.0-708.0-0.0","0","0","18860","","null","","","null","78","","","","","","","","","","","","","","","",""
"","ITI","","html-keyboard-response","474","565195","0.0-1.0-711.0","0","0","18860","","null","","","null","78","","","","","","","","","","","","","","","NaN",""
"","S1","","html-keyboard-response","475","565450","0.0-1.0-713.0","0","0","18860","","null","","","null","79","","","","","","","","","","","","","","","",""
"","ISI","","html-keyboard-response","476","565954","0.0-1.0-714.0","0","0","18860","","37","","","68","79","d","","","","","","","","","","","","","","",""
"","S2","","html-keyboard-response","477","566220","0.0-1.0-715.0","0","0","18860","","null","","","null","79","","NaN","","","","","","","","","","","","","",""
"","response","","html-keyboard-response","478","566301","0.0-1.0-716.0-0.0","0","0","18860","","75","","","68","79","","","2","79","training","adjacent","DC","4","3","L.jpg","N.jpg","1","0","0","",""
"","feedback","","html-keyboard-response","479","567310","0.0-1.0-717.0-0.0","0","0","18860","","null","","","null","79","","","","","","","","","","","","","","","",""
"","time_out","","html-keyboard-response","480","569320","0.0-1.0-719.0-0.0","0","0","18860","","null","","","null","79","","","","","","","","","","","","","","","",""
"","ITI","","html-keyboard-response","481","570326","0.0-1.0-720.0","0","0","18860","","844","","","68","79","","","","","","","","","","","","","","","d",""
"","S1","","html-keyboard-response","482","570584","0.0-1.0-722.0","0","0","18860","","null","","","null","80","","","","","","","","","","","","","","","",""
"","ISI","","html-keyboard-response","483","571089","0.0-1.0-723.0","0","0","18860","","null","","","null","80","NaN","","","","","","","","","","","","","","",""
"","S2","","html-keyboard-response","484","571220","0.0-1.0-724.0","0","0","18860","","120","","","75","80","","k","2","80","training","adjacent","FE","6","5","P.jpg","R.jpg","0","0","1","",""
"","feedback","","html-keyboard-response","485","572227","0.0-1.0-726.0-0.0","0","0","18860","","null","","","null","80","","","","","","","","","","","","","","","",""
"","ITI","","html-keyboard-response","486","573237","0.0-1.0-729.0","0","0","18860","","1003","","","75","80","","","","","","","","","","","","","","","k",""
"","S1","","html-keyboard-response","487","573502","0.0-1.0-731.0","0","0","18860","","null","","","null","81","","","","","","","","","","","","","","","",""
"","ISI","","html-keyboard-response","488","574006","0.0-1.0-732.0","0","0","18860","","236","","","75","81","k","","","","","","","","","","","","","","",""
"","S2","","html-keyboard-response","489","574267","0.0-1.0-733.0","0","0","18860","","null","","","null","81","","NaN","","","","","","","","","","","","","",""
"","response","","html-keyboard-response","490","575581","0.0-1.0-734.0-0.0","0","0","18860","","1309","","","75","81","","","2","81","training","adjacent","BC","2","3","O.jpg","N.jpg","0","1","0","",""
"","feedback","","html-keyboard-response","491","576590","0.0-1.0-735.0-0.0","0","0","18860","","null","","","null","81","","","","","","","","","","","","","","","",""
"","time_out","","html-keyboard-response","492","578603","0.0-1.0-737.0-0.0","0","0","18860","","null","","","null","81","","","","","","","","","","","","","","","",""
"","ITI","","html-keyboard-response","493","579606","0.0-1.0-738.0","0","0","18860","","59","","","75","81","","","","","","","","","","","","","","","k",""
"","S1","","html-keyboard-response","494","579860","0.0-1.0-740.0","0","0","18860","","null","","","null","82","","","","","","","","","","","","","","","",""
"","ISI","","html-keyboard-response","495","580365","0.0-1.0-741.0","0","0","18860","","36","","","68","82","d","","","","","","","","","","","","","","",""
"","S2","","html-keyboard-response","496","580620","0.0-1.0-742.0","0","0","18860","","null","","","null","82","","NaN","","","","","","","","","","","","","",""
"","response","","html-keyboard-response","497","580704","0.0-1.0-743.0-0.0","0","0","18860","","77","","","75","82","","","2","82","training","adjacent","BA","2","1","O.jpg","Q.jpg","0","0","1","",""
"","feedback","","html-keyboard-response","498","581721","0.0-1.0-744.0-0.0","0","0","18860","","null","","","null","82","","","","","","","","","","","","","","","",""
"","ITI","","html-keyboard-response","499","582725","0.0-1.0-747.0","0","0","18860","","324","","","75","82","","","","","","","","","","","","","","","k",""
"","S1","","html-keyboard-response","500","582981","0.0-1.0-749.0","0","0","18860","","null","","","null","83","","","","","","","","","","","","","","","",""
"","ISI","","html-keyboard-response","501","583485","0.0-1.0-750.0","0","0","18860","","476","","","75","83","k","","","","","","","","","","","","","","",""
"","S2","","html-keyboard-response","502","583743","0.0-1.0-751.0","0","0","18860","","null","","","null","83","","NaN","","","","","","","","","","","","","",""
"","response","","html-keyboard-response","503","583880","0.0-1.0-752.0-0.0","0","0","18860","","133","","","68","83","","","2","83","training","adjacent","AB","1","2","Q.jpg","O.jpg","1","1","1","",""
"","feedback","","html-keyboard-response","504","584886","0.0-1.0-753.0-0.0","0","0","18860","","null","","","null","83","","","","","","","","","","","","","","","",""
"","ITI","","html-keyboard-response","505","585891","0.0-1.0-756.0","0","0","18860","","51","","","75","83","","","","","","","","","","","","","","","k",""
"","S1","","html-keyboard-response","506","586148","0.0-1.0-758.0","0","0","18860","","null","","","null","84","","","","","","","","","","","","","","","",""
"","ISI","","html-keyboard-response","507","586663","0.0-1.0-759.0","0","0","18860","","125","","","75","84","k","","","","","","","","","","","","","","",""
"","S2","","html-keyboard-response","508","586741","0.0-1.0-760.0","0","0","18860","","52","","","68","84","","d","2","84","training","adjacent","EF","5","6","R.jpg","P.jpg","1","1","1","",""
"","feedback","","html-keyboard-response","509","587747","0.0-1.0-762.0-0.0","0","0","18860","","null","","","null","84","","","","","","","","","","","","","","","",""
"","ITI","","html-keyboard-response","510","588759","0.0-1.0-765.0","0","0","18860","","455","","","68","84","","","","","","","","","","","","","","","d",""
"","S1","","html-keyboard-response","511","589015","0.0-1.0-767.0","0","0","18860","","null","","","null","85","","","","","","","","","","","","","","","",""
"","ISI","","html-keyboard-response","512","589517","0.0-1.0-768.0","0","0","18860","","95","","","68","85","d","","","","","","","","","","","","","","",""
"","S2","","html-keyboard-response","513","589645","0.0-1.0-769.0","0","0","18860","","124","","","68","85","","d","2","85","training","adjacent","BA","2","1","O.jpg","Q.jpg","1","0","0","",""
"","feedback","","html-keyboard-response","514","590652","0.0-1.0-771.0-0.0","0","0","18860","","null","","","null","85","","","","","","","","","","","","","","","",""
"","time_out","","html-keyboard-response","515","592658","0.0-1.0-773.0-0.0","0","0","18860","","null","","","null","85","","","","","","","","","","","","","","","",""
"","ITI","","html-keyboard-response","516","593666","0.0-1.0-774.0","0","0","18860","","289","","","68","85","","","","","","","","","","","","","","","d",""
"","S1","","html-keyboard-response","517","593924","0.0-1.0-776.0","0","0","18860","","null","","","null","86","","","","","","","","","","","","","","","",""
"","ISI","","html-keyboard-response","518","594429","0.0-1.0-777.0","0","0","18860","","175","","","68","86","d","","","","","","","","","","","","","","",""
"","S2","","html-keyboard-response","519","594543","0.0-1.0-778.0","0","0","18860","","107","","","68","86","","d","2","86","training","adjacent","GF","7","6","M.jpg","P.jpg","1","0","0","",""
"","feedback","","html-keyboard-response","520","595552","0.0-1.0-780.0-0.0","0","0","18860","","null","","","null","86","","","","","","","","","","","","","","","",""
"","time_out","","html-keyboard-response","521","597565","0.0-1.0-782.0-0.0","0","0","18860","","null","","","null","86","","","","","","","","","","","","","","","",""
"","ITI","","html-keyboard-response","522","598571","0.0-1.0-783.0","0","0","18860","","187","","","68","86","","","","","","","","","","","","","","","d",""
"","S1","","html-keyboard-response","523","598830","0.0-1.0-785.0","0","0","18860","","null","","","null","87","","","","","","","","","","","","","","","",""
"","ISI","","html-keyboard-response","524","599338","0.0-1.0-786.0","0","0","18860","","81","","","75","87","k","","","","","","","","","","","","","","",""
"","S2","","html-keyboard-response","525","599428","0.0-1.0-787.0","0","0","18860","","84","","","68","87","","d","2","87","training","adjacent","CD","3","4","N.jpg","L.jpg","1","1","1","",""
"","feedback","","html-keyboard-response","526","600447","0.0-1.0-789.0-0.0","0","0","18860","","null","","","null","87","","","","","","","","","","","","","","","",""
"","ITI","","html-keyboard-response","527","601454","0.0-1.0-792.0","0","0","18860","","27","","","68","87","","","","","","","","","","","","","","","d",""
"","S1","","html-keyboard-response","528","601711","0.0-1.0-794.0","0","0","18860","","null","","","null","88","","","","","","","","","","","","","","","",""
"","ISI","","html-keyboard-response","529","602216","0.0-1.0-795.0","0","0","18860","","206","","","68","88","d","","","","","","","","","","","","","","",""
"","S2","","html-keyboard-response","530","602475","0.0-1.0-796.0","0","0","18860","","null","","","null","88","","NaN","","","","","","","","","","","","","",""
"","response","","html-keyboard-response","531","602636","0.0-1.0-797.0-0.0","0","0","18860","","157","","","68","88","","","2","88","training","adjacent","AB","1","2","Q.jpg","O.jpg","1","1","1","",""
"","feedback","","html-keyboard-response","532","603641","0.0-1.0-798.0-0.0","0","0","18860","","null","","","null","88","","","","","","","","","","","","","","","",""
"","ITI","","html-keyboard-response","533","604646","0.0-1.0-801.0","0","0","18860","","15","","","68","88","","","","","","","","","","","","","","","d",""
"","S1","","html-keyboard-response","534","604903","0.0-1.0-803.0","0","0","18860","","null","","","null","89","","","","","","","","","","","","","","","",""
"","ISI","","html-keyboard-response","535","605438","0.0-1.0-804.0","0","0","18860","","156","","","68","89","d","","","","","","","","","","","","","","",""
"","S2","","html-keyboard-response","536","605720","0.0-1.0-805.0","0","0","18860","","200","","","68","89","","d","2","89","training","adjacent","DC","4","3","L.jpg","N.jpg","1","0","0","",""
"","feedback","","html-keyboard-response","537","606728","0.0-1.0-807.0-0.0","0","0","18860","","null","","","null","89","","","","","","","","","","","","","","","",""
"","time_out","","html-keyboard-response","538","608736","0.0-1.0-809.0-0.0","0","0","18860","","null","","","null","89","","","","","","","","","","","","","","","",""
"","ITI","","html-keyboard-response","539","609741","0.0-1.0-810.0","0","0","18860","","69","","","75","89","","","","","","","","","","","","","","","k",""
"","S1","","html-keyboard-response","540","610005","0.0-1.0-812.0","0","0","18860","","null","","","null","90","","","","","","","","","","","","","","","",""
"","ISI","","html-keyboard-response","541","610510","0.0-1.0-813.0","0","0","18860","","194","","","68","90","d","","","","","","","","","","","","","","",""
"","S2","","html-keyboard-response","542","610714","0.0-1.0-814.0","0","0","18860","","197","","","68","90","","d","2","90","training","adjacent","CB","3","2","N.jpg","O.jpg","1","0","0","",""
"","feedback","","html-keyboard-response","543","611721","0.0-1.0-816.0-0.0","0","0","18860","","null","","","null","90","","","","","","","","","","","","","","","",""
"","time_out","","html-keyboard-response","544","613728","0.0-1.0-818.0-0.0","0","0","18860","","null","","","null","90","","","","","","","","","","","","","","","",""
"","ITI","","html-keyboard-response","545","614733","0.0-1.0-819.0","0","0","18860","","109","","","68","90","","","","","","","","","","","","","","","d",""
"","S1","","html-keyboard-response","546","614987","0.0-1.0-821.0","0","0","18860","","null","","","null","91","","","","","","","","","","","","","","","",""
"","ISI","","html-keyboard-response","547","615493","0.0-1.0-822.0","0","0","18860","","415","","","68","91","d","","","","","","","","","","","","","","",""
"","S2","","html-keyboard-response","548","615528","0.0-1.0-823.0","0","0","18860","","22","","","75","91","","k","2","91","training","adjacent","DC","4","3","L.jpg","N.jpg","0","0","1","",""
"","feedback","","html-keyboard-response","549","616535","0.0-1.0-825.0-0.0","0","0","18860","","null","","","null","91","","","","","","","","","","","","","","","",""
"","ITI","","html-keyboard-response","550","617543","0.0-1.0-828.0","0","0","18860","","188","","","68","91","","","","","","","","","","","","","","","d",""
"","S1","","html-keyboard-response","551","617798","0.0-1.0-830.0","0","0","18860","","null","","","null","92","","","","","","","","","","","","","","","",""
"","ISI","","html-keyboard-response","552","618302","0.0-1.0-831.0","0","0","18860","","1","","","75","92","k","","","","","","","","","","","","","","",""
"","S2","","html-keyboard-response","553","618340","0.0-1.0-832.0","0","0","18860","","30","","","75","92","","k","2","92","training","adjacent","DE","4","5","L.jpg","R.jpg","0","1","0","",""
"","feedback","","html-keyboard-response","554","619344","0.0-1.0-834.0-0.0","0","0","18860","","null","","","null","92","","","","","","","","","","","","","","","",""
"","time_out","","html-keyboard-response","555","621352","0.0-1.0-836.0-0.0","0","0","18860","","null","","","null","92","","","","","","","","","","","","","","","",""
"","ITI","","html-keyboard-response","556","622360","0.0-1.0-837.0","0","0","18860","","68","","","75","92","","","","","","","","","","","","","","","k",""
"","S1","","html-keyboard-response","557","622615","0.0-1.0-839.0","0","0","18860","","null","","","null","93","","","","","","","","","","","","","","","",""
"","ISI","","html-keyboard-response","558","623119","0.0-1.0-840.0","0","0","18860","","152","","","68","93","d","","","","","","","","","","","","","","",""
"","S2","","html-keyboard-response","559","623150","0.0-1.0-841.0","0","0","18860","","25","","","68","93","","d","2","93","training","adjacent","BA","2","1","O.jpg","Q.jpg","1","0","0","",""
"","feedback","","html-keyboard-response","560","624161","0.0-1.0-843.0-0.0","0","0","18860","","null","","","null","93","","","","","","","","","","","","","","","",""
"","time_out","","html-keyboard-response","561","626181","0.0-1.0-845.0-0.0","0","0","18860","","null","","","null","93","","","","","","","","","","","","","","","",""
"","ITI","","html-keyboard-response","562","627188","0.0-1.0-846.0","0","0","18860","","173","","","68","93","","","","","","","","","","","","","","","d",""
"","S1","","html-keyboard-response","563","627445","0.0-1.0-848.0","0","0","18860","","null","","","null","94","","","","","","","","","","","","","","","",""
"","ISI","","html-keyboard-response","564","627948","0.0-1.0-849.0","0","0","18860","","218","","","68","94","d","","","","","","","","","","","","","","",""
"","S2","","html-keyboard-response","565","628192","0.0-1.0-850.0","0","0","18860","","237","","","68","94","","d","2","94","training","adjacent","FG","6","7","P.jpg","M.jpg","1","1","1","",""
"","feedback","","html-keyboard-response","566","629199","0.0-1.0-852.0-0.0","0","0","18860","","null","","","null","94","","","","","","","","","","","","","","","",""
"","ITI","","html-keyboard-response","567","630204","0.0-1.0-855.0","0","0","18860","","23","","","75","94","","","","","","","","","","","","","","","k",""
"","S1","","html-keyboard-response","568","630462","0.0-1.0-857.0","0","0","18860","","null","","","null","95","","","","","","","","","","","","","","","",""
"","ISI","","html-keyboard-response","569","630967","0.0-1.0-858.0","0","0","18860","","328","","","68","95","d","","","","","","","","","","","","","","",""
"","S2","","html-keyboard-response","570","631137","0.0-1.0-859.0","0","0","18860","","165","","","68","95","","d","2","95","training","adjacent","DE","4","5","L.jpg","R.jpg","1","1","1","",""
"","feedback","","html-keyboard-response","571","632144","0.0-1.0-861.0-0.0","0","0","18860","","null","","","null","95","","","","","","","","","","","","","","","",""
"","ITI","","html-keyboard-response","572","633151","0.0-1.0-864.0","0","0","18860","","501","","","68","95","","","","","","","","","","","","","","","d",""
"","block_over","","html-keyboard-response","573","954472","0.0-1.0-865.0-0.0","0","0","18860","","321309","","","32","95","","","","","","","","","","","","","","","",""
"","S1","","html-keyboard-response","574","954728","0.0-1.0-866.0","0","0","18860","","null","","","null","96","","","","","","","","","","","","","","","",""
"","ISI","","html-keyboard-response","575","955233","0.0-1.0-867.0","0","0","18860","","null","","","null","96","NaN","","","","","","","","","","","","","","",""
"","S2","","html-keyboard-response","576","955491","0.0-1.0-868.0","0","0","18860","","null","","","null","96","","NaN","","","","","","","","","","","","","",""
"","response","","html-keyboard-response","577","955601","0.0-1.0-869.0-0.0","0","0","18860","","104","","","68","96","","","3","96","training","adjacent","DE","4","5","L.jpg","R.jpg","1","1","1","",""
"","feedback","","html-keyboard-response","578","956615","0.0-1.0-870.0-0.0","0","0","18860","","null","","","null","96","","","","","","","","","","","","","","","",""
"","ITI","","html-keyboard-response","579","957623","0.0-1.0-873.0","0","0","18860","","57","","","75","96","","","","","","","","","","","","","","","k",""
"","S1","","html-keyboard-response","580","957877","0.0-1.0-875.0","0","0","18860","","null","","","null","97","","","","","","","","","","","","","","","",""
"","ISI","","html-keyboard-response","581","958380","0.0-1.0-876.0","0","0","18860","","258","","","75","97","k","","","","","","","","","","","","","","",""
"","S2","","html-keyboard-response","582","958429","0.0-1.0-877.0","0","0","18860","","44","","","68","97","","d","3","97","training","adjacent","GF","7","6","M.jpg","P.jpg","1","0","0","",""
"","feedback","","html-keyboard-response","583","959434","0.0-1.0-879.0-0.0","0","0","18860","","null","","","null","97","","","","","","","","","","","","","","","",""
"","time_out","","html-keyboard-response","584","961439","0.0-1.0-881.0-0.0","0","0","18860","","null","","","null","97","","","","","","","","","","","","","","","",""
"","ITI","","html-keyboard-response","585","962445","0.0-1.0-882.0","0","0","18860","","387","","","68","97","","","","","","","","","","","","","","","d",""
"","S1","","html-keyboard-response","586","962699","0.0-1.0-884.0","0","0","18860","","null","","","null","98","","","","","","","","","","","","","","","",""
"","ISI","","html-keyboard-response","587","963204","0.0-1.0-885.0","0","0","18860","","99","","","75","98","k","","","","","","","","","","","","","","",""
"","S2","","html-keyboard-response","588","963229","0.0-1.0-886.0","0","0","18860","","18","","","75","98","","k","3","98","training","adjacent","FE","6","5","P.jpg","R.jpg","0","0","1","",""
