"success","ttype","start_time","trial_type","trial_index","time_elapsed","internal_node_id","warning","missed_checkup","PID","view_history","rt","responses","repeat_instructions","key_press","index","keypress_isi","keypress_S2","block","trial_num","phase","group_type","pair_type","S1_stim","S2_stim","S1_img","S2_img","S1_chosen","S1_higher","accuracy","keypress_iti","total_bonus_tally"
"true","full_screen","d04142023hr2114","fullscreen","0","2950","0.0-0.0","0","0","22805","","","","","","","","","","","","","","","","","","","","","",""
"","instructions","","instructions","1","36875","0.0-1.0-0.0-0.0","0","0","22805","[{""page_index"":0,""viewing_time"":6179},{""page_index"":1,""viewing_time"":15864},{""page_index"":2,""viewing_time"":9912},{""page_index"":3,""viewing_time"":1968}]","33923","","","","","","","","","","","","","","","","","","","",""
"","comprehension_check","","survey-multi-choice","2","60846","0.0-1.0-0.0-1.0","0","0","22805","","23964","{""Q0"":""True"",""Q1"":""K"",""Q2"":""Only when the screen 'MAKE A CHOICE' is shown"",""Q3"":""Green mark"",""Q4"":""either D or K""}","1","","","","","","","","","","","","","","","","","",""
"","missed_instruction_checkup","","html-keyboard-response","3","64340","0.0-1.0-0.0-2.0-0.0","0","1","22805","","3491","","","32","","","","","","","","","","","","","","","","",""
"","instructions","","instructions","4","83709","0.0-1.0-0.1-0.1","0","0","22805","[{""page_index"":0,""viewing_time"":4726},{""page_index"":1,""viewing_time"":7936},{""page_index"":2,""viewing_time"":1345},{""page_index"":1,""viewing_time"":1624},{""page_index"":2,""viewing_time"":2840},{""page_index"":3,""viewing_time"":896}]","19367","","","","","","","","","","","","","","","","","","","",""
"","comprehension_check","","survey-multi-choice","5","99100","0.0-1.0-0.1-1.1","0","0","22805","","15386","{""Q0"":""True"",""Q1"":""K"",""Q2"":""Once the second image appears and while the screen 'MAKE A CHOICE' is shown"",""Q3"":""Green mark"",""Q4"":""either D or K""}","0","","","","","","","","","","","","","","","","","",""
"","start_exp","","html-keyboard-response","6","100428","0.0-1.0-1.0","0","0","22805","","1326","","","32","","","","","","","","","","","","","","","","",""
"","S1","","html-keyboard-response","7","100682","0.0-1.0-2.0","0","0","22805","","null","","","null","0","","","","","","","","","","","","","","","",""
"","ISI","","html-keyboard-response","8","101687","0.0-1.0-3.0","0","0","22805","","null","","","null","0","NaN","","","","","","","","","","","","","","",""
"","S2","","html-keyboard-response","9","101940","0.0-1.0-4.0","0","0","22805","","null","","","null","0","","NaN","","","","","","","","","","","","","",""
"","response","","html-keyboard-response","10","102820","0.0-1.0-5.0-0.0","0","0","22805","","877","","","68","0","","","1","0","training","adjacent","CB","3","2","O.jpg","Q.jpg","0","0","1","",""
"","feedback","","html-keyboard-response","11","103823","0.0-1.0-6.0-0.0","0","0","22805","","null","","","null","0","","","","","","","","","","","","","","","",""
"","ITI","","html-keyboard-response","12","104827","0.0-1.0-9.0","0","0","22805","","null","","","null","0","","","","","","","","","","","","","","","NaN",""
"","S1","","html-keyboard-response","13","105081","0.0-1.0-11.0","0","0","22805","","null","","","null","1","","","","","","","","","","","","","","","",""
"","ISI","","html-keyboard-response","14","106084","0.0-1.0-12.0","0","0","22805","","null","","","null","1","NaN","","","","","","","","","","","","","","",""
"","S2","","html-keyboard-response","15","106337","0.0-1.0-13.0","0","0","22805","","null","","","null","1","","NaN","","","","","","","","","","","","","",""
"","response","","html-keyboard-response","16","107092","0.0-1.0-14.0-0.0","0","0","22805","","753","","","68","1","","","1","1","training","adjacent","BC","2","3","Q.jpg","O.jpg","0","1","0","",""
"","feedback","","html-keyboard-response","17","108095","0.0-1.0-15.0-0.0","0","0","22805","","null","","","null","1","","","","","","","","","","","","","","","",""
"","time_out","","html-keyboard-response","18","110100","0.0-1.0-17.0-0.0","0","0","22805","","null","","","null","1","","","","","","","","","","","","","","","",""
"","ITI","","html-keyboard-response","19","111103","0.0-1.0-18.0","0","0","22805","","null","","","null","1","","","","","","","","","","","","","","","NaN",""
"","S1","","html-keyboard-response","20","111356","0.0-1.0-20.0","0","0","22805","","null","","","null","2","","","","","","","","","","","","","","","",""
"","ISI","","html-keyboard-response","21","112358","0.0-1.0-21.0","0","0","22805","","null","","","null","2","NaN","","","","","","","","","","","","","","",""
"","S2","","html-keyboard-response","22","112611","0.0-1.0-22.0","0","0","22805","","null","","","null","2","","NaN","","","","","","","","","","","","","",""
"","response","","html-keyboard-response","23","113021","0.0-1.0-23.0-0.0","0","0","22805","","407","","","68","2","","","1","2","training","adjacent","DE","4","5","M.jpg","L.jpg","0","1","0","",""
"","feedback","","html-keyboard-response","24","114025","0.0-1.0-24.0-0.0","0","0","22805","","null","","","null","2","","","","","","","","","","","","","","","",""
"","time_out","","html-keyboard-response","25","116028","0.0-1.0-26.0-0.0","0","0","22805","","null","","","null","2","","","","","","","","","","","","","","","",""
"","ITI","","html-keyboard-response","26","117031","0.0-1.0-27.0","0","0","22805","","null","","","null","2","","","","","","","","","","","","","","","NaN",""
"","S1","","html-keyboard-response","27","117284","0.0-1.0-29.0","0","0","22805","","null","","","null","3","","","","","","","","","","","","","","","",""
"","ISI","","html-keyboard-response","28","118287","0.0-1.0-30.0","0","0","22805","","null","","","null","3","NaN","","","","","","","","","","","","","","",""
"","S2","","html-keyboard-response","29","118539","0.0-1.0-31.0","0","0","22805","","null","","","null","3","","NaN","","","","","","","","","","","","","",""
"","response","","html-keyboard-response","30","118941","0.0-1.0-32.0-0.0","0","0","22805","","399","","","75","3","","","1","3","training","adjacent","FE","6","5","R.jpg","L.jpg","1","0","0","",""
"","feedback","","html-keyboard-response","31","119944","0.0-1.0-33.0-0.0","0","0","22805","","null","","","null","3","","","","","","","","","","","","","","","",""
"","time_out","","html-keyboard-response","32","121946","0.0-1.0-35.0-0.0","0","0","22805","","null","","","null","3","","","","","","","","","","","","","","","",""
"","ITI","","html-keyboard-response","33","122949","0.0-1.0-36.0","0","0","22805","","null","","","null","3","","","","","","","","","","","","","","","NaN",""
"","S1","","html-keyboard-response","34","123201","0.0-1.0-38.0","0","0","22805","","null","","","null","4","","","","","","","","","","","","","","","",""
"","ISI","","html-keyboard-response","35","124204","0.0-1.0-39.0","0","0","22805","","null","","","null","4","NaN","","","","","","","","","","","","","","",""
"","S2","","html-keyboard-response","36","124457","0.0-1.0-40.0","0","0","22805","","null","","","null","4","","NaN","","","","","","","","","","","","","",""
"","response","","html-keyboard-response","37","124747","0.0-1.0-41.0-0.0","0","0","22805","","288","","","68","4","","","1","4","training","adjacent","BA","2","1","Q.jpg","N.jpg","0","0","1","",""
"","feedback","","html-keyboard-response","38","125749","0.0-1.0-42.0-0.0","0","0","22805","","null","","","null","4","","","","","","","","","","","","","","","",""
"","ITI","","html-keyboard-response","39","126752","0.0-1.0-45.0","0","0","22805","","null","","","null","4","","","","","","","","","","","","","","","NaN",""
"","S1","","html-keyboard-response","40","127004","0.0-1.0-47.0","0","0","22805","","null","","","null","5","","","","","","","","","","","","","","","",""
"","ISI","","html-keyboard-response","41","128006","0.0-1.0-48.0","0","0","22805","","null","","","null","5","NaN","","","","","","","","","","","","","","",""
"","S2","","html-keyboard-response","42","128260","0.0-1.0-49.0","0","0","22805","","null","","","null","5","","NaN","","","","","","","","","","","","","",""
"","response","","html-keyboard-response","43","128559","0.0-1.0-50.0-0.0","0","0","22805","","296","","","68","5","","","1","5","training","adjacent","EF","5","6","L.jpg","R.jpg","0","1","0","",""
"","feedback","","html-keyboard-response","44","129563","0.0-1.0-51.0-0.0","0","0","22805","","null","","","null","5","","","","","","","","","","","","","","","",""
"","time_out","","html-keyboard-response","45","131565","0.0-1.0-53.0-0.0","0","0","22805","","null","","","null","5","","","","","","","","","","","","","","","",""
"","ITI","","html-keyboard-response","46","132568","0.0-1.0-54.0","0","0","22805","","null","","","null","5","","","","","","","","","","","","","","","NaN",""
"","S1","","html-keyboard-response","47","132823","0.0-1.0-56.0","0","0","22805","","null","","","null","6","","","","","","","","","","","","","","","",""
"","ISI","","html-keyboard-response","48","133825","0.0-1.0-57.0","0","0","22805","","null","","","null","6","NaN","","","","","","","","","","","","","","",""
"","S2","","html-keyboard-response","49","134079","0.0-1.0-58.0","0","0","22805","","null","","","null","6","","NaN","","","","","","","","","","","","","",""
"","response","","html-keyboard-response","50","134389","0.0-1.0-59.0-0.0","0","0","22805","","306","","","68","6","","","1","6","training","adjacent","CB","3","2","O.jpg","Q.jpg","0","0","1","",""
"","feedback","","html-keyboard-response","51","135392","0.0-1.0-60.0-0.0","0","0","22805","","null","","","null","6","","","","","","","","","","","","","","","",""
"","ITI","","html-keyboard-response","52","136395","0.0-1.0-63.0","0","0","22805","","null","","","null","6","","","","","","","","","","","","","","","NaN",""
"","S1","","html-keyboard-response","53","136648","0.0-1.0-65.0","0","0","22805","","null","","","null","7","","","","","","","","","","","","","","","",""
"","ISI","","html-keyboard-response","54","137651","0.0-1.0-66.0","0","0","22805","","null","","","null","7","NaN","","","","","","","","","","","","","","",""
"","S2","","html-keyboard-response","55","137904","0.0-1.0-67.0","0","0","22805","","null","","","null","7","","NaN","","","","","","","","","","","","","",""
"","response","","html-keyboard-response","56","138363","0.0-1.0-68.0-0.0","0","0","22805","","458","","","75","7","","","1","7","training","adjacent","CB","3","2","O.jpg","Q.jpg","1","0","0","",""
"","feedback","","html-keyboard-response","57","139366","0.0-1.0-69.0-0.0","0","0","22805","","null","","","null","7","","","","","","","","","","","","","","","",""
"","time_out","","html-keyboard-response","58","141368","0.0-1.0-71.0-0.0","0","0","22805","","null","","","null","7","","","","","","","","","","","","","","","",""
"","ITI","","html-keyboard-response","59","142370","0.0-1.0-72.0","0","0","22805","","null","","","null","7","","","","","","","","","","","","","","","NaN",""
"","S1","","html-keyboard-response","60","142624","0.0-1.0-74.0","0","0","22805","","null","","","null","8","","","","","","","","","","","","","","","",""
"","ISI","","html-keyboard-response","61","143627","0.0-1.0-75.0","0","0","22805","","null","","","null","8","NaN","","","","","","","","","","","","","","",""
"","S2","","html-keyboard-response","62","143879","0.0-1.0-76.0","0","0","22805","","null","","","null","8","","NaN","","","","","","","","","","","","","",""
"","response","","html-keyboard-response","63","144236","0.0-1.0-77.0-0.0","0","0","22805","","354","","","75","8","","","1","8","training","adjacent","CD","3","4","O.jpg","M.jpg","1","1","1","",""
"","feedback","","html-keyboard-response","64","145237","0.0-1.0-78.0-0.0","0","0","22805","","null","","","null","8","","","","","","","","","","","","","","","",""
"","ITI","","html-keyboard-response","65","146240","0.0-1.0-81.0","0","0","22805","","null","","","null","8","","","","","","","","","","","","","","","NaN",""
"","S1","","html-keyboard-response","66","146504","0.0-1.0-83.0","0","0","22805","","null","","","null","9","","","","","","","","","","","","","","","",""
"","ISI","","html-keyboard-response","67","147508","0.0-1.0-84.0","0","0","22805","","null","","","null","9","NaN","","","","","","","","","","","","","","",""
"","S2","","html-keyboard-response","68","147761","0.0-1.0-85.0","0","0","22805","","null","","","null","9","","NaN","","","","","","","","","","","","","",""
"","response","","html-keyboard-response","69","148196","0.0-1.0-86.0-0.0","0","0","22805","","433","","","75","9","","","1","9","training","adjacent","EF","5","6","L.jpg","R.jpg","1","1","1","",""
"","feedback","","html-keyboard-response","70","149202","0.0-1.0-87.0-0.0","0","0","22805","","null","","","null","9","","","","","","","","","","","","","","","",""
"","ITI","","html-keyboard-response","71","150204","0.0-1.0-90.0","0","0","22805","","null","","","null","9","","","","","","","","","","","","","","","NaN",""
"","S1","","html-keyboard-response","72","150457","0.0-1.0-92.0","0","0","22805","","null","","","null","10","","","","","","","","","","","","","","","",""
"","ISI","","html-keyboard-response","73","151460","0.0-1.0-93.0","0","0","22805","","null","","","null","10","NaN","","","","","","","","","","","","","","",""
"","S2","","html-keyboard-response","74","151714","0.0-1.0-94.0","0","0","22805","","null","","","null","10","","NaN","","","","","","","","","","","","","",""
"","response","","html-keyboard-response","75","152300","0.0-1.0-95.0-0.0","0","0","22805","","583","","","75","10","","","1","10","training","adjacent","DC","4","3","M.jpg","O.jpg","1","0","0","",""
"","feedback","","html-keyboard-response","76","153302","0.0-1.0-96.0-0.0","0","0","22805","","null","","","null","10","","","","","","","","","","","","","","","",""
"","time_out","","html-keyboard-response","77","155305","0.0-1.0-98.0-0.0","0","0","22805","","null","","","null","10","","","","","","","","","","","","","","","",""
"","ITI","","html-keyboard-response","78","156308","0.0-1.0-99.0","0","0","22805","","null","","","null","10","","","","","","","","","","","","","","","NaN",""
"","S1","","html-keyboard-response","79","156561","0.0-1.0-101.0","0","0","22805","","null","","","null","11","","","","","","","","","","","","","","","",""
"","ISI","","html-keyboard-response","80","157563","0.0-1.0-102.0","0","0","22805","","null","","","null","11","NaN","","","","","","","","","","","","","","",""
"","S2","","html-keyboard-response","81","157817","0.0-1.0-103.0","0","0","22805","","null","","","null","11","","NaN","","","","","","","","","","","","","",""
"","response","","html-keyboard-response","82","158100","0.0-1.0-104.0-0.0","0","0","22805","","280","","","75","11","","","1","11","training","adjacent","BA","2","1","Q.jpg","N.jpg","1","0","0","",""
"","feedback","","html-keyboard-response","83","159103","0.0-1.0-105.0-0.0","0","0","22805","","null","","","null","11","","","","","","","","","","","","","","","",""
"","time_out","","html-keyboard-response","84","161106","0.0-1.0-107.0-0.0","0","0","22805","","null","","","null","11","","","","","","","","","","","","","","","",""
"","ITI","","html-keyboard-response","85","162110","0.0-1.0-108.0","0","0","22805","","null","","","null","11","","","","","","","","","","","","","","","NaN",""
"","S1","","html-keyboard-response","86","162364","0.0-1.0-110.0","0","0","22805","","null","","","null","12","","","","","","","","","","","","","","","",""
"","ISI","","html-keyboard-response","87","163366","0.0-1.0-111.0","0","0","22805","","null","","","null","12","NaN","","","","","","","","","","","","","","",""
"","S2","","html-keyboard-response","88","163619","0.0-1.0-112.0","0","0","22805","","null","","","null","12","","NaN","","","","","","","","","","","","","",""
"","response","","html-keyboard-response","89","163980","0.0-1.0-113.0-0.0","0","0","22805","","359","","","75","12","","","1","12","training","adjacent","AB","1","2","N.jpg","Q.jpg","1","1","1","",""
"","feedback","","html-keyboard-response","90","164983","0.0-1.0-114.0-0.0","0","0","22805","","null","","","null","12","","","","","","","","","","","","","","","",""
"","ITI","","html-keyboard-response","91","165985","0.0-1.0-117.0","0","0","22805","","null","","","null","12","","","","","","","","","","","","","","","NaN",""
"","S1","","html-keyboard-response","92","166239","0.0-1.0-119.0","0","0","22805","","null","","","null","13","","","","","","","","","","","","","","","",""
"","ISI","","html-keyboard-response","93","167242","0.0-1.0-120.0","0","0","22805","","null","","","null","13","NaN","","","","","","","","","","","","","","",""
"","S2","","html-keyboard-response","94","167496","0.0-1.0-121.0","0","0","22805","","null","","","null","13","","NaN","","","","","","","","","","","","","",""
"","response","","html-keyboard-response","95","167996","0.0-1.0-122.0-0.0","0","0","22805","","499","","","75","13","","","1","13","training","adjacent","FG","6","7","R.jpg","P.jpg","1","1","1","",""
"","feedback","","html-keyboard-response","96","169000","0.0-1.0-123.0-0.0","0","0","22805","","null","","","null","13","","","","","","","","","","","","","","","",""
"","ITI","","html-keyboard-response","97","170003","0.0-1.0-126.0","0","0","22805","","null","","","null","13","","","","","","","","","","","","","","","NaN",""
"","S1","","html-keyboard-response","98","170256","0.0-1.0-128.0","0","0","22805","","null","","","null","14","","","","","","","","","","","","","","","",""
"","ISI","","html-keyboard-response","99","171260","0.0-1.0-129.0","0","0","22805","","null","","","null","14","NaN","","","","","","","","","","","","","","",""
"","S2","","html-keyboard-response","100","171512","0.0-1.0-130.0","0","0","22805","","null","","","null","14","","NaN","","","","","","","","","","","","","",""
"","response","","html-keyboard-response","101","171949","0.0-1.0-131.0-0.0","0","0","22805","","435","","","68","14","","","1","14","training","adjacent","DC","4","3","M.jpg","O.jpg","0","0","1","",""
"","feedback","","html-keyboard-response","102","172952","0.0-1.0-132.0-0.0","0","0","22805","","null","","","null","14","","","","","","","","","","","","","","","",""
"","ITI","","html-keyboard-response","103","173955","0.0-1.0-135.0","0","0","22805","","null","","","null","14","","","","","","","","","","","","","","","NaN",""
"","S1","","html-keyboard-response","104","174209","0.0-1.0-137.0","0","0","22805","","null","","","null","15","","","","","","","","","","","","","","","",""
"","ISI","","html-keyboard-response","105","175212","0.0-1.0-138.0","0","0","22805","","null","","","null","15","NaN","","","","","","","","","","","","","","",""
"","S2","","html-keyboard-response","106","175465","0.0-1.0-139.0","0","0","22805","","null","","","null","15","","NaN","","","","","","","","","","","","","",""
"","response","","html-keyboard-response","107","175868","0.0-1.0-140.0-0.0","0","0","22805","","401","","","68","15","","","1","15","training","adjacent","FE","6","5","R.jpg","L.jpg","0","0","1","",""
"","feedback","","html-keyboard-response","108","176872","0.0-1.0-141.0-0.0","0","0","22805","","null","","","null","15","","","","","","","","","","","","","","","",""
"","ITI","","html-keyboard-response","109","177875","0.0-1.0-144.0","0","0","22805","","null","","","null","15","","","","","","","","","","","","","","","NaN",""
"","S1","","html-keyboard-response","110","178128","0.0-1.0-146.0","0","0","22805","","null","","","null","16","","","","","","","","","","","","","","","",""
"","ISI","","html-keyboard-response","111","179130","0.0-1.0-147.0","0","0","22805","","null","","","null","16","NaN","","","","","","","","","","","","","","",""
"","S2","","html-keyboard-response","112","179382","0.0-1.0-148.0","0","0","22805","","null","","","null","16","","NaN","","","","","","","","","","","","","",""
"","response","","html-keyboard-response","113","179788","0.0-1.0-149.0-0.0","0","0","22805","","404","","","75","16","","","1","16","training","adjacent","ED","5","4","L.jpg","M.jpg","1","0","0","",""
"","feedback","","html-keyboard-response","114","180791","0.0-1.0-150.0-0.0","0","0","22805","","null","","","null","16","","","","","","","","","","","","","","","",""
"","time_out","","html-keyboard-response","115","182794","0.0-1.0-152.0-0.0","0","0","22805","","null","","","null","16","","","","","","","","","","","","","","","",""
"","ITI","","html-keyboard-response","116","183797","0.0-1.0-153.0","0","0","22805","","null","","","null","16","","","","","","","","","","","","","","","NaN",""
"","S1","","html-keyboard-response","117","184050","0.0-1.0-155.0","0","0","22805","","null","","","null","17","","","","","","","","","","","","","","","",""
"","ISI","","html-keyboard-response","118","185053","0.0-1.0-156.0","0","0","22805","","null","","","null","17","NaN","","","","","","","","","","","","","","",""
"","S2","","html-keyboard-response","119","185306","0.0-1.0-157.0","0","0","22805","","null","","","null","17","","NaN","","","","","","","","","","","","","",""
"","response","","html-keyboard-response","120","185916","0.0-1.0-158.0-0.0","0","0","22805","","608","","","75","17","","","1","17","training","adjacent","FE","6","5","R.jpg","L.jpg","1","0","0","",""
"","feedback","","html-keyboard-response","121","186919","0.0-1.0-159.0-0.0","0","0","22805","","null","","","null","17","","","","","","","","","","","","","","","",""
"","time_out","","html-keyboard-response","122","188922","0.0-1.0-161.0-0.0","0","0","22805","","null","","","null","17","","","","","","","","","","","","","","","",""
"","ITI","","html-keyboard-response","123","189924","0.0-1.0-162.0","0","0","22805","","null","","","null","17","","","","","","","","","","","","","","","NaN",""
"","S1","","html-keyboard-response","124","190176","0.0-1.0-164.0","0","0","22805","","null","","","null","18","","","","","","","","","","","","","","","",""
"","ISI","","html-keyboard-response","125","191178","0.0-1.0-165.0","0","0","22805","","null","","","null","18","NaN","","","","","","","","","","","","","","",""
"","S2","","html-keyboard-response","126","191430","0.0-1.0-166.0","0","0","22805","","null","","","null","18","","NaN","","","","","","","","","","","","","",""
"","response","","html-keyboard-response","127","191773","0.0-1.0-167.0-0.0","0","0","22805","","340","","","75","18","","","1","18","training","adjacent","GF","7","6","P.jpg","R.jpg","1","0","0","",""
"","feedback","","html-keyboard-response","128","192776","0.0-1.0-168.0-0.0","0","0","22805","","null","","","null","18","","","","","","","","","","","","","","","",""
"","time_out","","html-keyboard-response","129","194779","0.0-1.0-170.0-0.0","0","0","22805","","null","","","null","18","","","","","","","","","","","","","","","",""
"","ITI","","html-keyboard-response","130","195781","0.0-1.0-171.0","0","0","22805","","null","","","null","18","","","","","","","","","","","","","","","NaN",""
"","S1","","html-keyboard-response","131","196036","0.0-1.0-173.0","0","0","22805","","null","","","null","19","","","","","","","","","","","","","","","",""
"","ISI","","html-keyboard-response","132","197039","0.0-1.0-174.0","0","0","22805","","null","","","null","19","NaN","","","","","","","","","","","","","","",""
"","S2","","html-keyboard-response","133","197292","0.0-1.0-175.0","0","0","22805","","null","","","null","19","","NaN","","","","","","","","","","","","","",""
"","response","","html-keyboard-response","134","197548","0.0-1.0-176.0-0.0","0","0","22805","","253","","","75","19","","","1","19","training","adjacent","FE","6","5","R.jpg","L.jpg","1","0","0","",""
"","feedback","","html-keyboard-response","135","198551","0.0-1.0-177.0-0.0","0","0","22805","","null","","","null","19","","","","","","","","","","","","","","","",""
"","time_out","","html-keyboard-response","136","200554","0.0-1.0-179.0-0.0","0","0","22805","","null","","","null","19","","","","","","","","","","","","","","","",""
"","ITI","","html-keyboard-response","137","201559","0.0-1.0-180.0","0","0","22805","","null","","","null","19","","","","","","","","","","","","","","","NaN",""
"","S1","","html-keyboard-response","138","201813","0.0-1.0-182.0","0","0","22805","","null","","","null","20","","","","","","","","","","","","","","","",""
"","ISI","","html-keyboard-response","139","202816","0.0-1.0-183.0","0","0","22805","","null","","","null","20","NaN","","","","","","","","","","","","","","",""
"","S2","","html-keyboard-response","140","203070","0.0-1.0-184.0","0","0","22805","","null","","","null","20","","NaN","","","","","","","","","","","","","",""
"","response","","html-keyboard-response","141","203435","0.0-1.0-185.0-0.0","0","0","22805","","364","","","75","20","","","1","20","training","adjacent","AB","1","2","N.jpg","Q.jpg","1","1","1","",""
"","feedback","","html-keyboard-response","142","204439","0.0-1.0-186.0-0.0","0","0","22805","","null","","","null","20","","","","","","","","","","","","","","","",""
"","ITI","","html-keyboard-response","143","205442","0.0-1.0-189.0","0","0","22805","","null","","","null","20","","","","","","","","","","","","","","","NaN",""
"","S1","","html-keyboard-response","144","205697","0.0-1.0-191.0","0","0","22805","","null","","","null","21","","","","","","","","","","","","","","","",""
"","ISI","","html-keyboard-response","145","206700","0.0-1.0-192.0","0","0","22805","","null","","","null","21","NaN","","","","","","","","","","","","","","",""
"","S2","","html-keyboard-response","146","206953","0.0-1.0-193.0","0","0","22805","","null","","","null","21","","NaN","","","","","","","","","","","","","",""
"","response","","html-keyboard-response","147","207411","0.0-1.0-194.0-0.0","0","0","22805","","457","","","75","21","","","1","21","training","adjacent","CB","3","2","O.jpg","Q.jpg","1","0","0","",""
"","feedback","","html-keyboard-response","148","208414","0.0-1.0-195.0-0.0","0","0","22805","","null","","","null","21","","","","","","","","","","","","","","","",""
"","time_out","","html-keyboard-response","149","210416","0.0-1.0-197.0-0.0","0","0","22805","","null","","","null","21","","","","","","","","","","","","","","","",""
"","ITI","","html-keyboard-response","150","211418","0.0-1.0-198.0","0","0","22805","","null","","","null","21","","","","","","","","","","","","","","","NaN",""
"","S1","","html-keyboard-response","151","211671","0.0-1.0-200.0","0","0","22805","","null","","","null","22","","","","","","","","","","","","","","","",""
"","ISI","","html-keyboard-response","152","212674","0.0-1.0-201.0","0","0","22805","","null","","","null","22","NaN","","","","","","","","","","","","","","",""
"","S2","","html-keyboard-response","153","212927","0.0-1.0-202.0","0","0","22805","","null","","","null","22","","NaN","","","","","","","","","","","","","",""
"","response","","html-keyboard-response","154","213837","0.0-1.0-203.0-0.0","0","0","22805","","906","","","75","22","","","1","22","training","adjacent","EF","5","6","L.jpg","R.jpg","1","1","1","",""
"","feedback","","html-keyboard-response","155","214840","0.0-1.0-204.0-0.0","0","0","22805","","null","","","null","22","","","","","","","","","","","","","","","",""
"","ITI","","html-keyboard-response","156","215843","0.0-1.0-207.0","0","0","22805","","null","","","null","22","","","","","","","","","","","","","","","NaN",""
"","S1","","html-keyboard-response","157","216096","0.0-1.0-209.0","0","0","22805","","null","","","null","23","","","","","","","","","","","","","","","",""
"","ISI","","html-keyboard-response","158","217099","0.0-1.0-210.0","0","0","22805","","null","","","null","23","NaN","","","","","","","","","","","","","","",""
"","S2","","html-keyboard-response","159","217352","0.0-1.0-211.0","0","0","22805","","null","","","null","23","","NaN","","","","","","","","","","","","","",""
"","response","","html-keyboard-response","160","218053","0.0-1.0-212.0-0.0","0","0","22805","","699","","","68","23","","","1","23","training","adjacent","CD","3","4","O.jpg","M.jpg","0","1","0","",""
"","feedback","","html-keyboard-response","161","219057","0.0-1.0-213.0-0.0","0","0","22805","","null","","","null","23","","","","","","","","","","","","","","","",""
"","time_out","","html-keyboard-response","162","221062","0.0-1.0-215.0-0.0","0","0","22805","","null","","","null","23","","","","","","","","","","","","","","","",""
"","ITI","","html-keyboard-response","163","222064","0.0-1.0-216.0","0","0","22805","","null","","","null","23","","","","","","","","","","","","","","","NaN",""
"","S1","","html-keyboard-response","164","222318","0.0-1.0-218.0","0","0","22805","","null","","","null","24","","","","","","","","","","","","","","","",""
"","ISI","","html-keyboard-response","165","223321","0.0-1.0-219.0","0","0","22805","","null","","","null","24","NaN","","","","","","","","","","","","","","",""
"","S2","","html-keyboard-response","166","223574","0.0-1.0-220.0","0","0","22805","","null","","","null","24","","NaN","","","","","","","","","","","","","",""
"","response","","html-keyboard-response","167","224060","0.0-1.0-221.0-0.0","0","0","22805","","483","","","68","24","","","1","24","training","adjacent","DE","4","5","M.jpg","L.jpg","0","1","0","",""
"","feedback","","html-keyboard-response","168","225063","0.0-1.0-222.0-0.0","0","0","22805","","null","","","null","24","","","","","","","","","","","","","","","",""
"","time_out","","html-keyboard-response","169","227065","0.0-1.0-224.0-0.0","0","0","22805","","null","","","null","24","","","","","","","","","","","","","","","",""
"","ITI","","html-keyboard-response","170","228068","0.0-1.0-225.0","0","0","22805","","null","","","null","24","","","","","","","","","","","","","","","NaN",""
"","S1","","html-keyboard-response","171","228321","0.0-1.0-227.0","0","0","22805","","null","","","null","25","","","","","","","","","","","","","","","",""
"","ISI","","html-keyboard-response","172","229323","0.0-1.0-228.0","0","0","22805","","null","","","null","25","NaN","","","","","","","","","","","","","","",""
"","S2","","html-keyboard-response","173","229577","0.0-1.0-229.0","0","0","22805","","null","","","null","25","","NaN","","","","","","","","","","","","","",""
"","response","","html-keyboard-response","174","230004","0.0-1.0-230.0-0.0","0","0","22805","","424","","","68","25","","","1","25","training","adjacent","BC","2","3","Q.jpg","O.jpg","0","1","0","",""
"","feedback","","html-keyboard-response","175","231008","0.0-1.0-231.0-0.0","0","0","22805","","null","","","null","25","","","","","","","","","","","","","","","",""
"","time_out","","html-keyboard-response","176","233011","0.0-1.0-233.0-0.0","0","0","22805","","null","","","null","25","","","","","","","","","","","","","","","",""
"","ITI","","html-keyboard-response","177","234014","0.0-1.0-234.0","0","0","22805","","null","","","null","25","","","","","","","","","","","","","","","NaN",""
"","S1","","html-keyboard-response","178","234266","0.0-1.0-236.0","0","0","22805","","null","","","null","26","","","","","","","","","","","","","","","",""
"","ISI","","html-keyboard-response","179","235269","0.0-1.0-237.0","0","0","22805","","null","","","null","26","NaN","","","","","","","","","","","","","","",""
"","S2","","html-keyboard-response","180","235524","0.0-1.0-238.0","0","0","22805","","null","","","null","26","","NaN","","","","","","","","","","","","","",""
"","response","","html-keyboard-response","181","235790","0.0-1.0-239.0-0.0","0","0","22805","","264","","","68","26","","","1","26","training","adjacent","GF","7","6","P.jpg","R.jpg","0","0","1","",""
"","feedback","","html-keyboard-response","182","236794","0.0-1.0-240.0-0.0","0","0","22805","","null","","","null","26","","","","","","","","","","","","","","","",""
"","ITI","","html-keyboard-response","183","237797","0.0-1.0-243.0","0","0","22805","","null","","","null","26","","","","","","","","","","","","","","","NaN",""
"","S1","","html-keyboard-response","184","238049","0.0-1.0-245.0","0","0","22805","","null","","","null","27","","","","","","","","","","","","","","","",""
"","ISI","","html-keyboard-response","185","239051","0.0-1.0-246.0","0","0","22805","","null","","","null","27","NaN","","","","","","","","","","","","","","",""
"","S2","","html-keyboard-response","186","239305","0.0-1.0-247.0","0","0","22805","","null","","","null","27","","NaN","","","","","","","","","","","","","",""
"","response","","html-keyboard-response","187","239494","0.0-1.0-248.0-0.0","0","0","22805","","185","","","68","27","","","1","27","training","adjacent","GF","7","6","P.jpg","R.jpg","0","0","1","",""
"","feedback","","html-keyboard-response","188","240497","0.0-1.0-249.0-0.0","0","0","22805","","null","","","null","27","","","","","","","","","","","","","","","",""
"","ITI","","html-keyboard-response","189","241500","0.0-1.0-252.0","0","0","22805","","null","","","null","27","","","","","","","","","","","","","","","NaN",""
"","S1","","html-keyboard-response","190","241753","0.0-1.0-254.0","0","0","22805","","null","","","null","28","","","","","","","","","","","","","","","",""
"","ISI","","html-keyboard-response","191","242756","0.0-1.0-255.0","0","0","22805","","null","","","null","28","NaN","","","","","","","","","","","","","","",""
"","S2","","html-keyboard-response","192","243009","0.0-1.0-256.0","0","0","22805","","null","","","null","28","","NaN","","","","","","","","","","","","","",""
"","response","","html-keyboard-response","193","243324","0.0-1.0-257.0-0.0","0","0","22805","","313","","","68","28","","","1","28","training","adjacent","BC","2","3","Q.jpg","O.jpg","0","1","0","",""
"","feedback","","html-keyboard-response","194","244327","0.0-1.0-258.0-0.0","0","0","22805","","null","","","null","28","","","","","","","","","","","","","","","",""
"","time_out","","html-keyboard-response","195","246330","0.0-1.0-260.0-0.0","0","0","22805","","null","","","null","28","","","","","","","","","","","","","","","",""
"","ITI","","html-keyboard-response","196","247334","0.0-1.0-261.0","0","0","22805","","null","","","null","28","","","","","","","","","","","","","","","NaN",""
"","S1","","html-keyboard-response","197","247588","0.0-1.0-263.0","0","0","22805","","null","","","null","29","","","","","","","","","","","","","","","",""
"","ISI","","html-keyboard-response","198","248591","0.0-1.0-264.0","0","0","22805","","null","","","null","29","NaN","","","","","","","","","","","","","","",""
"","S2","","html-keyboard-response","199","248844","0.0-1.0-265.0","0","0","22805","","null","","","null","29","","NaN","","","","","","","","","","","","","",""
"","response","","html-keyboard-response","200","249276","0.0-1.0-266.0-0.0","0","0","22805","","431","","","68","29","","","1","29","training","adjacent","DE","4","5","M.jpg","L.jpg","0","1","0","",""
"","feedback","","html-keyboard-response","201","250278","0.0-1.0-267.0-0.0","0","0","22805","","null","","","null","29","","","","","","","","","","","","","","","",""
"","time_out","","html-keyboard-response","202","252280","0.0-1.0-269.0-0.0","0","0","22805","","null","","","null","29","","","","","","","","","","","","","","","",""
"","ITI","","html-keyboard-response","203","253284","0.0-1.0-270.0","0","0","22805","","null","","","null","29","","","","","","","","","","","","","","","NaN",""
"","S1","","html-keyboard-response","204","253537","0.0-1.0-272.0","0","0","22805","","null","","","null","30","","","","","","","","","","","","","","","",""
"","ISI","","html-keyboard-response","205","254541","0.0-1.0-273.0","0","0","22805","","null","","","null","30","NaN","","","","","","","","","","","","","","",""
"","S2","","html-keyboard-response","206","254795","0.0-1.0-274.0","0","0","22805","","null","","","null","30","","NaN","","","","","","","","","","","","","",""
"","response","","html-keyboard-response","207","254891","0.0-1.0-275.0-0.0","0","0","22805","","94","","","68","30","","","1","30","training","adjacent","CD","3","4","O.jpg","M.jpg","0","1","0","",""
"","feedback","","html-keyboard-response","208","255894","0.0-1.0-276.0-0.0","0","0","22805","","null","","","null","30","","","","","","","","","","","","","","","",""
"","time_out","","html-keyboard-response","209","257896","0.0-1.0-278.0-0.0","0","0","22805","","null","","","null","30","","","","","","","","","","","","","","","",""
"","ITI","","html-keyboard-response","210","258898","0.0-1.0-279.0","0","0","22805","","null","","","null","30","","","","","","","","","","","","","","","NaN",""
"","S1","","html-keyboard-response","211","259150","0.0-1.0-281.0","0","0","22805","","null","","","null","31","","","","","","","","","","","","","","","",""
"","ISI","","html-keyboard-response","212","260153","0.0-1.0-282.0","0","0","22805","","null","","","null","31","NaN","","","","","","","","","","","","","","",""
"","S2","","html-keyboard-response","213","260417","0.0-1.0-283.0","0","0","22805","","null","","","null","31","","NaN","","","","","","","","","","","","","",""
"","response","","html-keyboard-response","214","260676","0.0-1.0-284.0-0.0","0","0","22805","","258","","","68","31","","","1","31","training","adjacent","CD","3","4","O.jpg","M.jpg","0","1","0","",""
"","feedback","","html-keyboard-response","215","261680","0.0-1.0-285.0-0.0","0","0","22805","","null","","","null","31","","","","","","","","","","","","","","","",""
"","time_out","","html-keyboard-response","216","263682","0.0-1.0-287.0-0.0","0","0","22805","","null","","","null","31","","","","","","","","","","","","","","","",""
"","ITI","","html-keyboard-response","217","264689","0.0-1.0-288.0","0","0","22805","","null","","","null","31","","","","","","","","","","","","","","","NaN",""
"","S1","","html-keyboard-response","218","264943","0.0-1.0-290.0","0","0","22805","","null","","","null","32","","","","","","","","","","","","","","","",""
"","ISI","","html-keyboard-response","219","265946","0.0-1.0-291.0","0","0","22805","","null","","","null","32","NaN","","","","","","","","","","","","","","",""
"","S2","","html-keyboard-response","220","266199","0.0-1.0-292.0","0","0","22805","","null","","","null","32","","NaN","","","","","","","","","","","","","",""
"","response","","html-keyboard-response","221","266841","0.0-1.0-293.0-0.0","0","0","22805","","641","","","68","32","","","1","32","training","adjacent","BC","2","3","Q.jpg","O.jpg","0","1","0","",""
"","feedback","","html-keyboard-response","222","267846","0.0-1.0-294.0-0.0","0","0","22805","","null","","","null","32","","","","","","","","","","","","","","","",""
"","time_out","","html-keyboard-response","223","269848","0.0-1.0-296.0-0.0","0","0","22805","","null","","","null","32","","","","","","","","","","","","","","","",""
"","ITI","","html-keyboard-response","224","270850","0.0-1.0-297.0","0","0","22805","","null","","","null","32","","","","","","","","","","","","","","","NaN",""
"","S1","","html-keyboard-response","225","271103","0.0-1.0-299.0","0","0","22805","","null","","","null","33","","","","","","","","","","","","","","","",""
"","ISI","","html-keyboard-response","226","272106","0.0-1.0-300.0","0","0","22805","","null","","","null","33","NaN","","","","","","","","","","","","","","",""
"","S2","","html-keyboard-response","227","272359","0.0-1.0-301.0","0","0","22805","","null","","","null","33","","NaN","","","","","","","","","","","","","",""
"","response","","html-keyboard-response","228","272733","0.0-1.0-302.0-0.0","0","0","22805","","372","","","68","33","","","1","33","training","adjacent","AB","1","2","N.jpg","Q.jpg","0","1","0","",""
"","feedback","","html-keyboard-response","229","273736","0.0-1.0-303.0-0.0","0","0","22805","","null","","","null","33","","","","","","","","","","","","","","","",""
"","time_out","","html-keyboard-response","230","275740","0.0-1.0-305.0-0.0","0","0","22805","","null","","","null","33","","","","","","","","","","","","","","","",""
"","ITI","","html-keyboard-response","231","276743","0.0-1.0-306.0","0","0","22805","","null","","","null","33","","","","","","","","","","","","","","","NaN",""
"","S1","","html-keyboard-response","232","276995","0.0-1.0-308.0","0","0","22805","","null","","","null","34","","","","","","","","","","","","","","","",""
"","ISI","","html-keyboard-response","233","277999","0.0-1.0-309.0","0","0","22805","","null","","","null","34","NaN","","","","","","","","","","","","","","",""
"","S2","","html-keyboard-response","234","278267","0.0-1.0-310.0","0","0","22805","","null","","","null","34","","NaN","","","","","","","","","","","","","",""
"","response","","html-keyboard-response","235","278444","0.0-1.0-311.0-0.0","0","0","22805","","175","","","75","34","","","1","34","training","adjacent","AB","1","2","N.jpg","Q.jpg","1","1","1","",""
"","feedback","","html-keyboard-response","236","279448","0.0-1.0-312.0-0.0","0","0","22805","","null","","","null","34","","","","","","","","","","","","","","","",""
"","ITI","","html-keyboard-response","237","280451","0.0-1.0-315.0","0","0","22805","","null","","","null","34","","","","","","","","","","","","","","","NaN",""
"","S1","","html-keyboard-response","238","280703","0.0-1.0-317.0","0","0","22805","","null","","","null","35","","","","","","","","","","","","","","","",""
"","ISI","","html-keyboard-response","239","281705","0.0-1.0-318.0","0","0","22805","","null","","","null","35","NaN","","","","","","","","","","","","","","",""
"","S2","","html-keyboard-response","240","281958","0.0-1.0-319.0","0","0","22805","","null","","","null","35","","NaN","","","","","","","","","","","","","",""
"","response","","html-keyboard-response","241","282276","0.0-1.0-320.0-0.0","0","0","22805","","316","","","75","35","","","1","35","training","adjacent","BA","2","1","Q.jpg","N.jpg","1","0","0","",""
"","feedback","","html-keyboard-response","242","283278","0.0-1.0-321.0-0.0","0","0","22805","","null","","","null","35","","","","","","","","","","","","","","","",""
"","time_out","","html-keyboard-response","243","285281","0.0-1.0-323.0-0.0","0","0","22805","","null","","","null","35","","","","","","","","","","","","","","","",""
"","ITI","","html-keyboard-response","244","286285","0.0-1.0-324.0","0","0","22805","","null","","","null","35","","","","","","","","","","","","","","","NaN",""
"","S1","","html-keyboard-response","245","286538","0.0-1.0-326.0","0","0","22805","","null","","","null","36","","","","","","","","","","","","","","","",""
"","ISI","","html-keyboard-response","246","287541","0.0-1.0-327.0","0","0","22805","","null","","","null","36","NaN","","","","","","","","","","","","","","",""
"","S2","","html-keyboard-response","247","287793","0.0-1.0-328.0","0","0","22805","","null","","","null","36","","NaN","","","","","","","","","","","","","",""
"","response","","html-keyboard-response","248","288054","0.0-1.0-329.0-0.0","0","0","22805","","257","","","68","36","","","1","36","training","adjacent","ED","5","4","L.jpg","M.jpg","0","0","1","",""
"","feedback","","html-keyboard-response","249","289058","0.0-1.0-330.0-0.0","0","0","22805","","null","","","null","36","","","","","","","","","","","","","","","",""
"","ITI","","html-keyboard-response","250","290061","0.0-1.0-333.0","0","0","22805","","null","","","null","36","","","","","","","","","","","","","","","NaN",""
"","S1","","html-keyboard-response","251","290314","0.0-1.0-335.0","0","0","22805","","null","","","null","37","","","","","","","","","","","","","","","",""
"","ISI","","html-keyboard-response","252","291317","0.0-1.0-336.0","0","0","22805","","null","","","null","37","NaN","","","","","","","","","","","","","","",""
"","S2","","html-keyboard-response","253","291571","0.0-1.0-337.0","0","0","22805","","null","","","null","37","","NaN","","","","","","","","","","","","","",""
"","response","","html-keyboard-response","254","291876","0.0-1.0-338.0-0.0","0","0","22805","","303","","","68","37","","","1","37","training","adjacent","GF","7","6","P.jpg","R.jpg","0","0","1","",""
"","feedback","","html-keyboard-response","255","292879","0.0-1.0-339.0-0.0","0","0","22805","","null","","","null","37","","","","","","","","","","","","","","","",""
"","ITI","","html-keyboard-response","256","293881","0.0-1.0-342.0","0","0","22805","","null","","","null","37","","","","","","","","","","","","","","","NaN",""
"","S1","","html-keyboard-response","257","294135","0.0-1.0-344.0","0","0","22805","","null","","","null","38","","","","","","","","","","","","","","","",""
"","ISI","","html-keyboard-response","258","295139","0.0-1.0-345.0","0","0","22805","","null","","","null","38","NaN","","","","","","","","","","","","","","",""
"","S2","","html-keyboard-response","259","295392","0.0-1.0-346.0","0","0","22805","","null","","","null","38","","NaN","","","","","","","","","","","","","",""
"","response","","html-keyboard-response","260","295684","0.0-1.0-347.0-0.0","0","0","22805","","289","","","68","38","","","1","38","training","adjacent","DC","4","3","M.jpg","O.jpg","0","0","1","",""
"","feedback","","html-keyboard-response","261","296687","0.0-1.0-348.0-0.0","0","0","22805","","null","","","null","38","","","","","","","","","","","","","","","",""
"","ITI","","html-keyboard-response","262","297689","0.0-1.0-351.0","0","0","22805","","null","","","null","38","","","","","","","","","","","","","","","NaN",""
"","S1","","html-keyboard-response","263","297942","0.0-1.0-353.0","0","0","22805","","null","","","null","39","","","","","","","","","","","","","","","",""
"","ISI","","html-keyboard-response","264","298945","0.0-1.0-354.0","0","0","22805","","null","","","null","39","NaN","","","","","","","","","","","","","","",""
"","S2","","html-keyboard-response","265","299198","0.0-1.0-355.0","0","0","22805","","null","","","null","39","","NaN","","","","","","","","","","","","","",""
"","response","","html-keyboard-response","266","299555","0.0-1.0-356.0-0.0","0","0","22805","","356","","","68","39","","","1","39","training","adjacent","ED","5","4","L.jpg","M.jpg","0","0","1","",""
"","feedback","","html-keyboard-response","267","300558","0.0-1.0-357.0-0.0","0","0","22805","","null","","","null","39","","","","","","","","","","","","","","","",""
"","ITI","","html-keyboard-response","268","301560","0.0-1.0-360.0","0","0","22805","","null","","","null","39","","","","","","","","","","","","","","","NaN",""
"","S1","","html-keyboard-response","269","301812","0.0-1.0-362.0","0","0","22805","","null","","","null","40","","","","","","","","","","","","","","","",""
"","ISI","","html-keyboard-response","270","302814","0.0-1.0-363.0","0","0","22805","","null","","","null","40","NaN","","","","","","","","","","","","","","",""
"","S2","","html-keyboard-response","271","303069","0.0-1.0-364.0","0","0","22805","","null","","","null","40","","NaN","","","","","","","","","","","","","",""
"","response","","html-keyboard-response","272","303443","0.0-1.0-365.0-0.0","0","0","22805","","373","","","75","40","","","1","40","training","adjacent","ED","5","4","L.jpg","M.jpg","1","0","0","",""
"","feedback","","html-keyboard-response","273","304445","0.0-1.0-366.0-0.0","0","0","22805","","null","","","null","40","","","","","","","","","","","","","","","",""
"","time_out","","html-keyboard-response","274","306449","0.0-1.0-368.0-0.0","0","0","22805","","null","","","null","40","","","","","","","","","","","","","","","",""
"","ITI","","html-keyboard-response","275","307453","0.0-1.0-369.0","0","0","22805","","null","","","null","40","","","","","","","","","","","","","","","NaN",""
"","S1","","html-keyboard-response","276","307706","0.0-1.0-371.0","0","0","22805","","null","","","null","41","","","","","","","","","","","","","","","",""
"","ISI","","html-keyboard-response","277","308711","0.0-1.0-372.0","0","0","22805","","null","","","null","41","NaN","","","","","","","","","","","","","","",""
"","S2","","html-keyboard-response","278","308964","0.0-1.0-373.0","0","0","22805","","null","","","null","41","","NaN","","","","","","","","","","","","","",""
"","response","","html-keyboard-response","279","309628","0.0-1.0-374.0-0.0","0","0","22805","","662","","","68","41","","","1","41","training","adjacent","EF","5","6","L.jpg","R.jpg","0","1","0","",""
"","feedback","","html-keyboard-response","280","310632","0.0-1.0-375.0-0.0","0","0","22805","","null","","","null","41","","","","","","","","","","","","","","","",""
"","time_out","","html-keyboard-response","281","312635","0.0-1.0-377.0-0.0","0","0","22805","","null","","","null","41","","","","","","","","","","","","","","","",""
"","ITI","","html-keyboard-response","282","313638","0.0-1.0-378.0","0","0","22805","","null","","","null","41","","","","","","","","","","","","","","","NaN",""
"","S1","","html-keyboard-response","283","313891","0.0-1.0-380.0","0","0","22805","","null","","","null","42","","","","","","","","","","","","","","","",""
"","ISI","","html-keyboard-response","284","314895","0.0-1.0-381.0","0","0","22805","","null","","","null","42","NaN","","","","","","","","","","","","","","",""
"","S2","","html-keyboard-response","285","315148","0.0-1.0-382.0","0","0","22805","","null","","","null","42","","NaN","","","","","","","","","","","","","",""
"","response","","html-keyboard-response","286","315483","0.0-1.0-383.0-0.0","0","0","22805","","334","","","75","42","","","1","42","training","adjacent","FG","6","7","R.jpg","P.jpg","1","1","1","",""
"","feedback","","html-keyboard-response","287","316486","0.0-1.0-384.0-0.0","0","0","22805","","null","","","null","42","","","","","","","","","","","","","","","",""
"","ITI","","html-keyboard-response","288","317489","0.0-1.0-387.0","0","0","22805","","null","","","null","42","","","","","","","","","","","","","","","NaN",""
"","S1","","html-keyboard-response","289","317741","0.0-1.0-389.0","0","0","22805","","null","","","null","43","","","","","","","","","","","","","","","",""
"","ISI","","html-keyboard-response","290","318744","0.0-1.0-390.0","0","0","22805","","null","","","null","43","NaN","","","","","","","","","","","","","","",""
"","S2","","html-keyboard-response","291","318998","0.0-1.0-391.0","0","0","22805","","null","","","null","43","","NaN","","","","","","","","","","","","","",""
"","response","","html-keyboard-response","292","319275","0.0-1.0-392.0-0.0","0","0","22805","","276","","","75","43","","","1","43","training","adjacent","FG","6","7","R.jpg","P.jpg","1","1","1","",""
"","feedback","","html-keyboard-response","293","320277","0.0-1.0-393.0-0.0","0","0","22805","","null","","","null","43","","","","","","","","","","","","","","","",""
"","ITI","","html-keyboard-response","294","321280","0.0-1.0-396.0","0","0","22805","","null","","","null","43","","","","","","","","","","","","","","","NaN",""
"","S1","","html-keyboard-response","295","321534","0.0-1.0-398.0","0","0","22805","","null","","","null","44","","","","","","","","","","","","","","","",""
"","ISI","","html-keyboard-response","296","322535","0.0-1.0-399.0","0","0","22805","","null","","","null","44","NaN","","","","","","","","","","","","","","",""
"","S2","","html-keyboard-response","297","322788","0.0-1.0-400.0","0","0","22805","","null","","","null","44","","NaN","","","","","","","","","","","","","",""
"","response","","html-keyboard-response","298","323211","0.0-1.0-401.0-0.0","0","0","22805","","421","","","75","44","","","1","44","training","adjacent","DC","4","3","M.jpg","O.jpg","1","0","0","",""
"","feedback","","html-keyboard-response","299","324214","0.0-1.0-402.0-0.0","0","0","22805","","null","","","null","44","","","","","","","","","","","","","","","",""
"","time_out","","html-keyboard-response","300","326219","0.0-1.0-404.0-0.0","0","0","22805","","null","","","null","44","","","","","","","","","","","","","","","",""
"","ITI","","html-keyboard-response","301","327222","0.0-1.0-405.0","0","0","22805","","null","","","null","44","","","","","","","","","","","","","","","NaN",""
"","S1","","html-keyboard-response","302","327475","0.0-1.0-407.0","0","0","22805","","null","","","null","45","","","","","","","","","","","","","","","",""
"","ISI","","html-keyboard-response","303","328478","0.0-1.0-408.0","0","0","22805","","null","","","null","45","NaN","","","","","","","","","","","","","","",""
"","S2","","html-keyboard-response","304","328733","0.0-1.0-409.0","0","0","22805","","null","","","null","45","","NaN","","","","","","","","","","","","","",""
"","response","","html-keyboard-response","305","329035","0.0-1.0-410.0-0.0","0","0","22805","","299","","","68","45","","","1","45","training","adjacent","BA","2","1","Q.jpg","N.jpg","0","0","1","",""
"","feedback","","html-keyboard-response","306","330038","0.0-1.0-411.0-0.0","0","0","22805","","null","","","null","45","","","","","","","","","","","","","","","",""
"","ITI","","html-keyboard-response","307","331040","0.0-1.0-414.0","0","0","22805","","null","","","null","45","","","","","","","","","","","","","","","NaN",""
"","S1","","html-keyboard-response","308","331294","0.0-1.0-416.0","0","0","22805","","null","","","null","46","","","","","","","","","","","","","","","",""
"","ISI","","html-keyboard-response","309","332296","0.0-1.0-417.0","0","0","22805","","null","","","null","46","NaN","","","","","","","","","","","","","","",""
"","S2","","html-keyboard-response","310","332550","0.0-1.0-418.0","0","0","22805","","null","","","null","46","","NaN","","","","","","","","","","","","","",""
"","response","","html-keyboard-response","311","332979","0.0-1.0-419.0-0.0","0","0","22805","","428","","","68","46","","","1","46","training","adjacent","DE","4","5","M.jpg","L.jpg","0","1","0","",""
"","feedback","","html-keyboard-response","312","333982","0.0-1.0-420.0-0.0","0","0","22805","","null","","","null","46","","","","","","","","","","","","","","","",""
"","time_out","","html-keyboard-response","313","335985","0.0-1.0-422.0-0.0","0","0","22805","","null","","","null","46","","","","","","","","","","","","","","","",""
"","ITI","","html-keyboard-response","314","336989","0.0-1.0-423.0","0","0","22805","","null","","","null","46","","","","","","","","","","","","","","","NaN",""
"","S1","","html-keyboard-response","315","337241","0.0-1.0-425.0","0","0","22805","","null","","","null","47","","","","","","","","","","","","","","","",""
"","ISI","","html-keyboard-response","316","338243","0.0-1.0-426.0","0","0","22805","","null","","","null","47","NaN","","","","","","","","","","","","","","",""
"","S2","","html-keyboard-response","317","338498","0.0-1.0-427.0","0","0","22805","","null","","","null","47","","NaN","","","","","","","","","","","","","",""
"","response","","html-keyboard-response","318","338892","0.0-1.0-428.0-0.0","0","0","22805","","391","","","68","47","","","1","47","training","adjacent","FG","6","7","R.jpg","P.jpg","0","1","0","",""
"","feedback","","html-keyboard-response","319","339895","0.0-1.0-429.0-0.0","0","0","22805","","null","","","null","47","","","","","","","","","","","","","","","",""
"","time_out","","html-keyboard-response","320","341898","0.0-1.0-431.0-0.0","0","0","22805","","null","","","null","47","","","","","","","","","","","","","","","",""
"","ITI","","html-keyboard-response","321","342903","0.0-1.0-432.0","0","0","22805","","null","","","null","47","","","","","","","","","","","","","","","NaN",""
"","block_over","","html-keyboard-response","322","345460","0.0-1.0-433.0-0.0","0","0","22805","","2554","","","32","47","","","","","","","","","","","","","","","",""
"","S1","","html-keyboard-response","323","345714","0.0-1.0-434.0","0","0","22805","","null","","","null","48","","","","","","","","","","","","","","","",""
"","ISI","","html-keyboard-response","324","346717","0.0-1.0-435.0","0","0","22805","","null","","","null","48","NaN","","","","","","","","","","","","","","",""
"","S2","","html-keyboard-response","325","346970","0.0-1.0-436.0","0","0","22805","","null","","","null","48","","NaN","","","","","","","","","","","","","",""
"","response","","html-keyboard-response","326","347070","0.0-1.0-437.0-0.0","0","0","22805","","96","","","68","48","","","2","48","training","adjacent","ED","5","4","L.jpg","M.jpg","0","0","1","",""
"","feedback","","html-keyboard-response","327","348073","0.0-1.0-438.0-0.0","0","0","22805","","null","","","null","48","","","","","","","","","","","","","","","",""
"","ITI","","html-keyboard-response","328","349076","0.0-1.0-441.0","0","0","22805","","null","","","null","48","","","","","","","","","","","","","","","NaN",""
"","S1","","html-keyboard-response","329","349329","0.0-1.0-443.0","0","0","22805","","null","","","null","49","","","","","","","","","","","","","","","",""
"","ISI","","html-keyboard-response","330","350332","0.0-1.0-444.0","0","0","22805","","null","","","null","49","NaN","","","","","","","","","","","","","","",""
"","S2","","html-keyboard-response","331","350584","0.0-1.0-445.0","0","0","22805","","null","","","null","49","","NaN","","","","","","","","","","","","","",""
"","response","","html-keyboard-response","332","350966","0.0-1.0-446.0-0.0","0","0","22805","","379","","","68","49","","","2","49","training","adjacent","BA","2","1","Q.jpg","N.jpg","0","0","1","",""
"","feedback","","html-keyboard-response","333","351970","0.0-1.0-447.0-0.0","0","0","22805","","null","","","null","49","","","","","","","","","","","","","","","",""
"","ITI","","html-keyboard-response","334","352973","0.0-1.0-450.0","0","0","22805","","null","","","null","49","","","","","","","","","","","","","","","NaN",""
"","S1","","html-keyboard-response","335","353226","0.0-1.0-452.0","0","0","22805","","null","","","null","50","","","","","","","","","","","","","","","",""
"","ISI","","html-keyboard-response","336","354228","0.0-1.0-453.0","0","0","22805","","null","","","null","50","NaN","","","","","","","","","","","","","","",""
"","S2","","html-keyboard-response","337","354483","0.0-1.0-454.0","0","0","22805","","null","","","null","50","","NaN","","","","","","","","","","","","","",""
"","response","","html-keyboard-response","338","354869","0.0-1.0-455.0-0.0","0","0","22805","","383","","","68","50","","","2","50","training","adjacent","FG","6","7","R.jpg","P.jpg","0","1","0","",""
"","feedback","","html-keyboard-response","339","355872","0.0-1.0-456.0-0.0","0","0","22805","","null","","","null","50","","","","","","","","","","","","","","","",""
"","time_out","","html-keyboard-response","340","357874","0.0-1.0-458.0-0.0","0","0","22805","","null","","","null","50","","","","","","","","","","","","","","","",""
"","ITI","","html-keyboard-response","341","358877","0.0-1.0-459.0","0","0","22805","","null","","","null","50","","","","","","","","","","","","","","","NaN",""
"","S1","","html-keyboard-response","342","359131","0.0-1.0-461.0","0","0","22805","","null","","","null","51","","","","","","","","","","","","","","","",""
"","ISI","","html-keyboard-response","343","360135","0.0-1.0-462.0","0","0","22805","","null","","","null","51","NaN","","","","","","","","","","","","","","",""
"","S2","","html-keyboard-response","344","360388","0.0-1.0-463.0","0","0","22805","","null","","","null","51","","NaN","","","","","","","","","","","","","",""
"","response","","html-keyboard-response","345","360734","0.0-1.0-464.0-0.0","0","0","22805","","342","","","68","51","","","2","51","training","adjacent","ED","5","4","L.jpg","M.jpg","0","0","1","",""
"","feedback","","html-keyboard-response","346","361739","0.0-1.0-465.0-0.0","0","0","22805","","null","","","null","51","","","","","","","","","","","","","","","",""
"","ITI","","html-keyboard-response","347","362742","0.0-1.0-468.0","0","0","22805","","null","","","null","51","","","","","","","","","","","","","","","NaN",""
"","S1","","html-keyboard-response","348","362995","0.0-1.0-470.0","0","0","22805","","null","","","null","52","","","","","","","","","","","","","","","",""
"","ISI","","html-keyboard-response","349","364000","0.0-1.0-471.0","0","0","22805","","null","","","null","52","NaN","","","","","","","","","","","","","","",""
"","S2","","html-keyboard-response","350","364252","0.0-1.0-472.0","0","0","22805","","null","","","null","52","","NaN","","","","","","","","","","","","","",""
"","response","","html-keyboard-response","351","364404","0.0-1.0-473.0-0.0","0","0","22805","","150","","","75","52","","","2","52","training","adjacent","CB","3","2","O.jpg","Q.jpg","1","0","0","",""
"","feedback","","html-keyboard-response","352","365407","0.0-1.0-474.0-0.0","0","0","22805","","null","","","null","52","","","","","","","","","","","","","","","",""
"","time_out","","html-keyboard-response","353","367410","0.0-1.0-476.0-0.0","0","0","22805","","null","","","null","52","","","","","","","","","","","","","","","",""
"","ITI","","html-keyboard-response","354","368412","0.0-1.0-477.0","0","0","22805","","null","","","null","52","","","","","","","","","","","","","","","NaN",""
"","S1","","html-keyboard-response","355","368666","0.0-1.0-479.0","0","0","22805","","null","","","null","53","","","","","","","","","","","","","","","",""
"","ISI","","html-keyboard-response","356","369668","0.0-1.0-480.0","0","0","22805","","null","","","null","53","NaN","","","","","","","","","","","","","","",""
"","S2","","html-keyboard-response","357","369921","0.0-1.0-481.0","0","0","22805","","null","","","null","53","","NaN","","","","","","","","","","","","","",""
"","response","","html-keyboard-response","358","370301","0.0-1.0-482.0-0.0","0","0","22805","","378","","","68","53","","","2","53","training","adjacent","EF","5","6","L.jpg","R.jpg","0","1","0","",""
"","feedback","","html-keyboard-response","359","371305","0.0-1.0-483.0-0.0","0","0","22805","","null","","","null","53","","","","","","","","","","","","","","","",""
"","time_out","","html-keyboard-response","360","373308","0.0-1.0-485.0-0.0","0","0","22805","","null","","","null","53","","","","","","","","","","","","","","","",""
"","ITI","","html-keyboard-response","361","374311","0.0-1.0-486.0","0","0","22805","","null","","","null","53","","","","","","","","","","","","","","","NaN",""
"","S1","","html-keyboard-response","362","374564","0.0-1.0-488.0","0","0","22805","","null","","","null","54","","","","","","","","","","","","","","","",""
"","ISI","","html-keyboard-response","363","375566","0.0-1.0-489.0","0","0","22805","","null","","","null","54","NaN","","","","","","","","","","","","","","",""
"","S2","","html-keyboard-response","364","375819","0.0-1.0-490.0","0","0","22805","","null","","","null","54","","NaN","","","","","","","","","","","","","",""
"","response","","html-keyboard-response","365","376165","0.0-1.0-491.0-0.0","0","0","22805","","344","","","68","54","","","2","54","training","adjacent","FG","6","7","R.jpg","P.jpg","0","1","0","",""
"","feedback","","html-keyboard-response","366","377169","0.0-1.0-492.0-0.0","0","0","22805","","null","","","null","54","","","","","","","","","","","","","","","",""
"","time_out","","html-keyboard-response","367","379173","0.0-1.0-494.0-0.0","0","0","22805","","null","","","null","54","","","","","","","","","","","","","","","",""
"","ITI","","html-keyboard-response","368","380176","0.0-1.0-495.0","0","0","22805","","null","","","null","54","","","","","","","","","","","","","","","NaN",""
"","S1","","html-keyboard-response","369","380429","0.0-1.0-497.0","0","0","22805","","null","","","null","55","","","","","","","","","","","","","","","",""
"","ISI","","html-keyboard-response","370","381432","0.0-1.0-498.0","0","0","22805","","null","","","null","55","NaN","","","","","","","","","","","","","","",""
"","S2","","html-keyboard-response","371","381685","0.0-1.0-499.0","0","0","22805","","null","","","null","55","","NaN","","","","","","","","","","","","","",""
"","response","","html-keyboard-response","372","381827","0.0-1.0-500.0-0.0","0","0","22805","","141","","","68","55","","","2","55","training","adjacent","BA","2","1","Q.jpg","N.jpg","0","0","1","",""
"","feedback","","html-keyboard-response","373","382831","0.0-1.0-501.0-0.0","0","0","22805","","null","","","null","55","","","","","","","","","","","","","","","",""
"","ITI","","html-keyboard-response","374","383834","0.0-1.0-504.0","0","0","22805","","null","","","null","55","","","","","","","","","","","","","","","NaN",""
"","S1","","html-keyboard-response","375","384086","0.0-1.0-506.0","0","0","22805","","null","","","null","56","","","","","","","","","","","","","","","",""
"","ISI","","html-keyboard-response","376","385090","0.0-1.0-507.0","0","0","22805","","null","","","null","56","NaN","","","","","","","","","","","","","","",""
"","S2","","html-keyboard-response","377","385343","0.0-1.0-508.0","0","0","22805","","null","","","null","56","","NaN","","","","","","","","","","","","","",""
"","response","","html-keyboard-response","378","385771","0.0-1.0-509.0-0.0","0","0","22805","","426","","","68","56","","","2","56","training","adjacent","CD","3","4","O.jpg","M.jpg","0","1","0","",""
"","feedback","","html-keyboard-response","379","386773","0.0-1.0-510.0-0.0","0","0","22805","","null","","","null","56","","","","","","","","","","","","","","","",""
"","time_out","","html-keyboard-response","380","388775","0.0-1.0-512.0-0.0","0","0","22805","","null","","","null","56","","","","","","","","","","","","","","","",""
"","ITI","","html-keyboard-response","381","389778","0.0-1.0-513.0","0","0","22805","","null","","","null","56","","","","","","","","","","","","","","","NaN",""
"","S1","","html-keyboard-response","382","390031","0.0-1.0-515.0","0","0","22805","","null","","","null","57","","","","","","","","","","","","","","","",""
"","ISI","","html-keyboard-response","383","391033","0.0-1.0-516.0","0","0","22805","","null","","","null","57","NaN","","","","","","","","","","","","","","",""
"","S2","","html-keyboard-response","384","391286","0.0-1.0-517.0","0","0","22805","","null","","","null","57","","NaN","","","","","","","","","","","","","",""
"","response","","html-keyboard-response","385","391548","0.0-1.0-518.0-0.0","0","0","22805","","261","","","68","57","","","2","57","training","adjacent","AB","1","2","N.jpg","Q.jpg","0","1","0","",""
"","feedback","","html-keyboard-response","386","392552","0.0-1.0-519.0-0.0","0","0","22805","","null","","","null","57","","","","","","","","","","","","","","","",""
"","time_out","","html-keyboard-response","387","394555","0.0-1.0-521.0-0.0","0","0","22805","","null","","","null","57","","","","","","","","","","","","","","","",""
"","ITI","","html-keyboard-response","388","395557","0.0-1.0-522.0","0","0","22805","","null","","","null","57","","","","","","","","","","","","","","","NaN",""
"","S1","","html-keyboard-response","389","395810","0.0-1.0-524.0","0","0","22805","","null","","","null","58","","","","","","","","","","","","","","","",""
"","ISI","","html-keyboard-response","390","396814","0.0-1.0-525.0","0","0","22805","","null","","","null","58","NaN","","","","","","","","","","","","","","",""
"","S2","","html-keyboard-response","391","397068","0.0-1.0-526.0","0","0","22805","","null","","","null","58","","NaN","","","","","","","","","","","","","",""
"","response","","html-keyboard-response","392","397230","0.0-1.0-527.0-0.0","0","0","22805","","159","","","75","58","","","2","58","training","adjacent","CB","3","2","O.jpg","Q.jpg","1","0","0","",""
"","feedback","","html-keyboard-response","393","398234","0.0-1.0-528.0-0.0","0","0","22805","","null","","","null","58","","","","","","","","","","","","","","","",""
"","time_out","","html-keyboard-response","394","400237","0.0-1.0-530.0-0.0","0","0","22805","","null","","","null","58","","","","","","","","","","","","","","","",""
"","ITI","","html-keyboard-response","395","401240","0.0-1.0-531.0","0","0","22805","","null","","","null","58","","","","","","","","","","","","","","","NaN",""
"","S1","","html-keyboard-response","396","401492","0.0-1.0-533.0","0","0","22805","","null","","","null","59","","","","","","","","","","","","","","","",""
"","ISI","","html-keyboard-response","397","402495","0.0-1.0-534.0","0","0","22805","","null","","","null","59","NaN","","","","","","","","","","","","","","",""
"","S2","","html-keyboard-response","398","402748","0.0-1.0-535.0","0","0","22805","","null","","","null","59","","NaN","","","","","","","","","","","","","",""
"","response","","html-keyboard-response","399","403292","0.0-1.0-536.0-0.0","0","0","22805","","542","","","68","59","","","2","59","training","adjacent","GF","7","6","P.jpg","R.jpg","0","0","1","",""
"","feedback","","html-keyboard-response","400","404295","0.0-1.0-537.0-0.0","0","0","22805","","null","","","null","59","","","","","","","","","","","","","","","",""
"","ITI","","html-keyboard-response","401","405299","0.0-1.0-540.0","0","0","22805","","null","","","null","59","","","","","","","","","","","","","","","NaN",""
"","S1","","html-keyboard-response","402","405551","0.0-1.0-542.0","0","0","22805","","null","","","null","60","","","","","","","","","","","","","","","",""
"","ISI","","html-keyboard-response","403","406552","0.0-1.0-543.0","0","0","22805","","null","","","null","60","NaN","","","","","","","","","","","","","","",""
"","S2","","html-keyboard-response","404","406806","0.0-1.0-544.0","0","0","22805","","null","","","null","60","","NaN","","","","","","","","","","","","","",""
"","response","","html-keyboard-response","405","407347","0.0-1.0-545.0-0.0","0","0","22805","","540","","","68","60","","","2","60","training","adjacent","EF","5","6","L.jpg","R.jpg","0","1","0","",""
"","feedback","","html-keyboard-response","406","408350","0.0-1.0-546.0-0.0","0","0","22805","","null","","","null","60","","","","","","","","","","","","","","","",""
"","time_out","","html-keyboard-response","407","410352","0.0-1.0-548.0-0.0","0","0","22805","","null","","","null","60","","","","","","","","","","","","","","","",""
"","ITI","","html-keyboard-response","408","411355","0.0-1.0-549.0","0","0","22805","","null","","","null","60","","","","","","","","","","","","","","","NaN",""
"","S1","","html-keyboard-response","409","411609","0.0-1.0-551.0","0","0","22805","","null","","","null","61","","","","","","","","","","","","","","","",""
"","ISI","","html-keyboard-response","410","412613","0.0-1.0-552.0","0","0","22805","","null","","","null","61","NaN","","","","","","","","","","","","","","",""
"","S2","","html-keyboard-response","411","412867","0.0-1.0-553.0","0","0","22805","","null","","","null","61","","NaN","","","","","","","","","","","","","",""
"","response","","html-keyboard-response","412","413147","0.0-1.0-554.0-0.0","0","0","22805","","279","","","68","61","","","2","61","training","adjacent","GF","7","6","P.jpg","R.jpg","0","0","1","",""
"","feedback","","html-keyboard-response","413","414150","0.0-1.0-555.0-0.0","0","0","22805","","null","","","null","61","","","","","","","","","","","","","","","",""
"","ITI","","html-keyboard-response","414","415152","0.0-1.0-558.0","0","0","22805","","null","","","null","61","","","","","","","","","","","","","","","NaN",""
"","S1","","html-keyboard-response","415","415406","0.0-1.0-560.0","0","0","22805","","null","","","null","62","","","","","","","","","","","","","","","",""
"","ISI","","html-keyboard-response","416","416409","0.0-1.0-561.0","0","0","22805","","null","","","null","62","NaN","","","","","","","","","","","","","","",""
"","S2","","html-keyboard-response","417","416663","0.0-1.0-562.0","0","0","22805","","null","","","null","62","","NaN","","","","","","","","","","","","","",""
"","response","","html-keyboard-response","418","417516","0.0-1.0-563.0-0.0","0","0","22805","","851","","","68","62","","","2","62","training","adjacent","GF","7","6","P.jpg","R.jpg","0","0","1","",""
"","feedback","","html-keyboard-response","419","418520","0.0-1.0-564.0-0.0","0","0","22805","","null","","","null","62","","","","","","","","","","","","","","","",""
"","ITI","","html-keyboard-response","420","419523","0.0-1.0-567.0","0","0","22805","","null","","","null","62","","","","","","","","","","","","","","","NaN",""
"","S1","","html-keyboard-response","421","419775","0.0-1.0-569.0","0","0","22805","","null","","","null","63","","","","","","","","","","","","","","","",""
"","ISI","","html-keyboard-response","422","420778","0.0-1.0-570.0","0","0","22805","","null","","","null","63","NaN","","","","","","","","","","","","","","",""
"","S2","","html-keyboard-response","423","421031","0.0-1.0-571.0","0","0","22805","","null","","","null","63","","NaN","","","","","","","","","","","","","",""
"","response","","html-keyboard-response","424","421387","0.0-1.0-572.0-0.0","0","0","22805","","354","","","68","63","","","2","63","training","adjacent","BA","2","1","Q.jpg","N.jpg","0","0","1","",""
"","feedback","","html-keyboard-response","425","422391","0.0-1.0-573.0-0.0","0","0","22805","","null","","","null","63","","","","","","","","","","","","","","","",""
"","ITI","","html-keyboard-response","426","423395","0.0-1.0-576.0","0","0","22805","","null","","","null","63","","","","","","","","","","","","","","","NaN",""
"","S1","","html-keyboard-response","427","423648","0.0-1.0-578.0","0","0","22805","","null","","","null","64","","","","","","","","","","","","","","","",""
"","ISI","","html-keyboard-response","428","424651","0.0-1.0-579.0","0","0","22805","","null","","","null","64","NaN","","","","","","","","","","","","","","",""
"","S2","","html-keyboard-response","429","424903","0.0-1.0-580.0","0","0","22805","","null","","","null","64","","NaN","","","","","","","","","","","","","",""
"","response","","html-keyboard-response","430","425396","0.0-1.0-581.0-0.0","0","0","22805","","490","","","68","64","","","2","64","training","adjacent","DC","4","3","M.jpg","O.jpg","0","0","1","",""
"","feedback","","html-keyboard-response","431","426399","0.0-1.0-582.0-0.0","0","0","22805","","null","","","null","64","","","","","","","","","","","","","","","",""
"","ITI","","html-keyboard-response","432","427401","0.0-1.0-585.0","0","0","22805","","null","","","null","64","","","","","","","","","","","","","","","NaN",""
"","S1","","html-keyboard-response","433","427653","0.0-1.0-587.0","0","0","22805","","null","","","null","65","","","","","","","","","","","","","","","",""
"","ISI","","html-keyboard-response","434","428657","0.0-1.0-588.0","0","0","22805","","null","","","null","65","NaN","","","","","","","","","","","","","","",""
"","S2","","html-keyboard-response","435","428910","0.0-1.0-589.0","0","0","22805","","null","","","null","65","","NaN","","","","","","","","","","","","","",""
"","response","","html-keyboard-response","436","429179","0.0-1.0-590.0-0.0","0","0","22805","","267","","","75","65","","","2","65","training","adjacent","FE","6","5","R.jpg","L.jpg","1","0","0","",""
"","feedback","","html-keyboard-response","437","430182","0.0-1.0-591.0-0.0","0","0","22805","","null","","","null","65","","","","","","","","","","","","","","","",""
"","time_out","","html-keyboard-response","438","432185","0.0-1.0-593.0-0.0","0","0","22805","","null","","","null","65","","","","","","","","","","","","","","","",""
"","ITI","","html-keyboard-response","439","433190","0.0-1.0-594.0","0","0","22805","","null","","","null","65","","","","","","","","","","","","","","","NaN",""
"","S1","","html-keyboard-response","440","433443","0.0-1.0-596.0","0","0","22805","","null","","","null","66","","","","","","","","","","","","","","","",""
"","ISI","","html-keyboard-response","441","434445","0.0-1.0-597.0","0","0","22805","","null","","","null","66","NaN","","","","","","","","","","","","","","",""
"","S2","","html-keyboard-response","442","434699","0.0-1.0-598.0","0","0","22805","","null","","","null","66","","NaN","","","","","","","","","","","","","",""
"","response","","html-keyboard-response","443","434790","0.0-1.0-599.0-0.0","0","0","22805","","87","","","75","66","","","2","66","training","adjacent","DE","4","5","M.jpg","L.jpg","1","1","1","",""
"","feedback","","html-keyboard-response","444","435794","0.0-1.0-600.0-0.0","0","0","22805","","null","","","null","66","","","","","","","","","","","","","","","",""
"","ITI","","html-keyboard-response","445","436797","0.0-1.0-603.0","0","0","22805","","null","","","null","66","","","","","","","","","","","","","","","NaN",""
"","S1","","html-keyboard-response","446","437050","0.0-1.0-605.0","0","0","22805","","null","","","null","67","","","","","","","","","","","","","","","",""
"","ISI","","html-keyboard-response","447","438053","0.0-1.0-606.0","0","0","22805","","null","","","null","67","NaN","","","","","","","","","","","","","","",""
"","S2","","html-keyboard-response","448","438306","0.0-1.0-607.0","0","0","22805","","null","","","null","67","","NaN","","","","","","","","","","","","","",""
"","response","","html-keyboard-response","449","438557","0.0-1.0-608.0-0.0","0","0","22805","","247","","","75","67","","","2","67","training","adjacent","CD","3","4","O.jpg","M.jpg","1","1","1","",""
"","feedback","","html-keyboard-response","450","439560","0.0-1.0-609.0-0.0","0","0","22805","","null","","","null","67","","","","","","","","","","","","","","","",""
"","ITI","","html-keyboard-response","451","440563","0.0-1.0-612.0","0","0","22805","","null","","","null","67","","","","","","","","","","","","","","","NaN",""
"","S1","","html-keyboard-response","452","440815","0.0-1.0-614.0","0","0","22805","","null","","","null","68","","","","","","","","","","","","","","","",""
"","ISI","","html-keyboard-response","453","441818","0.0-1.0-615.0","0","0","22805","","null","","","null","68","NaN","","","","","","","","","","","","","","",""
"","S2","","html-keyboard-response","454","442071","0.0-1.0-616.0","0","0","22805","","null","","","null","68","","NaN","","","","","","","","","","","","","",""
"","response","","html-keyboard-response","455","442492","0.0-1.0-617.0-0.0","0","0","22805","","418","","","75","68","","","2","68","training","adjacent","BA","2","1","Q.jpg","N.jpg","1","0","0","",""
"","feedback","","html-keyboard-response","456","443496","0.0-1.0-618.0-0.0","0","0","22805","","null","","","null","68","","","","","","","","","","","","","","","",""
"","time_out","","html-keyboard-response","457","445498","0.0-1.0-620.0-0.0","0","0","22805","","null","","","null","68","","","","","","","","","","","","","","","",""
"","ITI","","html-keyboard-response","458","446500","0.0-1.0-621.0","0","0","22805","","null","","","null","68","","","","","","","","","","","","","","","NaN",""
"","S1","","html-keyboard-response","459","446753","0.0-1.0-623.0","0","0","22805","","null","","","null","69","","","","","","","","","","","","","","","",""
"","ISI","","html-keyboard-response","460","447756","0.0-1.0-624.0","0","0","22805","","null","","","null","69","NaN","","","","","","","","","","","","","","",""
"","S2","","html-keyboard-response","461","448010","0.0-1.0-625.0","0","0","22805","","null","","","null","69","","NaN","","","","","","","","","","","","","",""
"","response","","html-keyboard-response","462","448331","0.0-1.0-626.0-0.0","0","0","22805","","320","","","75","69","","","2","69","training","adjacent","EF","5","6","L.jpg","R.jpg","1","1","1","",""
"","feedback","","html-keyboard-response","463","449333","0.0-1.0-627.0-0.0","0","0","22805","","null","","","null","69","","","","","","","","","","","","","","","",""
"","ITI","","html-keyboard-response","464","450338","0.0-1.0-630.0","0","0","22805","","null","","","null","69","","","","","","","","","","","","","","","NaN",""
"","S1","","html-keyboard-response","465","450591","0.0-1.0-632.0","0","0","22805","","null","","","null","70","","","","","","","","","","","","","","","",""
"","ISI","","html-keyboard-response","466","451594","0.0-1.0-633.0","0","0","22805","","null","","","null","70","NaN","","","","","","","","","","","","","","",""
"","S2","","html-keyboard-response","467","451848","0.0-1.0-634.0","0","0","22805","","null","","","null","70","","NaN","","","","","","","","","","","","","",""
"","response","","html-keyboard-response","468","452395","0.0-1.0-635.0-0.0","0","0","22805","","546","","","75","70","","","2","70","training","adjacent","FE","6","5","R.jpg","L.jpg","1","0","0","",""
"","feedback","","html-keyboard-response","469","453398","0.0-1.0-636.0-0.0","0","0","22805","","null","","","null","70","","","","","","","","","","","","","","","",""
"","time_out","","html-keyboard-response","470","455401","0.0-1.0-638.0-0.0","0","0","22805","","null","","","null","70","","","","","","","","","","","","","","","",""
"","ITI","","html-keyboard-response","471","456402","0.0-1.0-639.0","0","0","22805","","null","","","null","70","","","","","","","","","","","","","","","NaN",""
"","S1","","html-keyboard-response","472","456655","0.0-1.0-641.0","0","0","22805","","null","","","null","71","","","","","","","","","","","","","","","",""
"","ISI","","html-keyboard-response","473","457659","0.0-1.0-642.0","0","0","22805","","null","","","null","71","NaN","","","","","","","","","","","","","","",""
"","S2","","html-keyboard-response","474","457913","0.0-1.0-643.0","0","0","22805","","null","","","null","71","","NaN","","","","","","","","","","","","","",""
"","response","","html-keyboard-response","475","458235","0.0-1.0-644.0-0.0","0","0","22805","","320","","","75","71","","","2","71","training","adjacent","FE","6","5","R.jpg","L.jpg","1","0","0","",""
"","feedback","","html-keyboard-response","476","459237","0.0-1.0-645.0-0.0","0","0","22805","","null","","","null","71","","","","","","","","","","","","","","","",""
"","time_out","","html-keyboard-response","477","461240","0.0-1.0-647.0-0.0","0","0","22805","","null","","","null","71","","","","","","","","","","","","","","","",""
"","ITI","","html-keyboard-response","478","462243","0.0-1.0-648.0","0","0","22805","","null","","","null","71","","","","","","","","","","","","","","","NaN",""
"","S1","","html-keyboard-response","479","462497","0.0-1.0-650.0","0","0","22805","","null","","","null","72","","","","","","","","","","","","","","","",""
"","ISI","","html-keyboard-response","480","463499","0.0-1.0-651.0","0","0","22805","","null","","","null","72","NaN","","","","","","","","","","","","","","",""
"","S2","","html-keyboard-response","481","463752","0.0-1.0-652.0","0","0","22805","","null","","","null","72","","NaN","","","","","","","","","","","","","",""
"","response","","html-keyboard-response","482","464117","0.0-1.0-653.0-0.0","0","0","22805","","363","","","68","72","","","2","72","training","adjacent","GF","7","6","P.jpg","R.jpg","0","0","1","",""
"","feedback","","html-keyboard-response","483","465121","0.0-1.0-654.0-0.0","0","0","22805","","null","","","null","72","","","","","","","","","","","","","","","",""
"","ITI","","html-keyboard-response","484","466125","0.0-1.0-657.0","0","0","22805","","null","","","null","72","","","","","","","","","","","","","","","NaN",""
"","S1","","html-keyboard-response","485","466379","0.0-1.0-659.0","0","0","22805","","null","","","null","73","","","","","","","","","","","","","","","",""
"","ISI","","html-keyboard-response","486","467380","0.0-1.0-660.0","0","0","22805","","null","","","null","73","NaN","","","","","","","","","","","","","","",""
"","S2","","html-keyboard-response","487","467633","0.0-1.0-661.0","0","0","22805","","null","","","null","73","","NaN","","","","","","","","","","","","","",""
"","response","","html-keyboard-response","488","468021","0.0-1.0-662.0-0.0","0","0","22805","","385","","","68","73","","","2","73","training","adjacent","CB","3","2","O.jpg","Q.jpg","0","0","1","",""
"","feedback","","html-keyboard-response","489","469024","0.0-1.0-663.0-0.0","0","0","22805","","null","","","null","73","","","","","","","","","","","","","","","",""
"","ITI","","html-keyboard-response","490","470029","0.0-1.0-666.0","0","0","22805","","null","","","null","73","","","","","","","","","","","","","","","NaN",""
"","S1","","html-keyboard-response","491","470283","0.0-1.0-668.0","0","0","22805","","null","","","null","74","","","","","","","","","","","","","","","",""
"","ISI","","html-keyboard-response","492","471286","0.0-1.0-669.0","0","0","22805","","null","","","null","74","NaN","","","","","","","","","","","","","","",""
"","S2","","html-keyboard-response","493","471539","0.0-1.0-670.0","0","0","22805","","null","","","null","74","","NaN","","","","","","","","","","","","","",""
"","response","","html-keyboard-response","494","472084","0.0-1.0-671.0-0.0","0","0","22805","","543","","","68","74","","","2","74","training","adjacent","CD","3","4","O.jpg","M.jpg","0","1","0","",""
"","feedback","","html-keyboard-response","495","473086","0.0-1.0-672.0-0.0","0","0","22805","","null","","","null","74","","","","","","","","","","","","","","","",""
"","time_out","","html-keyboard-response","496","475089","0.0-1.0-674.0-0.0","0","0","22805","","null","","","null","74","","","","","","","","","","","","","","","",""
"","ITI","","html-keyboard-response","497","476093","0.0-1.0-675.0","0","0","22805","","null","","","null","74","","","","","","","","","","","","","","","NaN",""
"","S1","","html-keyboard-response","498","476351","0.0-1.0-677.0","0","0","22805","","null","","","null","75","","","","","","","","","","","","","","","",""
"","ISI","","html-keyboard-response","499","477354","0.0-1.0-678.0","0","0","22805","","null","","","null","75","NaN","","","","","","","","","","","","","","",""
"","S2","","html-keyboard-response","500","477609","0.0-1.0-679.0","0","0","22805","","null","","","null","75","","NaN","","","","","","","","","","","","","",""
"","response","","html-keyboard-response","501","477971","0.0-1.0-680.0-0.0","0","0","22805","","360","","","75","75","","","2","75","training","adjacent","AB","1","2","N.jpg","Q.jpg","1","1","1","",""
"","feedback","","html-keyboard-response","502","478975","0.0-1.0-681.0-0.0","0","0","22805","","null","","","null","75","","","","","","","","","","","","","","","",""
"","ITI","","html-keyboard-response","503","479978","0.0-1.0-684.0","0","0","22805","","null","","","null","75","","","","","","","","","","","","","","","NaN",""
"","S1","","html-keyboard-response","504","480231","0.0-1.0-686.0","0","0","22805","","null","","","null","76","","","","","","","","","","","","","","","",""
"","ISI","","html-keyboard-response","505","481233","0.0-1.0-687.0","0","0","22805","","475","","","75","76","k","","","","","","","","","","","","","","",""
"","S2","","html-keyboard-response","506","481486","0.0-1.0-688.0","0","0","22805","","null","","","null","76","","NaN","","","","","","","","","","","","","",""
"","response","","html-keyboard-response","507","481819","0.0-1.0-689.0-0.0","0","0","22805","","331","","","75","76","","","2","76","training","adjacent","BC","2","3","Q.jpg","O.jpg","1","1","1","",""
"","feedback","","html-keyboard-response","508","482822","0.0-1.0-690.0-0.0","0","0","22805","","null","","","null","76","","","","","","","","","","","","","","","",""
"","ITI","","html-keyboard-response","509","483825","0.0-1.0-693.0","0","0","22805","","null","","","null","76","","","","","","","","","","","","","","","NaN",""
"","S1","","html-keyboard-response","510","484078","0.0-1.0-695.0","0","0","22805","","null","","","null","77","","","","","","","","","","","","","","","",""
"","ISI","","html-keyboard-response","511","485082","0.0-1.0-696.0","0","0","22805","","null","","","null","77","NaN","","","","","","","","","","","","","","",""
"","S2","","html-keyboard-response","512","485336","0.0-1.0-697.0","0","0","22805","","null","","","null","77","","NaN","","","","","","","","","","","","","",""
"","response","","html-keyboard-response","513","485780","0.0-1.0-698.0-0.0","0","0","22805","","441","","","75","77","","","2","77","training","adjacent","DC","4","3","M.jpg","O.jpg","1","0","0","",""
"","feedback","","html-keyboard-response","514","486783","0.0-1.0-699.0-0.0","0","0","22805","","null","","","null","77","","","","","","","","","","","","","","","",""
"","time_out","","html-keyboard-response","515","488785","0.0-1.0-701.0-0.0","0","0","22805","","null","","","null","77","","","","","","","","","","","","","","","",""
"","ITI","","html-keyboard-response","516","489787","0.0-1.0-702.0","0","0","22805","","null","","","null","77","","","","","","","","","","","","","","","NaN",""
"","S1","","html-keyboard-response","517","490040","0.0-1.0-704.0","0","0","22805","","null","","","null","78","","","","","","","","","","","","","","","",""
"","ISI","","html-keyboard-response","518","491044","0.0-1.0-705.0","0","0","22805","","610","","","68","78","d","","","","","","","","","","","","","","",""
"","S2","","html-keyboard-response","519","491297","0.0-1.0-706.0","0","0","22805","","null","","","null","78","","NaN","","","","","","","","","","","","","",""
"","response","","html-keyboard-response","520","491436","0.0-1.0-707.0-0.0","0","0","22805","","136","","","68","78","","","2","78","training","adjacent","AB","1","2","N.jpg","Q.jpg","0","1","0","",""
"","feedback","","html-keyboard-response","521","492440","0.0-1.0-708.0-0.0","0","0","22805","","null","","","null","78","","","","","","","","","","","","","","","",""
"","time_out","","html-keyboard-response","522","494444","0.0-1.0-710.0-0.0","0","0","22805","","null","","","null","78","","","","","","","","","","","","","","","",""
"","ITI","","html-keyboard-response","523","495446","0.0-1.0-711.0","0","0","22805","","null","","","null","78","","","","","","","","","","","","","","","NaN",""
"","S1","","html-keyboard-response","524","495699","0.0-1.0-713.0","0","0","22805","","null","","","null","79","","","","","","","","","","","","","","","",""
"","ISI","","html-keyboard-response","525","496703","0.0-1.0-714.0","0","0","22805","","null","","","null","79","NaN","","","","","","","","","","","","","","",""
"","S2","","html-keyboard-response","526","496957","0.0-1.0-715.0","0","0","22805","","null","","","null","79","","NaN","","","","","","","","","","","","","",""
"","response","","html-keyboard-response","527","497469","0.0-1.0-716.0-0.0","0","0","22805","","510","","","68","79","","","2","79","training","adjacent","ED","5","4","L.jpg","M.jpg","0","0","1","",""
"","feedback","","html-keyboard-response","528","498473","0.0-1.0-717.0-0.0","0","0","22805","","null","","","null","79","","","","","","","","","","","","","","","",""
"","ITI","","html-keyboard-response","529","499477","0.0-1.0-720.0","0","0","22805","","null","","","null","79","","","","","","","","","","","","","","","NaN",""
"","S1","","html-keyboard-response","530","499731","0.0-1.0-722.0","0","0","22805","","null","","","null","80","","","","","","","","","","","","","","","",""
"","ISI","","html-keyboard-response","531","500736","0.0-1.0-723.0","0","0","22805","","null","","","null","80","NaN","","","","","","","","","","","","","","",""
"","S2","","html-keyboard-response","532","500989","0.0-1.0-724.0","0","0","22805","","null","","","null","80","","NaN","","","","","","","","","","","","","",""
"","response","","html-keyboard-response","533","501277","0.0-1.0-725.0-0.0","0","0","22805","","286","","","68","80","","","2","80","training","adjacent","BC","2","3","Q.jpg","O.jpg","0","1","0","",""
"","feedback","","html-keyboard-response","534","502281","0.0-1.0-726.0-0.0","0","0","22805","","null","","","null","80","","","","","","","","","","","","","","","",""
"","time_out","","html-keyboard-response","535","504286","0.0-1.0-728.0-0.0","0","0","22805","","null","","","null","80","","","","","","","","","","","","","","","",""
"","ITI","","html-keyboard-response","536","505289","0.0-1.0-729.0","0","0","22805","","null","","","null","80","","","","","","","","","","","","","","","NaN",""
"","S1","","html-keyboard-response","537","505544","0.0-1.0-731.0","0","0","22805","","null","","","null","81","","","","","","","","","","","","","","","",""
"","ISI","","html-keyboard-response","538","506547","0.0-1.0-732.0","0","0","22805","","null","","","null","81","NaN","","","","","","","","","","","","","","",""
"","S2","","html-keyboard-response","539","506800","0.0-1.0-733.0","0","0","22805","","null","","","null","81","","NaN","","","","","","","","","","","","","",""
"","response","","html-keyboard-response","540","506851","0.0-1.0-734.0-0.0","0","0","22805","","50","","","68","81","","","2","81","training","adjacent","FG","6","7","R.jpg","P.jpg","0","1","0","",""
"","feedback","","html-keyboard-response","541","507854","0.0-1.0-735.0-0.0","0","0","22805","","null","","","null","81","","","","","","","","","","","","","","","",""
"","time_out","","html-keyboard-response","542","509868","0.0-1.0-737.0-0.0","0","0","22805","","null","","","null","81","","","","","","","","","","","","","","","",""
"","ITI","","html-keyboard-response","543","510870","0.0-1.0-738.0","0","0","22805","","null","","","null","81","","","","","","","","","","","","","","","NaN",""
"","S1","","html-keyboard-response","544","511123","0.0-1.0-740.0","0","0","22805","","null","","","null","82","","","","","","","","","","","","","","","",""
"","ISI","","html-keyboard-response","545","512126","0.0-1.0-741.0","0","0","22805","","null","","","null","82","NaN","","","","","","","","","","","","","","",""
"","S2","","html-keyboard-response","546","512378","0.0-1.0-742.0","0","0","22805","","null","","","null","82","","NaN","","","","","","","","","","","","","",""
"","response","","html-keyboard-response","547","512733","0.0-1.0-743.0-0.0","0","0","22805","","351","","","68","82","","","2","82","training","adjacent","DE","4","5","M.jpg","L.jpg","0","1","0","",""
"","feedback","","html-keyboard-response","548","513738","0.0-1.0-744.0-0.0","0","0","22805","","null","","","null","82","","","","","","","","","","","","","","","",""
"","time_out","","html-keyboard-response","549","515740","0.0-1.0-746.0-0.0","0","0","22805","","null","","","null","82","","","","","","","","","","","","","","","",""
"","ITI","","html-keyboard-response","550","516742","0.0-1.0-747.0","0","0","22805","","null","","","null","82","","","","","","","","","","","","","","","NaN",""
"","S1","","html-keyboard-response","551","516997","0.0-1.0-749.0","0","0","22805","","null","","","null","83","","","","","","","","","","","","","","","",""
"","ISI","","html-keyboard-response","552","518001","0.0-1.0-750.0","0","0","22805","","null","","","null","83","NaN","","","","","","","","","","","","","","",""
"","S2","","html-keyboard-response","553","518254","0.0-1.0-751.0","0","0","22805","","null","","","null","83","","NaN","","","","","","","","","","","","","",""
"","response","","html-keyboard-response","554","518540","0.0-1.0-752.0-0.0","0","0","22805","","283","","","75","83","","","2","83","training","adjacent","DE","4","5","M.jpg","L.jpg","1","1","1","",""
"","feedback","","html-keyboard-response","555","519545","0.0-1.0-753.0-0.0","0","0","22805","","null","","","null","83","","","","","","","","","","","","","","","",""
"","ITI","","html-keyboard-response","556","520549","0.0-1.0-756.0","0","0","22805","","null","","","null","83","","","","","","","","","","","","","","","NaN",""
"","S1","","html-keyboard-response","557","520802","0.0-1.0-758.0","0","0","22805","","null","","","null","84","","","","","","","","","","","","","","","",""
"","ISI","","html-keyboard-response","558","521805","0.0-1.0-759.0","0","0","22805","","null","","","null","84","NaN","","","","","","","","","","","","","","",""
"","S2","","html-keyboard-response","559","522060","0.0-1.0-760.0","0","0","22805","","null","","","null","84","","NaN","","","","","","","","","","","","","",""
"","response","","html-keyboard-response","560","522493","0.0-1.0-761.0-0.0","0","0","22805","","430","","","75","84","","","2","84","training","adjacent","DC","4","3","M.jpg","O.jpg","1","0","0","",""
"","feedback","","html-keyboard-response","561","523497","0.0-1.0-762.0-0.0","0","0","22805","","null","","","null","84","","","","","","","","","","","","","","","",""
"","time_out","","html-keyboard-response","562","525501","0.0-1.0-764.0-0.0","0","0","22805","","null","","","null","84","","","","","","","","","","","","","","","",""
"","ITI","","html-keyboard-response","563","526503","0.0-1.0-765.0","0","0","22805","","null","","","null","84","","","","","","","","","","","","","","","NaN",""
"","S1","","html-keyboard-response","564","526757","0.0-1.0-767.0","0","0","22805","","null","","","null","85","","","","","","","","","","","","","","","",""
"","ISI","","html-keyboard-response","565","527761","0.0-1.0-768.0","0","0","22805","","null","","","null","85","NaN","","","","","","","","","","","","","","",""
"","S2","","html-keyboard-response","566","528013","0.0-1.0-769.0","0","0","22805","","null","","","null","85","","NaN","","","","","","","","","","","","","",""
"","response","","html-keyboard-response","567","528275","0.0-1.0-770.0-0.0","0","0","22805","","260","","","75","85","","","2","85","training","adjacent","BC","2","3","Q.jpg","O.jpg","1","1","1","",""
"","feedback","","html-keyboard-response","568","529279","0.0-1.0-771.0-0.0","0","0","22805","","null","","","null","85","","","","","","","","","","","","","","","",""
"","ITI","","html-keyboard-response","569","530281","0.0-1.0-774.0","0","0","22805","","null","","","null","85","","","","","","","","","","","","","","","NaN",""
"","S1","","html-keyboard-response","570","530533","0.0-1.0-776.0","0","0","22805","","null","","","null","86","","","","","","","","","","","","","","","",""
"","ISI","","html-keyboard-response","571","531535","0.0-1.0-777.0","0","0","22805","","null","","","null","86","NaN","","","","","","","","","","","","","","",""
"","S2","","html-keyboard-response","572","531790","0.0-1.0-778.0","0","0","22805","","null","","","null","86","","NaN","","","","","","","","","","","","","",""
"","response","","html-keyboard-response","573","532084","0.0-1.0-779.0-0.0","0","0","22805","","292","","","75","86","","","2","86","training","adjacent","AB","1","2","N.jpg","Q.jpg","1","1","1","",""
"","feedback","","html-keyboard-response","574","533088","0.0-1.0-780.0-0.0","0","0","22805","","null","","","null","86","","","","","","","","","","","","","","","",""
"","ITI","","html-keyboard-response","575","534094","0.0-1.0-783.0","0","0","22805","","null","","","null","86","","","","","","","","","","","","","","","NaN",""
"","S1","","html-keyboard-response","576","534352","0.0-1.0-785.0","0","0","22805","","null","","","null","87","","","","","","","","","","","","","","","",""
"","ISI","","html-keyboard-response","577","535356","0.0-1.0-786.0","0","0","22805","","null","","","null","87","NaN","","","","","","","","","","","","","","",""
"","S2","","html-keyboard-response","578","535610","0.0-1.0-787.0","0","0","22805","","null","","","null","87","","NaN","","","","","","","","","","","","","",""
"","response","","html-keyboard-response","579","535868","0.0-1.0-788.0-0.0","0","0","22805","","256","","","75","87","","","2","87","training","adjacent","EF","5","6","L.jpg","R.jpg","1","1","1","",""
"","feedback","","html-keyboard-response","580","536870","0.0-1.0-789.0-0.0","0","0","22805","","null","","","null","87","","","","","","","","","","","","","","","",""
