"success","ttype","start_time","trial_type","trial_index","time_elapsed","internal_node_id","warning","missed_checkup","PID","view_history","rt","responses","repeat_instructions","key_press","index","keypress_isi","keypress_S2","block","trial_num","phase","group_type","pair_type","S1_stim","S2_stim","S1_img","S2_img","S1_chosen","S1_higher","accuracy","keypress_iti","total_bonus_tally"
"true","full_screen","d08032022hr2056","fullscreen","0","15758","0.0-0.0","0","0","91505","","","","","","","","","","","","","","","","","","","","","",""
"","instructions","","instructions","1","85928","0.0-1.0-0.0-0.0","0","0","91505","[{""page_index"":0,""viewing_time"":7405},{""page_index"":1,""viewing_time"":33445},{""page_index"":2,""viewing_time"":12906},{""page_index"":1,""viewing_time"":6074},{""page_index"":2,""viewing_time"":7538},{""page_index"":3,""viewing_time"":2791}]","70162","","","","","","","","","","","","","","","","","","","",""
"","comprehension_check","","survey-multi-choice","2","127055","0.0-1.0-0.0-1.0","0","0","91505","","41107","{""Q0"":""True"",""Q1"":""K"",""Q2"":""Only when the screen 'MAKE A CHOICE' is shown"",""Q3"":""Green mark"",""Q4"":""either D or K""}","1","","","","","","","","","","","","","","","","","",""
"","missed_instruction_checkup","","html-keyboard-response","3","129635","0.0-1.0-0.0-2.0-0.0","0","1","91505","","2566","","","32","","","","","","","","","","","","","","","","",""
"","instructions","","instructions","4","148856","0.0-1.0-0.1-0.1","0","0","91505","[{""page_index"":0,""viewing_time"":5383},{""page_index"":1,""viewing_time"":9395},{""page_index"":2,""viewing_time"":2621},{""page_index"":3,""viewing_time"":1810}]","19211","","","","","","","","","","","","","","","","","","","",""
"","comprehension_check","","survey-multi-choice","5","169969","0.0-1.0-0.1-1.1","0","0","91505","","21087","{""Q0"":""True"",""Q1"":""K"",""Q2"":""Once the second image appears and while the screen 'MAKE A CHOICE' is shown"",""Q3"":""Green mark"",""Q4"":""either D or K""}","0","","","","","","","","","","","","","","","","","",""
"","start_exp","","html-keyboard-response","6","171653","0.0-1.0-1.0","0","0","91505","","1673","","","32","","","","","","","","","","","","","","","","",""
"","S1","","html-keyboard-response","7","171916","0.0-1.0-2.0","0","0","91505","","null","","","null","0","","","","","","","","","","","","","","","",""
"","ISI","","html-keyboard-response","8","173930","0.0-1.0-3.0","0","0","91505","","null","","","null","0","NaN","","","","","","","","","","","","","","",""
"","S2","","html-keyboard-response","9","174189","0.0-1.0-4.0","0","0","91505","","null","","","null","0","","NaN","","","","","","","","","","","","","",""
"","response","","html-keyboard-response","10","175949","0.0-1.0-5.0-0.0","0","0","91505","","null","","","null","0","","","1","0","training","adjacent","CB","3","2","Q.jpg","N.jpg","NaN","0","0","",""
"","too_slow_prompt","","html-keyboard-response","11","176960","0.0-1.0-7.0-0.0","1","0","91505","","null","","","null","","","","","","","","","","","","","","","","",""
"","time_out","","html-keyboard-response","12","178974","0.0-1.0-8.0-0.0","0","0","91505","","null","","","null","0","","","","","","","","","","","","","","","",""
"","ITI","","html-keyboard-response","13","179982","0.0-1.0-9.0","0","0","91505","","null","","","null","0","","","","","","","","","","","","","","","NaN",""
"","S1","","html-keyboard-response","14","180243","0.0-1.0-11.0","0","0","91505","","null","","","null","1","","","","","","","","","","","","","","","",""
"","ISI","","html-keyboard-response","15","182255","0.0-1.0-12.0","0","0","91505","","null","","","null","1","NaN","","","","","","","","","","","","","","",""
"","S2","","html-keyboard-response","16","182519","0.0-1.0-13.0","0","0","91505","","null","","","null","1","","NaN","","","","","","","","","","","","","",""
"","response","","html-keyboard-response","17","183112","0.0-1.0-14.0-0.0","0","0","91505","","585","","","75","1","","","1","1","training","adjacent","FG","6","7","R.jpg","M.jpg","1","1","1","",""
"","feedback","","html-keyboard-response","18","184123","0.0-1.0-15.0-0.0","0","0","91505","","null","","","null","1","","","","","","","","","","","","","","","",""
"","ITI","","html-keyboard-response","19","185138","0.0-1.0-18.0","0","0","91505","","null","","","null","1","","","","","","","","","","","","","","","NaN",""
"","S1","","html-keyboard-response","20","185403","0.0-1.0-20.0","0","0","91505","","null","","","null","2","","","","","","","","","","","","","","","",""
"","ISI","","html-keyboard-response","21","187413","0.0-1.0-21.0","0","0","91505","","null","","","null","2","NaN","","","","","","","","","","","","","","",""
"","S2","","html-keyboard-response","22","187674","0.0-1.0-22.0","0","0","91505","","null","","","null","2","","NaN","","","","","","","","","","","","","",""
"","response","","html-keyboard-response","23","188123","0.0-1.0-23.0-0.0","0","0","91505","","436","","","68","2","","","1","2","training","adjacent","GF","7","6","M.jpg","R.jpg","0","0","1","",""
"","feedback","","html-keyboard-response","24","189135","0.0-1.0-24.0-0.0","0","0","91505","","null","","","null","2","","","","","","","","","","","","","","","",""
"","ITI","","html-keyboard-response","25","190149","0.0-1.0-27.0","0","0","91505","","null","","","null","2","","","","","","","","","","","","","","","NaN",""
"","S1","","html-keyboard-response","26","190413","0.0-1.0-29.0","0","0","91505","","null","","","null","3","","","","","","","","","","","","","","","",""
"","ISI","","html-keyboard-response","27","192427","0.0-1.0-30.0","0","0","91505","","null","","","null","3","NaN","","","","","","","","","","","","","","",""
"","S2","","html-keyboard-response","28","192687","0.0-1.0-31.0","0","0","91505","","null","","","null","3","","NaN","","","","","","","","","","","","","",""
"","response","","html-keyboard-response","29","193674","0.0-1.0-32.0-0.0","0","0","91505","","977","","","68","3","","","1","3","training","adjacent","BA","2","1","N.jpg","P.jpg","0","0","1","",""
"","feedback","","html-keyboard-response","30","194687","0.0-1.0-33.0-0.0","0","0","91505","","null","","","null","3","","","","","","","","","","","","","","","",""
"","ITI","","html-keyboard-response","31","195700","0.0-1.0-36.0","0","0","91505","","null","","","null","3","","","","","","","","","","","","","","","NaN",""
"","S1","","html-keyboard-response","32","195963","0.0-1.0-38.0","0","0","91505","","null","","","null","4","","","","","","","","","","","","","","","",""
"","ISI","","html-keyboard-response","33","197975","0.0-1.0-39.0","0","0","91505","","null","","","null","4","NaN","","","","","","","","","","","","","","",""
"","S2","","html-keyboard-response","34","198240","0.0-1.0-40.0","0","0","91505","","null","","","null","4","","NaN","","","","","","","","","","","","","",""
"","response","","html-keyboard-response","35","198747","0.0-1.0-41.0-0.0","0","0","91505","","498","","","75","4","","","1","4","training","adjacent","FG","6","7","R.jpg","M.jpg","1","1","1","",""
"","feedback","","html-keyboard-response","36","199758","0.0-1.0-42.0-0.0","0","0","91505","","null","","","null","4","","","","","","","","","","","","","","","",""
"","ITI","","html-keyboard-response","37","200771","0.0-1.0-45.0","0","0","91505","","null","","","null","4","","","","","","","","","","","","","","","NaN",""
"","S1","","html-keyboard-response","38","201030","0.0-1.0-47.0","0","0","91505","","null","","","null","5","","","","","","","","","","","","","","","",""
"","ISI","","html-keyboard-response","39","203041","0.0-1.0-48.0","0","0","91505","","null","","","null","5","NaN","","","","","","","","","","","","","","",""
"","S2","","html-keyboard-response","40","203299","0.0-1.0-49.0","0","0","91505","","null","","","null","5","","NaN","","","","","","","","","","","","","",""
"","response","","html-keyboard-response","41","203556","0.0-1.0-50.0-0.0","0","0","91505","","249","","","68","5","","","1","5","training","adjacent","BC","2","3","N.jpg","Q.jpg","0","1","0","",""
"","feedback","","html-keyboard-response","42","204569","0.0-1.0-51.0-0.0","0","0","91505","","null","","","null","5","","","","","","","","","","","","","","","",""
"","time_out","","html-keyboard-response","43","206583","0.0-1.0-53.0-0.0","0","0","91505","","null","","","null","5","","","","","","","","","","","","","","","",""
"","ITI","","html-keyboard-response","44","207590","0.0-1.0-54.0","0","0","91505","","null","","","null","5","","","","","","","","","","","","","","","NaN",""
"","S1","","html-keyboard-response","45","207848","0.0-1.0-56.0","0","0","91505","","null","","","null","6","","","","","","","","","","","","","","","",""
"","ISI","","html-keyboard-response","46","209858","0.0-1.0-57.0","0","0","91505","","null","","","null","6","NaN","","","","","","","","","","","","","","",""
"","S2","","html-keyboard-response","47","210123","0.0-1.0-58.0","0","0","91505","","null","","","null","6","","NaN","","","","","","","","","","","","","",""
"","response","","html-keyboard-response","48","211220","0.0-1.0-59.0-0.0","0","0","91505","","1089","","","75","6","","","1","6","training","adjacent","GF","7","6","M.jpg","R.jpg","1","0","0","",""
"","feedback","","html-keyboard-response","49","212234","0.0-1.0-60.0-0.0","0","0","91505","","null","","","null","6","","","","","","","","","","","","","","","",""
"","time_out","","html-keyboard-response","50","214244","0.0-1.0-62.0-0.0","0","0","91505","","null","","","null","6","","","","","","","","","","","","","","","",""
"","ITI","","html-keyboard-response","51","215255","0.0-1.0-63.0","0","0","91505","","null","","","null","6","","","","","","","","","","","","","","","NaN",""
"","S1","","html-keyboard-response","52","215519","0.0-1.0-65.0","0","0","91505","","null","","","null","7","","","","","","","","","","","","","","","",""
"","ISI","","html-keyboard-response","53","217530","0.0-1.0-66.0","0","0","91505","","null","","","null","7","NaN","","","","","","","","","","","","","","",""
"","S2","","html-keyboard-response","54","217794","0.0-1.0-67.0","0","0","91505","","null","","","null","7","","NaN","","","","","","","","","","","","","",""
"","response","","html-keyboard-response","55","218344","0.0-1.0-68.0-0.0","0","0","91505","","540","","","68","7","","","1","7","training","adjacent","CD","3","4","Q.jpg","L.jpg","0","1","0","",""
"","feedback","","html-keyboard-response","56","219355","0.0-1.0-69.0-0.0","0","0","91505","","null","","","null","7","","","","","","","","","","","","","","","",""
"","time_out","","html-keyboard-response","57","221367","0.0-1.0-71.0-0.0","0","0","91505","","null","","","null","7","","","","","","","","","","","","","","","",""
"","ITI","","html-keyboard-response","58","222378","0.0-1.0-72.0","0","0","91505","","null","","","null","7","","","","","","","","","","","","","","","NaN",""
"","S1","","html-keyboard-response","59","222637","0.0-1.0-74.0","0","0","91505","","null","","","null","8","","","","","","","","","","","","","","","",""
"","ISI","","html-keyboard-response","60","224649","0.0-1.0-75.0","0","0","91505","","null","","","null","8","NaN","","","","","","","","","","","","","","",""
"","S2","","html-keyboard-response","61","224911","0.0-1.0-76.0","0","0","91505","","null","","","null","8","","NaN","","","","","","","","","","","","","",""
"","response","","html-keyboard-response","62","225561","0.0-1.0-77.0-0.0","0","0","91505","","641","","","68","8","","","1","8","training","adjacent","EF","5","6","O.jpg","R.jpg","0","1","0","",""
"","feedback","","html-keyboard-response","63","226575","0.0-1.0-78.0-0.0","0","0","91505","","null","","","null","8","","","","","","","","","","","","","","","",""
"","time_out","","html-keyboard-response","64","228588","0.0-1.0-80.0-0.0","0","0","91505","","null","","","null","8","","","","","","","","","","","","","","","",""
"","ITI","","html-keyboard-response","65","229598","0.0-1.0-81.0","0","0","91505","","null","","","null","8","","","","","","","","","","","","","","","NaN",""
"","S1","","html-keyboard-response","66","229860","0.0-1.0-83.0","0","0","91505","","null","","","null","9","","","","","","","","","","","","","","","",""
"","ISI","","html-keyboard-response","67","231873","0.0-1.0-84.0","0","0","91505","","null","","","null","9","NaN","","","","","","","","","","","","","","",""
"","S2","","html-keyboard-response","68","232134","0.0-1.0-85.0","0","0","91505","","null","","","null","9","","NaN","","","","","","","","","","","","","",""
"","response","","html-keyboard-response","69","232594","0.0-1.0-86.0-0.0","0","0","91505","","448","","","75","9","","","1","9","training","adjacent","FE","6","5","R.jpg","O.jpg","1","0","0","",""
"","feedback","","html-keyboard-response","70","233608","0.0-1.0-87.0-0.0","0","0","91505","","null","","","null","9","","","","","","","","","","","","","","","",""
"","time_out","","html-keyboard-response","71","235619","0.0-1.0-89.0-0.0","0","0","91505","","null","","","null","9","","","","","","","","","","","","","","","",""
"","ITI","","html-keyboard-response","72","236631","0.0-1.0-90.0","0","0","91505","","null","","","null","9","","","","","","","","","","","","","","","NaN",""
"","S1","","html-keyboard-response","73","236892","0.0-1.0-92.0","0","0","91505","","null","","","null","10","","","","","","","","","","","","","","","",""
"","ISI","","html-keyboard-response","74","238899","0.0-1.0-93.0","0","0","91505","","null","","","null","10","NaN","","","","","","","","","","","","","","",""
"","S2","","html-keyboard-response","75","239161","0.0-1.0-94.0","0","0","91505","","null","","","null","10","","NaN","","","","","","","","","","","","","",""
"","response","","html-keyboard-response","76","240136","0.0-1.0-95.0-0.0","0","0","91505","","968","","","68","10","","","1","10","training","adjacent","DC","4","3","L.jpg","Q.jpg","0","0","1","",""
"","feedback","","html-keyboard-response","77","241151","0.0-1.0-96.0-0.0","0","0","91505","","null","","","null","10","","","","","","","","","","","","","","","",""
"","ITI","","html-keyboard-response","78","242164","0.0-1.0-99.0","0","0","91505","","null","","","null","10","","","","","","","","","","","","","","","NaN",""
"","S1","","html-keyboard-response","79","242426","0.0-1.0-101.0","0","0","91505","","null","","","null","11","","","","","","","","","","","","","","","",""
"","ISI","","html-keyboard-response","80","244432","0.0-1.0-102.0","0","0","91505","","null","","","null","11","NaN","","","","","","","","","","","","","","",""
"","S2","","html-keyboard-response","81","244691","0.0-1.0-103.0","0","0","91505","","null","","","null","11","","NaN","","","","","","","","","","","","","",""
"","response","","html-keyboard-response","82","245223","0.0-1.0-104.0-0.0","0","0","91505","","521","","","68","11","","","1","11","training","adjacent","DC","4","3","L.jpg","Q.jpg","0","0","1","",""
"","feedback","","html-keyboard-response","83","246230","0.0-1.0-105.0-0.0","0","0","91505","","null","","","null","11","","","","","","","","","","","","","","","",""
"","ITI","","html-keyboard-response","84","247244","0.0-1.0-108.0","0","0","91505","","null","","","null","11","","","","","","","","","","","","","","","NaN",""
"","S1","","html-keyboard-response","85","247509","0.0-1.0-110.0","0","0","91505","","null","","","null","12","","","","","","","","","","","","","","","",""
"","ISI","","html-keyboard-response","86","249518","0.0-1.0-111.0","0","0","91505","","null","","","null","12","NaN","","","","","","","","","","","","","","",""
"","S2","","html-keyboard-response","87","249782","0.0-1.0-112.0","0","0","91505","","null","","","null","12","","NaN","","","","","","","","","","","","","",""
"","response","","html-keyboard-response","88","250236","0.0-1.0-113.0-0.0","0","0","91505","","445","","","75","12","","","1","12","training","adjacent","ED","5","4","O.jpg","L.jpg","1","0","0","",""
"","feedback","","html-keyboard-response","89","251244","0.0-1.0-114.0-0.0","0","0","91505","","null","","","null","12","","","","","","","","","","","","","","","",""
"","time_out","","html-keyboard-response","90","253256","0.0-1.0-116.0-0.0","0","0","91505","","null","","","null","12","","","","","","","","","","","","","","","",""
"","ITI","","html-keyboard-response","91","254269","0.0-1.0-117.0","0","0","91505","","null","","","null","12","","","","","","","","","","","","","","","NaN",""
"","S1","","html-keyboard-response","92","254530","0.0-1.0-119.0","0","0","91505","","null","","","null","13","","","","","","","","","","","","","","","",""
"","ISI","","html-keyboard-response","93","256544","0.0-1.0-120.0","0","0","91505","","null","","","null","13","NaN","","","","","","","","","","","","","","",""
"","S2","","html-keyboard-response","94","256802","0.0-1.0-121.0","0","0","91505","","null","","","null","13","","NaN","","","","","","","","","","","","","",""
"","response","","html-keyboard-response","95","257377","0.0-1.0-122.0-0.0","0","0","91505","","562","","","75","13","","","1","13","training","adjacent","DE","4","5","L.jpg","O.jpg","1","1","1","",""
"","feedback","","html-keyboard-response","96","258390","0.0-1.0-123.0-0.0","0","0","91505","","null","","","null","13","","","","","","","","","","","","","","","",""
"","ITI","","html-keyboard-response","97","259402","0.0-1.0-126.0","0","0","91505","","null","","","null","13","","","","","","","","","","","","","","","NaN",""
"","S1","","html-keyboard-response","98","259662","0.0-1.0-128.0","0","0","91505","","null","","","null","14","","","","","","","","","","","","","","","",""
"","ISI","","html-keyboard-response","99","261675","0.0-1.0-129.0","0","0","91505","","null","","","null","14","NaN","","","","","","","","","","","","","","",""
"","S2","","html-keyboard-response","100","261935","0.0-1.0-130.0","0","0","91505","","null","","","null","14","","NaN","","","","","","","","","","","","","",""
"","response","","html-keyboard-response","101","263064","0.0-1.0-131.0-0.0","0","0","91505","","1116","","","75","14","","","1","14","training","adjacent","BA","2","1","N.jpg","P.jpg","1","0","0","",""
"","feedback","","html-keyboard-response","102","264077","0.0-1.0-132.0-0.0","0","0","91505","","null","","","null","14","","","","","","","","","","","","","","","",""
"","time_out","","html-keyboard-response","103","266090","0.0-1.0-134.0-0.0","0","0","91505","","null","","","null","14","","","","","","","","","","","","","","","",""
"","ITI","","html-keyboard-response","104","267103","0.0-1.0-135.0","0","0","91505","","null","","","null","14","","","","","","","","","","","","","","","NaN",""
"","S1","","html-keyboard-response","105","267365","0.0-1.0-137.0","0","0","91505","","null","","","null","15","","","","","","","","","","","","","","","",""
"","ISI","","html-keyboard-response","106","269377","0.0-1.0-138.0","0","0","91505","","null","","","null","15","NaN","","","","","","","","","","","","","","",""
"","S2","","html-keyboard-response","107","269641","0.0-1.0-139.0","0","0","91505","","null","","","null","15","","NaN","","","","","","","","","","","","","",""
"","response","","html-keyboard-response","108","270429","0.0-1.0-140.0-0.0","0","0","91505","","779","","","75","15","","","1","15","training","adjacent","DE","4","5","L.jpg","O.jpg","1","1","1","",""
"","feedback","","html-keyboard-response","109","271437","0.0-1.0-141.0-0.0","0","0","91505","","null","","","null","15","","","","","","","","","","","","","","","",""
"","ITI","","html-keyboard-response","110","272448","0.0-1.0-144.0","0","0","91505","","null","","","null","15","","","","","","","","","","","","","","","NaN",""
"","S1","","html-keyboard-response","111","272715","0.0-1.0-146.0","0","0","91505","","null","","","null","16","","","","","","","","","","","","","","","",""
"","ISI","","html-keyboard-response","112","274728","0.0-1.0-147.0","0","0","91505","","null","","","null","16","NaN","","","","","","","","","","","","","","",""
"","S2","","html-keyboard-response","113","274987","0.0-1.0-148.0","0","0","91505","","null","","","null","16","","NaN","","","","","","","","","","","","","",""
"","response","","html-keyboard-response","114","275616","0.0-1.0-149.0-0.0","0","0","91505","","618","","","68","16","","","1","16","training","adjacent","BC","2","3","N.jpg","Q.jpg","0","1","0","",""
"","feedback","","html-keyboard-response","115","276630","0.0-1.0-150.0-0.0","0","0","91505","","null","","","null","16","","","","","","","","","","","","","","","",""
"","time_out","","html-keyboard-response","116","278644","0.0-1.0-152.0-0.0","0","0","91505","","null","","","null","16","","","","","","","","","","","","","","","",""
"","ITI","","html-keyboard-response","117","279651","0.0-1.0-153.0","0","0","91505","","null","","","null","16","","","","","","","","","","","","","","","NaN",""
"","S1","","html-keyboard-response","118","279912","0.0-1.0-155.0","0","0","91505","","null","","","null","17","","","","","","","","","","","","","","","",""
"","ISI","","html-keyboard-response","119","281922","0.0-1.0-156.0","0","0","91505","","null","","","null","17","NaN","","","","","","","","","","","","","","",""
"","S2","","html-keyboard-response","120","282186","0.0-1.0-157.0","0","0","91505","","null","","","null","17","","NaN","","","","","","","","","","","","","",""
"","response","","html-keyboard-response","121","282958","0.0-1.0-158.0-0.0","0","0","91505","","763","","","75","17","","","1","17","training","adjacent","DE","4","5","L.jpg","O.jpg","1","1","1","",""
"","feedback","","html-keyboard-response","122","283971","0.0-1.0-159.0-0.0","0","0","91505","","null","","","null","17","","","","","","","","","","","","","","","",""
"","ITI","","html-keyboard-response","123","284985","0.0-1.0-162.0","0","0","91505","","null","","","null","17","","","","","","","","","","","","","","","NaN",""
"","S1","","html-keyboard-response","124","285246","0.0-1.0-164.0","0","0","91505","","null","","","null","18","","","","","","","","","","","","","","","",""
"","ISI","","html-keyboard-response","125","287254","0.0-1.0-165.0","0","0","91505","","null","","","null","18","NaN","","","","","","","","","","","","","","",""
"","S2","","html-keyboard-response","126","287519","0.0-1.0-166.0","0","0","91505","","null","","","null","18","","NaN","","","","","","","","","","","","","",""
"","response","","html-keyboard-response","127","288180","0.0-1.0-167.0-0.0","0","0","91505","","651","","","75","18","","","1","18","training","adjacent","ED","5","4","O.jpg","L.jpg","1","0","0","",""
"","feedback","","html-keyboard-response","128","289188","0.0-1.0-168.0-0.0","0","0","91505","","null","","","null","18","","","","","","","","","","","","","","","",""
"","time_out","","html-keyboard-response","129","291198","0.0-1.0-170.0-0.0","0","0","91505","","null","","","null","18","","","","","","","","","","","","","","","",""
"","ITI","","html-keyboard-response","130","292212","0.0-1.0-171.0","0","0","91505","","null","","","null","18","","","","","","","","","","","","","","","NaN",""
"","S1","","html-keyboard-response","131","292476","0.0-1.0-173.0","0","0","91505","","null","","","null","19","","","","","","","","","","","","","","","",""
"","ISI","","html-keyboard-response","132","294491","0.0-1.0-174.0","0","0","91505","","null","","","null","19","NaN","","","","","","","","","","","","","","",""
"","S2","","html-keyboard-response","133","294761","0.0-1.0-175.0","0","0","91505","","null","","","null","19","","NaN","","","","","","","","","","","","","",""
"","response","","html-keyboard-response","134","295284","0.0-1.0-176.0-0.0","0","0","91505","","511","","","75","19","","","1","19","training","adjacent","CB","3","2","Q.jpg","N.jpg","1","0","0","",""
"","feedback","","html-keyboard-response","135","296297","0.0-1.0-177.0-0.0","0","0","91505","","null","","","null","19","","","","","","","","","","","","","","","",""
"","time_out","","html-keyboard-response","136","298309","0.0-1.0-179.0-0.0","0","0","91505","","null","","","null","19","","","","","","","","","","","","","","","",""
"","ITI","","html-keyboard-response","137","299321","0.0-1.0-180.0","0","0","91505","","null","","","null","19","","","","","","","","","","","","","","","NaN",""
"","S1","","html-keyboard-response","138","299584","0.0-1.0-182.0","0","0","91505","","null","","","null","20","","","","","","","","","","","","","","","",""
"","ISI","","html-keyboard-response","139","301597","0.0-1.0-183.0","0","0","91505","","null","","","null","20","NaN","","","","","","","","","","","","","","",""
"","S2","","html-keyboard-response","140","301858","0.0-1.0-184.0","0","0","91505","","null","","","null","20","","NaN","","","","","","","","","","","","","",""
"","response","","html-keyboard-response","141","302392","0.0-1.0-185.0-0.0","0","0","91505","","525","","","68","20","","","1","20","training","adjacent","GF","7","6","M.jpg","R.jpg","0","0","1","",""
"","feedback","","html-keyboard-response","142","303401","0.0-1.0-186.0-0.0","0","0","91505","","null","","","null","20","","","","","","","","","","","","","","","",""
"","ITI","","html-keyboard-response","143","304409","0.0-1.0-189.0","0","0","91505","","null","","","null","20","","","","","","","","","","","","","","","NaN",""
"","S1","","html-keyboard-response","144","304666","0.0-1.0-191.0","0","0","91505","","null","","","null","21","","","","","","","","","","","","","","","",""
"","ISI","","html-keyboard-response","145","306679","0.0-1.0-192.0","0","0","91505","","null","","","null","21","NaN","","","","","","","","","","","","","","",""
"","S2","","html-keyboard-response","146","306944","0.0-1.0-193.0","0","0","91505","","null","","","null","21","","NaN","","","","","","","","","","","","","",""
"","response","","html-keyboard-response","147","307629","0.0-1.0-194.0-0.0","0","0","91505","","674","","","75","21","","","1","21","training","adjacent","AB","1","2","P.jpg","N.jpg","1","1","1","",""
"","feedback","","html-keyboard-response","148","308644","0.0-1.0-195.0-0.0","0","0","91505","","null","","","null","21","","","","","","","","","","","","","","","",""
"","ITI","","html-keyboard-response","149","309660","0.0-1.0-198.0","0","0","91505","","null","","","null","21","","","","","","","","","","","","","","","NaN",""
"","S1","","html-keyboard-response","150","309921","0.0-1.0-200.0","0","0","91505","","null","","","null","22","","","","","","","","","","","","","","","",""
"","ISI","","html-keyboard-response","151","311932","0.0-1.0-201.0","0","0","91505","","null","","","null","22","NaN","","","","","","","","","","","","","","",""
"","S2","","html-keyboard-response","152","312196","0.0-1.0-202.0","0","0","91505","","null","","","null","22","","NaN","","","","","","","","","","","","","",""
"","response","","html-keyboard-response","153","312608","0.0-1.0-203.0-0.0","0","0","91505","","403","","","68","22","","","1","22","training","adjacent","BA","2","1","N.jpg","P.jpg","0","0","1","",""
"","feedback","","html-keyboard-response","154","313621","0.0-1.0-204.0-0.0","0","0","91505","","null","","","null","22","","","","","","","","","","","","","","","",""
"","ITI","","html-keyboard-response","155","314632","0.0-1.0-207.0","0","0","91505","","null","","","null","22","","","","","","","","","","","","","","","NaN",""
"","S1","","html-keyboard-response","156","314896","0.0-1.0-209.0","0","0","91505","","null","","","null","23","","","","","","","","","","","","","","","",""
"","ISI","","html-keyboard-response","157","316907","0.0-1.0-210.0","0","0","91505","","null","","","null","23","NaN","","","","","","","","","","","","","","",""
"","S2","","html-keyboard-response","158","317173","0.0-1.0-211.0","0","0","91505","","null","","","null","23","","NaN","","","","","","","","","","","","","",""
"","response","","html-keyboard-response","159","317598","0.0-1.0-212.0-0.0","0","0","91505","","414","","","68","23","","","1","23","training","adjacent","DE","4","5","L.jpg","O.jpg","0","1","0","",""
"","feedback","","html-keyboard-response","160","318618","0.0-1.0-213.0-0.0","0","0","91505","","null","","","null","23","","","","","","","","","","","","","","","",""
"","time_out","","html-keyboard-response","161","320630","0.0-1.0-215.0-0.0","0","0","91505","","null","","","null","23","","","","","","","","","","","","","","","",""
"","ITI","","html-keyboard-response","162","321642","0.0-1.0-216.0","0","0","91505","","null","","","null","23","","","","","","","","","","","","","","","NaN",""
"","S1","","html-keyboard-response","163","321904","0.0-1.0-218.0","0","0","91505","","null","","","null","24","","","","","","","","","","","","","","","",""
"","ISI","","html-keyboard-response","164","323916","0.0-1.0-219.0","0","0","91505","","null","","","null","24","NaN","","","","","","","","","","","","","","",""
"","S2","","html-keyboard-response","165","324181","0.0-1.0-220.0","0","0","91505","","null","","","null","24","","NaN","","","","","","","","","","","","","",""
"","response","","html-keyboard-response","166","324623","0.0-1.0-221.0-0.0","0","0","91505","","433","","","75","24","","","1","24","training","adjacent","BC","2","3","N.jpg","Q.jpg","1","1","1","",""
"","feedback","","html-keyboard-response","167","325634","0.0-1.0-222.0-0.0","0","0","91505","","null","","","null","24","","","","","","","","","","","","","","","",""
"","ITI","","html-keyboard-response","168","326646","0.0-1.0-225.0","0","0","91505","","null","","","null","24","","","","","","","","","","","","","","","NaN",""
"","S1","","html-keyboard-response","169","326910","0.0-1.0-227.0","0","0","91505","","null","","","null","25","","","","","","","","","","","","","","","",""
"","ISI","","html-keyboard-response","170","328923","0.0-1.0-228.0","0","0","91505","","null","","","null","25","NaN","","","","","","","","","","","","","","",""
"","S2","","html-keyboard-response","171","329185","0.0-1.0-229.0","0","0","91505","","null","","","null","25","","NaN","","","","","","","","","","","","","",""
"","response","","html-keyboard-response","172","330158","0.0-1.0-230.0-0.0","0","0","91505","","962","","","68","25","","","1","25","training","adjacent","CB","3","2","Q.jpg","N.jpg","0","0","1","",""
"","feedback","","html-keyboard-response","173","331169","0.0-1.0-231.0-0.0","0","0","91505","","null","","","null","25","","","","","","","","","","","","","","","",""
"","ITI","","html-keyboard-response","174","332181","0.0-1.0-234.0","0","0","91505","","null","","","null","25","","","","","","","","","","","","","","","NaN",""
"","S1","","html-keyboard-response","175","332442","0.0-1.0-236.0","0","0","91505","","null","","","null","26","","","","","","","","","","","","","","","",""
"","ISI","","html-keyboard-response","176","334457","0.0-1.0-237.0","0","0","91505","","null","","","null","26","NaN","","","","","","","","","","","","","","",""
"","S2","","html-keyboard-response","177","334721","0.0-1.0-238.0","0","0","91505","","null","","","null","26","","NaN","","","","","","","","","","","","","",""
"","response","","html-keyboard-response","178","335514","0.0-1.0-239.0-0.0","0","0","91505","","787","","","68","26","","","1","26","training","adjacent","EF","5","6","O.jpg","R.jpg","0","1","0","",""
"","feedback","","html-keyboard-response","179","336526","0.0-1.0-240.0-0.0","0","0","91505","","null","","","null","26","","","","","","","","","","","","","","","",""
"","time_out","","html-keyboard-response","180","338539","0.0-1.0-242.0-0.0","0","0","91505","","null","","","null","26","","","","","","","","","","","","","","","",""
"","ITI","","html-keyboard-response","181","339553","0.0-1.0-243.0","0","0","91505","","null","","","null","26","","","","","","","","","","","","","","","NaN",""
"","S1","","html-keyboard-response","182","339817","0.0-1.0-245.0","0","0","91505","","null","","","null","27","","","","","","","","","","","","","","","",""
"","ISI","","html-keyboard-response","183","341831","0.0-1.0-246.0","0","0","91505","","null","","","null","27","NaN","","","","","","","","","","","","","","",""
"","S2","","html-keyboard-response","184","342092","0.0-1.0-247.0","0","0","91505","","null","","","null","27","","NaN","","","","","","","","","","","","","",""
"","response","","html-keyboard-response","185","342373","0.0-1.0-248.0-0.0","0","0","91505","","269","","","68","27","","","1","27","training","adjacent","FE","6","5","R.jpg","O.jpg","0","0","1","",""
"","feedback","","html-keyboard-response","186","343387","0.0-1.0-249.0-0.0","0","0","91505","","null","","","null","27","","","","","","","","","","","","","","","",""
"","ITI","","html-keyboard-response","187","344398","0.0-1.0-252.0","0","0","91505","","null","","","null","27","","","","","","","","","","","","","","","NaN",""
"","S1","","html-keyboard-response","188","344662","0.0-1.0-254.0","0","0","91505","","null","","","null","28","","","","","","","","","","","","","","","",""
"","ISI","","html-keyboard-response","189","346674","0.0-1.0-255.0","0","0","91505","","null","","","null","28","NaN","","","","","","","","","","","","","","",""
"","S2","","html-keyboard-response","190","346938","0.0-1.0-256.0","0","0","91505","","null","","","null","28","","NaN","","","","","","","","","","","","","",""
"","response","","html-keyboard-response","191","347357","0.0-1.0-257.0-0.0","0","0","91505","","410","","","75","28","","","1","28","training","adjacent","AB","1","2","P.jpg","N.jpg","1","1","1","",""
"","feedback","","html-keyboard-response","192","348371","0.0-1.0-258.0-0.0","0","0","91505","","null","","","null","28","","","","","","","","","","","","","","","",""
"","ITI","","html-keyboard-response","193","349386","0.0-1.0-261.0","0","0","91505","","null","","","null","28","","","","","","","","","","","","","","","NaN",""
"","S1","","html-keyboard-response","194","349650","0.0-1.0-263.0","0","0","91505","","null","","","null","29","","","","","","","","","","","","","","","",""
"","ISI","","html-keyboard-response","195","351663","0.0-1.0-264.0","0","0","91505","","null","","","null","29","NaN","","","","","","","","","","","","","","",""
"","S2","","html-keyboard-response","196","351922","0.0-1.0-265.0","0","0","91505","","null","","","null","29","","NaN","","","","","","","","","","","","","",""
"","response","","html-keyboard-response","197","352541","0.0-1.0-266.0-0.0","0","0","91505","","609","","","68","29","","","1","29","training","adjacent","DC","4","3","L.jpg","Q.jpg","0","0","1","",""
"","feedback","","html-keyboard-response","198","353553","0.0-1.0-267.0-0.0","0","0","91505","","null","","","null","29","","","","","","","","","","","","","","","",""
"","ITI","","html-keyboard-response","199","354572","0.0-1.0-270.0","0","0","91505","","null","","","null","29","","","","","","","","","","","","","","","NaN",""
"","S1","","html-keyboard-response","200","354835","0.0-1.0-272.0","0","0","91505","","null","","","null","30","","","","","","","","","","","","","","","",""
"","ISI","","html-keyboard-response","201","356847","0.0-1.0-273.0","0","0","91505","","null","","","null","30","NaN","","","","","","","","","","","","","","",""
"","S2","","html-keyboard-response","202","357111","0.0-1.0-274.0","0","0","91505","","null","","","null","30","","NaN","","","","","","","","","","","","","",""
"","response","","html-keyboard-response","203","357587","0.0-1.0-275.0-0.0","0","0","91505","","466","","","75","30","","","1","30","training","adjacent","BC","2","3","N.jpg","Q.jpg","1","1","1","",""
"","feedback","","html-keyboard-response","204","358602","0.0-1.0-276.0-0.0","0","0","91505","","null","","","null","30","","","","","","","","","","","","","","","",""
"","ITI","","html-keyboard-response","205","359615","0.0-1.0-279.0","0","0","91505","","null","","","null","30","","","","","","","","","","","","","","","NaN",""
"","S1","","html-keyboard-response","206","359876","0.0-1.0-281.0","0","0","91505","","null","","","null","31","","","","","","","","","","","","","","","",""
"","ISI","","html-keyboard-response","207","361886","0.0-1.0-282.0","0","0","91505","","null","","","null","31","NaN","","","","","","","","","","","","","","",""
"","S2","","html-keyboard-response","208","362148","0.0-1.0-283.0","0","0","91505","","null","","","null","31","","NaN","","","","","","","","","","","","","",""
"","response","","html-keyboard-response","209","362879","0.0-1.0-284.0-0.0","0","0","91505","","720","","","75","31","","","1","31","training","adjacent","GF","7","6","M.jpg","R.jpg","1","0","0","",""
"","feedback","","html-keyboard-response","210","363888","0.0-1.0-285.0-0.0","0","0","91505","","null","","","null","31","","","","","","","","","","","","","","","",""
"","time_out","","html-keyboard-response","211","365902","0.0-1.0-287.0-0.0","0","0","91505","","null","","","null","31","","","","","","","","","","","","","","","",""
"","ITI","","html-keyboard-response","212","366910","0.0-1.0-288.0","0","0","91505","","null","","","null","31","","","","","","","","","","","","","","","NaN",""
"","S1","","html-keyboard-response","213","367168","0.0-1.0-290.0","0","0","91505","","null","","","null","32","","","","","","","","","","","","","","","",""
"","ISI","","html-keyboard-response","214","369179","0.0-1.0-291.0","0","0","91505","","null","","","null","32","NaN","","","","","","","","","","","","","","",""
"","S2","","html-keyboard-response","215","369444","0.0-1.0-292.0","0","0","91505","","null","","","null","32","","NaN","","","","","","","","","","","","","",""
"","response","","html-keyboard-response","216","370093","0.0-1.0-293.0-0.0","0","0","91505","","637","","","75","32","","","1","32","training","adjacent","EF","5","6","O.jpg","R.jpg","1","1","1","",""
"","feedback","","html-keyboard-response","217","371107","0.0-1.0-294.0-0.0","0","0","91505","","null","","","null","32","","","","","","","","","","","","","","","",""
"","ITI","","html-keyboard-response","218","372118","0.0-1.0-297.0","0","0","91505","","null","","","null","32","","","","","","","","","","","","","","","NaN",""
"","S1","","html-keyboard-response","219","372381","0.0-1.0-299.0","0","0","91505","","null","","","null","33","","","","","","","","","","","","","","","",""
"","ISI","","html-keyboard-response","220","374396","0.0-1.0-300.0","0","0","91505","","null","","","null","33","NaN","","","","","","","","","","","","","","",""
"","S2","","html-keyboard-response","221","374657","0.0-1.0-301.0","0","0","91505","","null","","","null","33","","NaN","","","","","","","","","","","","","",""
"","response","","html-keyboard-response","222","375192","0.0-1.0-302.0-0.0","0","0","91505","","523","","","68","33","","","1","33","training","adjacent","CB","3","2","Q.jpg","N.jpg","0","0","1","",""
"","feedback","","html-keyboard-response","223","376204","0.0-1.0-303.0-0.0","0","0","91505","","null","","","null","33","","","","","","","","","","","","","","","",""
"","ITI","","html-keyboard-response","224","377217","0.0-1.0-306.0","0","0","91505","","null","","","null","33","","","","","","","","","","","","","","","NaN",""
"","S1","","html-keyboard-response","225","377480","0.0-1.0-308.0","0","0","91505","","null","","","null","34","","","","","","","","","","","","","","","",""
"","ISI","","html-keyboard-response","226","379491","0.0-1.0-309.0","0","0","91505","","null","","","null","34","NaN","","","","","","","","","","","","","","",""
"","S2","","html-keyboard-response","227","379755","0.0-1.0-310.0","0","0","91505","","null","","","null","34","","NaN","","","","","","","","","","","","","",""
"","response","","html-keyboard-response","228","380281","0.0-1.0-311.0-0.0","0","0","91505","","515","","","75","34","","","1","34","training","adjacent","CD","3","4","Q.jpg","L.jpg","1","1","1","",""
"","feedback","","html-keyboard-response","229","381293","0.0-1.0-312.0-0.0","0","0","91505","","null","","","null","34","","","","","","","","","","","","","","","",""
"","ITI","","html-keyboard-response","230","382311","0.0-1.0-315.0","0","0","91505","","null","","","null","34","","","","","","","","","","","","","","","NaN",""
"","S1","","html-keyboard-response","231","382574","0.0-1.0-317.0","0","0","91505","","null","","","null","35","","","","","","","","","","","","","","","",""
"","ISI","","html-keyboard-response","232","384587","0.0-1.0-318.0","0","0","91505","","null","","","null","35","NaN","","","","","","","","","","","","","","",""
"","S2","","html-keyboard-response","233","384850","0.0-1.0-319.0","0","0","91505","","null","","","null","35","","NaN","","","","","","","","","","","","","",""
"","response","","html-keyboard-response","234","385570","0.0-1.0-320.0-0.0","0","0","91505","","702","","","75","35","","","1","35","training","adjacent","EF","5","6","O.jpg","R.jpg","1","1","1","",""
"","feedback","","html-keyboard-response","235","386583","0.0-1.0-321.0-0.0","0","0","91505","","null","","","null","35","","","","","","","","","","","","","","","",""
"","ITI","","html-keyboard-response","236","387596","0.0-1.0-324.0","0","0","91505","","null","","","null","35","","","","","","","","","","","","","","","NaN",""
"","S1","","html-keyboard-response","237","387857","0.0-1.0-326.0","0","0","91505","","null","","","null","36","","","","","","","","","","","","","","","",""
"","ISI","","html-keyboard-response","238","389871","0.0-1.0-327.0","0","0","91505","","null","","","null","36","NaN","","","","","","","","","","","","","","",""
"","S2","","html-keyboard-response","239","390134","0.0-1.0-328.0","0","0","91505","","null","","","null","36","","NaN","","","","","","","","","","","","","",""
"","response","","html-keyboard-response","240","390787","0.0-1.0-329.0-0.0","0","0","91505","","643","","","75","36","","","1","36","training","adjacent","DC","4","3","L.jpg","Q.jpg","1","0","0","",""
"","feedback","","html-keyboard-response","241","391802","0.0-1.0-330.0-0.0","0","0","91505","","null","","","null","36","","","","","","","","","","","","","","","",""
"","time_out","","html-keyboard-response","242","393816","0.0-1.0-332.0-0.0","0","0","91505","","null","","","null","36","","","","","","","","","","","","","","","",""
"","ITI","","html-keyboard-response","243","394827","0.0-1.0-333.0","0","0","91505","","null","","","null","36","","","","","","","","","","","","","","","NaN",""
"","S1","","html-keyboard-response","244","395090","0.0-1.0-335.0","0","0","91505","","null","","","null","37","","","","","","","","","","","","","","","",""
"","ISI","","html-keyboard-response","245","397099","0.0-1.0-336.0","0","0","91505","","null","","","null","37","NaN","","","","","","","","","","","","","","",""
"","S2","","html-keyboard-response","246","397360","0.0-1.0-337.0","0","0","91505","","null","","","null","37","","NaN","","","","","","","","","","","","","",""
"","response","","html-keyboard-response","247","398405","0.0-1.0-338.0-0.0","0","0","91505","","1034","","","75","37","","","1","37","training","adjacent","CD","3","4","Q.jpg","L.jpg","1","1","1","",""
"","feedback","","html-keyboard-response","248","399418","0.0-1.0-339.0-0.0","0","0","91505","","null","","","null","37","","","","","","","","","","","","","","","",""
"","ITI","","html-keyboard-response","249","400430","0.0-1.0-342.0","0","0","91505","","null","","","null","37","","","","","","","","","","","","","","","NaN",""
"","S1","","html-keyboard-response","250","400692","0.0-1.0-344.0","0","0","91505","","null","","","null","38","","","","","","","","","","","","","","","",""
"","ISI","","html-keyboard-response","251","402703","0.0-1.0-345.0","0","0","91505","","null","","","null","38","NaN","","","","","","","","","","","","","","",""
"","S2","","html-keyboard-response","252","402962","0.0-1.0-346.0","0","0","91505","","null","","","null","38","","NaN","","","","","","","","","","","","","",""
"","response","","html-keyboard-response","253","403366","0.0-1.0-347.0-0.0","0","0","91505","","396","","","68","38","","","1","38","training","adjacent","FG","6","7","R.jpg","M.jpg","0","1","0","",""
"","feedback","","html-keyboard-response","254","404378","0.0-1.0-348.0-0.0","0","0","91505","","null","","","null","38","","","","","","","","","","","","","","","",""
"","time_out","","html-keyboard-response","255","406391","0.0-1.0-350.0-0.0","0","0","91505","","null","","","null","38","","","","","","","","","","","","","","","",""
"","ITI","","html-keyboard-response","256","407405","0.0-1.0-351.0","0","0","91505","","null","","","null","38","","","","","","","","","","","","","","","NaN",""
"","S1","","html-keyboard-response","257","407669","0.0-1.0-353.0","0","0","91505","","null","","","null","39","","","","","","","","","","","","","","","",""
"","ISI","","html-keyboard-response","258","409683","0.0-1.0-354.0","0","0","91505","","null","","","null","39","NaN","","","","","","","","","","","","","","",""
"","S2","","html-keyboard-response","259","409940","0.0-1.0-355.0","0","0","91505","","null","","","null","39","","NaN","","","","","","","","","","","","","",""
"","response","","html-keyboard-response","260","410443","0.0-1.0-356.0-0.0","0","0","91505","","492","","","75","39","","","1","39","training","adjacent","FG","6","7","R.jpg","M.jpg","1","1","1","",""
"","feedback","","html-keyboard-response","261","411456","0.0-1.0-357.0-0.0","0","0","91505","","null","","","null","39","","","","","","","","","","","","","","","",""
"","ITI","","html-keyboard-response","262","412472","0.0-1.0-360.0","0","0","91505","","null","","","null","39","","","","","","","","","","","","","","","NaN",""
"","S1","","html-keyboard-response","263","412734","0.0-1.0-362.0","0","0","91505","","null","","","null","40","","","","","","","","","","","","","","","",""
"","ISI","","html-keyboard-response","264","414743","0.0-1.0-363.0","0","0","91505","","null","","","null","40","NaN","","","","","","","","","","","","","","",""
"","S2","","html-keyboard-response","265","415009","0.0-1.0-364.0","0","0","91505","","null","","","null","40","","NaN","","","","","","","","","","","","","",""
"","response","","html-keyboard-response","266","415824","0.0-1.0-365.0-0.0","0","0","91505","","803","","","75","40","","","1","40","training","adjacent","CD","3","4","Q.jpg","L.jpg","1","1","1","",""
"","feedback","","html-keyboard-response","267","416840","0.0-1.0-366.0-0.0","0","0","91505","","null","","","null","40","","","","","","","","","","","","","","","",""
"","ITI","","html-keyboard-response","268","417854","0.0-1.0-369.0","0","0","91505","","null","","","null","40","","","","","","","","","","","","","","","NaN",""
"","S1","","html-keyboard-response","269","418117","0.0-1.0-371.0","0","0","91505","","null","","","null","41","","","","","","","","","","","","","","","",""
"","ISI","","html-keyboard-response","270","420130","0.0-1.0-372.0","0","0","91505","","null","","","null","41","NaN","","","","","","","","","","","","","","",""
"","S2","","html-keyboard-response","271","420390","0.0-1.0-373.0","0","0","91505","","null","","","null","41","","NaN","","","","","","","","","","","","","",""
"","response","","html-keyboard-response","272","420790","0.0-1.0-374.0-0.0","0","0","91505","","390","","","68","41","","","1","41","training","adjacent","FE","6","5","R.jpg","O.jpg","0","0","1","",""
"","feedback","","html-keyboard-response","273","421803","0.0-1.0-375.0-0.0","0","0","91505","","null","","","null","41","","","","","","","","","","","","","","","",""
"","ITI","","html-keyboard-response","274","422814","0.0-1.0-378.0","0","0","91505","","null","","","null","41","","","","","","","","","","","","","","","NaN",""
"","S1","","html-keyboard-response","275","423075","0.0-1.0-380.0","0","0","91505","","null","","","null","42","","","","","","","","","","","","","","","",""
"","ISI","","html-keyboard-response","276","425102","0.0-1.0-381.0","0","0","91505","","null","","","null","42","NaN","","","","","","","","","","","","","","",""
"","S2","","html-keyboard-response","277","425366","0.0-1.0-382.0","0","0","91505","","null","","","null","42","","NaN","","","","","","","","","","","","","",""
"","response","","html-keyboard-response","278","425619","0.0-1.0-383.0-0.0","0","0","91505","","242","","","75","42","","","1","42","training","adjacent","AB","1","2","P.jpg","N.jpg","1","1","1","",""
"","feedback","","html-keyboard-response","279","426637","0.0-1.0-384.0-0.0","0","0","91505","","null","","","null","42","","","","","","","","","","","","","","","",""
"","ITI","","html-keyboard-response","280","427649","0.0-1.0-387.0","0","0","91505","","null","","","null","42","","","","","","","","","","","","","","","NaN",""
"","S1","","html-keyboard-response","281","427915","0.0-1.0-389.0","0","0","91505","","null","","","null","43","","","","","","","","","","","","","","","",""
"","ISI","","html-keyboard-response","282","429930","0.0-1.0-390.0","0","0","91505","","null","","","null","43","NaN","","","","","","","","","","","","","","",""
"","S2","","html-keyboard-response","283","430195","0.0-1.0-391.0","0","0","91505","","null","","","null","43","","NaN","","","","","","","","","","","","","",""
"","response","","html-keyboard-response","284","430799","0.0-1.0-392.0-0.0","0","0","91505","","596","","","75","43","","","1","43","training","adjacent","ED","5","4","O.jpg","L.jpg","1","0","0","",""
"","feedback","","html-keyboard-response","285","431808","0.0-1.0-393.0-0.0","0","0","91505","","null","","","null","43","","","","","","","","","","","","","","","",""
"","time_out","","html-keyboard-response","286","433824","0.0-1.0-395.0-0.0","0","0","91505","","null","","","null","43","","","","","","","","","","","","","","","",""
"","ITI","","html-keyboard-response","287","434837","0.0-1.0-396.0","0","0","91505","","null","","","null","43","","","","","","","","","","","","","","","NaN",""
"","S1","","html-keyboard-response","288","435099","0.0-1.0-398.0","0","0","91505","","null","","","null","44","","","","","","","","","","","","","","","",""
"","ISI","","html-keyboard-response","289","437112","0.0-1.0-399.0","0","0","91505","","null","","","null","44","NaN","","","","","","","","","","","","","","",""
"","S2","","html-keyboard-response","290","437374","0.0-1.0-400.0","0","0","91505","","null","","","null","44","","NaN","","","","","","","","","","","","","",""
"","response","","html-keyboard-response","291","437832","0.0-1.0-401.0-0.0","0","0","91505","","447","","","68","44","","","1","44","training","adjacent","FE","6","5","R.jpg","O.jpg","0","0","1","",""
"","feedback","","html-keyboard-response","292","438842","0.0-1.0-402.0-0.0","0","0","91505","","null","","","null","44","","","","","","","","","","","","","","","",""
"","ITI","","html-keyboard-response","293","439855","0.0-1.0-405.0","0","0","91505","","null","","","null","44","","","","","","","","","","","","","","","NaN",""
"","S1","","html-keyboard-response","294","440119","0.0-1.0-407.0","0","0","91505","","null","","","null","45","","","","","","","","","","","","","","","",""
"","ISI","","html-keyboard-response","295","442132","0.0-1.0-408.0","0","0","91505","","null","","","null","45","NaN","","","","","","","","","","","","","","",""
"","S2","","html-keyboard-response","296","442394","0.0-1.0-409.0","0","0","91505","","null","","","null","45","","NaN","","","","","","","","","","","","","",""
"","response","","html-keyboard-response","297","442850","0.0-1.0-410.0-0.0","0","0","91505","","447","","","75","45","","","1","45","training","adjacent","AB","1","2","P.jpg","N.jpg","1","1","1","",""
"","feedback","","html-keyboard-response","298","443863","0.0-1.0-411.0-0.0","0","0","91505","","null","","","null","45","","","","","","","","","","","","","","","",""
"","ITI","","html-keyboard-response","299","444878","0.0-1.0-414.0","0","0","91505","","null","","","null","45","","","","","","","","","","","","","","","NaN",""
"","S1","","html-keyboard-response","300","445143","0.0-1.0-416.0","0","0","91505","","null","","","null","46","","","","","","","","","","","","","","","",""
"","ISI","","html-keyboard-response","301","447157","0.0-1.0-417.0","0","0","91505","","null","","","null","46","NaN","","","","","","","","","","","","","","",""
"","S2","","html-keyboard-response","302","447420","0.0-1.0-418.0","0","0","91505","","null","","","null","46","","NaN","","","","","","","","","","","","","",""
"","response","","html-keyboard-response","303","448210","0.0-1.0-419.0-0.0","0","0","91505","","780","","","68","46","","","1","46","training","adjacent","BA","2","1","N.jpg","P.jpg","0","0","1","",""
"","feedback","","html-keyboard-response","304","449225","0.0-1.0-420.0-0.0","0","0","91505","","null","","","null","46","","","","","","","","","","","","","","","",""
"","ITI","","html-keyboard-response","305","450237","0.0-1.0-423.0","0","0","91505","","null","","","null","46","","","","","","","","","","","","","","","NaN",""
"","S1","","html-keyboard-response","306","450501","0.0-1.0-425.0","0","0","91505","","null","","","null","47","","","","","","","","","","","","","","","",""
"","ISI","","html-keyboard-response","307","452512","0.0-1.0-426.0","0","0","91505","","null","","","null","47","NaN","","","","","","","","","","","","","","",""
"","S2","","html-keyboard-response","308","452772","0.0-1.0-427.0","0","0","91505","","null","","","null","47","","NaN","","","","","","","","","","","","","",""
"","response","","html-keyboard-response","309","453403","0.0-1.0-428.0-0.0","0","0","91505","","621","","","68","47","","","1","47","training","adjacent","ED","5","4","O.jpg","L.jpg","0","0","1","",""
"","feedback","","html-keyboard-response","310","454416","0.0-1.0-429.0-0.0","0","0","91505","","null","","","null","47","","","","","","","","","","","","","","","",""
"","ITI","","html-keyboard-response","311","455433","0.0-1.0-432.0","0","0","91505","","null","","","null","47","","","","","","","","","","","","","","","NaN",""
"","block_over","","html-keyboard-response","312","498407","0.0-1.0-433.0-0.0","0","0","91505","","42961","","","32","47","","","","","","","","","","","","","","","",""
"","S1","","html-keyboard-response","313","498671","0.0-1.0-434.0","0","0","91505","","null","","","null","48","","","","","","","","","","","","","","","",""
"","ISI","","html-keyboard-response","314","500685","0.0-1.0-435.0","0","0","91505","","null","","","null","48","NaN","","","","","","","","","","","","","","",""
"","S2","","html-keyboard-response","315","500948","0.0-1.0-436.0","0","0","91505","","null","","","null","48","","NaN","","","","","","","","","","","","","",""
"","response","","html-keyboard-response","316","501518","0.0-1.0-437.0-0.0","0","0","91505","","559","","","75","48","","","2","48","training","adjacent","CD","3","4","Q.jpg","L.jpg","1","1","1","",""
"","feedback","","html-keyboard-response","317","502528","0.0-1.0-438.0-0.0","0","0","91505","","null","","","null","48","","","","","","","","","","","","","","","",""
"","ITI","","html-keyboard-response","318","503539","0.0-1.0-441.0","0","0","91505","","null","","","null","48","","","","","","","","","","","","","","","NaN",""
"","S1","","html-keyboard-response","319","503801","0.0-1.0-443.0","0","0","91505","","null","","","null","49","","","","","","","","","","","","","","","",""
"","ISI","","html-keyboard-response","320","505815","0.0-1.0-444.0","0","0","91505","","null","","","null","49","NaN","","","","","","","","","","","","","","",""
"","S2","","html-keyboard-response","321","506081","0.0-1.0-445.0","0","0","91505","","null","","","null","49","","NaN","","","","","","","","","","","","","",""
"","response","","html-keyboard-response","322","506997","0.0-1.0-446.0-0.0","0","0","91505","","901","","","75","49","","","2","49","training","adjacent","ED","5","4","O.jpg","L.jpg","1","0","0","",""
"","feedback","","html-keyboard-response","323","508010","0.0-1.0-447.0-0.0","0","0","91505","","null","","","null","49","","","","","","","","","","","","","","","",""
"","time_out","","html-keyboard-response","324","510022","0.0-1.0-449.0-0.0","0","0","91505","","null","","","null","49","","","","","","","","","","","","","","","",""
"","ITI","","html-keyboard-response","325","511034","0.0-1.0-450.0","0","0","91505","","null","","","null","49","","","","","","","","","","","","","","","NaN",""
"","S1","","html-keyboard-response","326","511295","0.0-1.0-452.0","0","0","91505","","null","","","null","50","","","","","","","","","","","","","","","",""
"","ISI","","html-keyboard-response","327","513309","0.0-1.0-453.0","0","0","91505","","null","","","null","50","NaN","","","","","","","","","","","","","","",""
"","S2","","html-keyboard-response","328","513571","0.0-1.0-454.0","0","0","91505","","null","","","null","50","","NaN","","","","","","","","","","","","","",""
"","response","","html-keyboard-response","329","514128","0.0-1.0-455.0-0.0","0","0","91505","","545","","","68","50","","","2","50","training","adjacent","CB","3","2","Q.jpg","N.jpg","0","0","1","",""
"","feedback","","html-keyboard-response","330","515140","0.0-1.0-456.0-0.0","0","0","91505","","null","","","null","50","","","","","","","","","","","","","","","",""
"","ITI","","html-keyboard-response","331","516154","0.0-1.0-459.0","0","0","91505","","null","","","null","50","","","","","","","","","","","","","","","NaN",""
"","S1","","html-keyboard-response","332","516418","0.0-1.0-461.0","0","0","91505","","null","","","null","51","","","","","","","","","","","","","","","",""
"","ISI","","html-keyboard-response","333","518428","0.0-1.0-462.0","0","0","91505","","null","","","null","51","NaN","","","","","","","","","","","","","","",""
"","S2","","html-keyboard-response","334","518696","0.0-1.0-463.0","0","0","91505","","null","","","null","51","","NaN","","","","","","","","","","","","","",""
"","response","","html-keyboard-response","335","519460","0.0-1.0-464.0-0.0","0","0","91505","","754","","","75","51","","","2","51","training","adjacent","DE","4","5","L.jpg","O.jpg","1","1","1","",""
"","feedback","","html-keyboard-response","336","520472","0.0-1.0-465.0-0.0","0","0","91505","","null","","","null","51","","","","","","","","","","","","","","","",""
"","ITI","","html-keyboard-response","337","521482","0.0-1.0-468.0","0","0","91505","","null","","","null","51","","","","","","","","","","","","","","","NaN",""
"","S1","","html-keyboard-response","338","521743","0.0-1.0-470.0","0","0","91505","","null","","","null","52","","","","","","","","","","","","","","","",""
"","ISI","","html-keyboard-response","339","523755","0.0-1.0-471.0","0","0","91505","","null","","","null","52","NaN","","","","","","","","","","","","","","",""
"","S2","","html-keyboard-response","340","524019","0.0-1.0-472.0","0","0","91505","","null","","","null","52","","NaN","","","","","","","","","","","","","",""
"","response","","html-keyboard-response","341","525207","0.0-1.0-473.0-0.0","0","0","91505","","1176","","","75","52","","","2","52","training","adjacent","AB","1","2","P.jpg","N.jpg","1","1","1","",""
"","feedback","","html-keyboard-response","342","526220","0.0-1.0-474.0-0.0","0","0","91505","","null","","","null","52","","","","","","","","","","","","","","","",""
"","ITI","","html-keyboard-response","343","527232","0.0-1.0-477.0","0","0","91505","","null","","","null","52","","","","","","","","","","","","","","","NaN",""
"","S1","","html-keyboard-response","344","527491","0.0-1.0-479.0","0","0","91505","","null","","","null","53","","","","","","","","","","","","","","","",""
"","ISI","","html-keyboard-response","345","529501","0.0-1.0-480.0","0","0","91505","","null","","","null","53","NaN","","","","","","","","","","","","","","",""
"","S2","","html-keyboard-response","346","529765","0.0-1.0-481.0","0","0","91505","","null","","","null","53","","NaN","","","","","","","","","","","","","",""
"","response","","html-keyboard-response","347","530381","0.0-1.0-482.0-0.0","0","0","91505","","602","","","68","53","","","2","53","training","adjacent","BA","2","1","N.jpg","P.jpg","0","0","1","",""
"","feedback","","html-keyboard-response","348","531394","0.0-1.0-483.0-0.0","0","0","91505","","null","","","null","53","","","","","","","","","","","","","","","",""
"","ITI","","html-keyboard-response","349","532408","0.0-1.0-486.0","0","0","91505","","null","","","null","53","","","","","","","","","","","","","","","NaN",""
"","S1","","html-keyboard-response","350","532674","0.0-1.0-488.0","0","0","91505","","null","","","null","54","","","","","","","","","","","","","","","",""
"","ISI","","html-keyboard-response","351","534683","0.0-1.0-489.0","0","0","91505","","null","","","null","54","NaN","","","","","","","","","","","","","","",""
"","S2","","html-keyboard-response","352","534948","0.0-1.0-490.0","0","0","91505","","null","","","null","54","","NaN","","","","","","","","","","","","","",""
"","response","","html-keyboard-response","353","535724","0.0-1.0-491.0-0.0","0","0","91505","","762","","","68","54","","","2","54","training","adjacent","ED","5","4","O.jpg","L.jpg","0","0","1","",""
"","feedback","","html-keyboard-response","354","536736","0.0-1.0-492.0-0.0","0","0","91505","","null","","","null","54","","","","","","","","","","","","","","","",""
"","ITI","","html-keyboard-response","355","537746","0.0-1.0-495.0","0","0","91505","","null","","","null","54","","","","","","","","","","","","","","","NaN",""
"","S1","","html-keyboard-response","356","538008","0.0-1.0-497.0","0","0","91505","","null","","","null","55","","","","","","","","","","","","","","","",""
"","ISI","","html-keyboard-response","357","540022","0.0-1.0-498.0","0","0","91505","","null","","","null","55","NaN","","","","","","","","","","","","","","",""
"","S2","","html-keyboard-response","358","540285","0.0-1.0-499.0","0","0","91505","","null","","","null","55","","NaN","","","","","","","","","","","","","",""
"","response","","html-keyboard-response","359","541222","0.0-1.0-500.0-0.0","0","0","91505","","926","","","75","55","","","2","55","training","adjacent","FG","6","7","R.jpg","M.jpg","1","1","1","",""
"","feedback","","html-keyboard-response","360","542234","0.0-1.0-501.0-0.0","0","0","91505","","null","","","null","55","","","","","","","","","","","","","","","",""
"","ITI","","html-keyboard-response","361","543249","0.0-1.0-504.0","0","0","91505","","null","","","null","55","","","","","","","","","","","","","","","NaN",""
"","S1","","html-keyboard-response","362","543514","0.0-1.0-506.0","0","0","91505","","null","","","null","56","","","","","","","","","","","","","","","",""
"","ISI","","html-keyboard-response","363","545524","0.0-1.0-507.0","0","0","91505","","null","","","null","56","NaN","","","","","","","","","","","","","","",""
"","S2","","html-keyboard-response","364","545785","0.0-1.0-508.0","0","0","91505","","null","","","null","56","","NaN","","","","","","","","","","","","","",""
"","response","","html-keyboard-response","365","546395","0.0-1.0-509.0-0.0","0","0","91505","","600","","","68","56","","","2","56","training","adjacent","DE","4","5","L.jpg","O.jpg","0","1","0","",""
"","feedback","","html-keyboard-response","366","547409","0.0-1.0-510.0-0.0","0","0","91505","","null","","","null","56","","","","","","","","","","","","","","","",""
"","time_out","","html-keyboard-response","367","549421","0.0-1.0-512.0-0.0","0","0","91505","","null","","","null","56","","","","","","","","","","","","","","","",""
"","ITI","","html-keyboard-response","368","550433","0.0-1.0-513.0","0","0","91505","","null","","","null","56","","","","","","","","","","","","","","","NaN",""
"","S1","","html-keyboard-response","369","550696","0.0-1.0-515.0","0","0","91505","","null","","","null","57","","","","","","","","","","","","","","","",""
"","ISI","","html-keyboard-response","370","552710","0.0-1.0-516.0","0","0","91505","","null","","","null","57","NaN","","","","","","","","","","","","","","",""
"","S2","","html-keyboard-response","371","552973","0.0-1.0-517.0","0","0","91505","","null","","","null","57","","NaN","","","","","","","","","","","","","",""
"","response","","html-keyboard-response","372","553816","0.0-1.0-518.0-0.0","0","0","91505","","831","","","68","57","","","2","57","training","adjacent","DC","4","3","L.jpg","Q.jpg","0","0","1","",""
"","feedback","","html-keyboard-response","373","554828","0.0-1.0-519.0-0.0","0","0","91505","","null","","","null","57","","","","","","","","","","","","","","","",""
"","ITI","","html-keyboard-response","374","555841","0.0-1.0-522.0","0","0","91505","","null","","","null","57","","","","","","","","","","","","","","","NaN",""
"","S1","","html-keyboard-response","375","556105","0.0-1.0-524.0","0","0","91505","","null","","","null","58","","","","","","","","","","","","","","","",""
"","ISI","","html-keyboard-response","376","558116","0.0-1.0-525.0","0","0","91505","","null","","","null","58","NaN","","","","","","","","","","","","","","",""
"","S2","","html-keyboard-response","377","558377","0.0-1.0-526.0","0","0","91505","","null","","","null","58","","NaN","","","","","","","","","","","","","",""
"","response","","html-keyboard-response","378","559015","0.0-1.0-527.0-0.0","0","0","91505","","630","","","75","58","","","2","58","training","adjacent","BC","2","3","N.jpg","Q.jpg","1","1","1","",""
"","feedback","","html-keyboard-response","379","560025","0.0-1.0-528.0-0.0","0","0","91505","","null","","","null","58","","","","","","","","","","","","","","","",""
"","ITI","","html-keyboard-response","380","561038","0.0-1.0-531.0","0","0","91505","","null","","","null","58","","","","","","","","","","","","","","","NaN",""
"","S1","","html-keyboard-response","381","561304","0.0-1.0-533.0","0","0","91505","","null","","","null","59","","","","","","","","","","","","","","","",""
"","ISI","","html-keyboard-response","382","563314","0.0-1.0-534.0","0","0","91505","","null","","","null","59","NaN","","","","","","","","","","","","","","",""
"","S2","","html-keyboard-response","383","563578","0.0-1.0-535.0","0","0","91505","","null","","","null","59","","NaN","","","","","","","","","","","","","",""
"","response","","html-keyboard-response","384","564101","0.0-1.0-536.0-0.0","0","0","91505","","511","","","68","59","","","2","59","training","adjacent","CD","3","4","Q.jpg","L.jpg","0","1","0","",""
"","feedback","","html-keyboard-response","385","565112","0.0-1.0-537.0-0.0","0","0","91505","","null","","","null","59","","","","","","","","","","","","","","","",""
"","time_out","","html-keyboard-response","386","567122","0.0-1.0-539.0-0.0","0","0","91505","","null","","","null","59","","","","","","","","","","","","","","","",""
"","ITI","","html-keyboard-response","387","568134","0.0-1.0-540.0","0","0","91505","","null","","","null","59","","","","","","","","","","","","","","","NaN",""
"","S1","","html-keyboard-response","388","568394","0.0-1.0-542.0","0","0","91505","","null","","","null","60","","","","","","","","","","","","","","","",""
"","ISI","","html-keyboard-response","389","570406","0.0-1.0-543.0","0","0","91505","","null","","","null","60","NaN","","","","","","","","","","","","","","",""
"","S2","","html-keyboard-response","390","570672","0.0-1.0-544.0","0","0","91505","","null","","","null","60","","NaN","","","","","","","","","","","","","",""
"","response","","html-keyboard-response","391","571599","0.0-1.0-545.0-0.0","0","0","91505","","916","","","75","60","","","2","60","training","adjacent","BC","2","3","N.jpg","Q.jpg","1","1","1","",""
"","feedback","","html-keyboard-response","392","572613","0.0-1.0-546.0-0.0","0","0","91505","","null","","","null","60","","","","","","","","","","","","","","","",""
"","ITI","","html-keyboard-response","393","573626","0.0-1.0-549.0","0","0","91505","","null","","","null","60","","","","","","","","","","","","","","","NaN",""
"","S1","","html-keyboard-response","394","573888","0.0-1.0-551.0","0","0","91505","","null","","","null","61","","","","","","","","","","","","","","","",""
"","ISI","","html-keyboard-response","395","575900","0.0-1.0-552.0","0","0","91505","","null","","","null","61","NaN","","","","","","","","","","","","","","",""
"","S2","","html-keyboard-response","396","576159","0.0-1.0-553.0","0","0","91505","","null","","","null","61","","NaN","","","","","","","","","","","","","",""
"","response","","html-keyboard-response","397","576808","0.0-1.0-554.0-0.0","0","0","91505","","640","","","68","61","","","2","61","training","adjacent","BA","2","1","N.jpg","P.jpg","0","0","1","",""
"","feedback","","html-keyboard-response","398","577824","0.0-1.0-555.0-0.0","0","0","91505","","null","","","null","61","","","","","","","","","","","","","","","",""
"","ITI","","html-keyboard-response","399","578832","0.0-1.0-558.0","0","0","91505","","null","","","null","61","","","","","","","","","","","","","","","NaN",""
"","S1","","html-keyboard-response","400","579091","0.0-1.0-560.0","0","0","91505","","null","","","null","62","","","","","","","","","","","","","","","",""
"","ISI","","html-keyboard-response","401","581098","0.0-1.0-561.0","0","0","91505","","null","","","null","62","NaN","","","","","","","","","","","","","","",""
"","S2","","html-keyboard-response","402","581355","0.0-1.0-562.0","0","0","91505","","null","","","null","62","","NaN","","","","","","","","","","","","","",""
"","response","","html-keyboard-response","403","582115","0.0-1.0-563.0-0.0","0","0","91505","","753","","","68","62","","","2","62","training","adjacent","DC","4","3","L.jpg","Q.jpg","0","0","1","",""
"","feedback","","html-keyboard-response","404","583124","0.0-1.0-564.0-0.0","0","0","91505","","null","","","null","62","","","","","","","","","","","","","","","",""
"","ITI","","html-keyboard-response","405","584137","0.0-1.0-567.0","0","0","91505","","null","","","null","62","","","","","","","","","","","","","","","NaN",""
"","S1","","html-keyboard-response","406","584399","0.0-1.0-569.0","0","0","91505","","null","","","null","63","","","","","","","","","","","","","","","",""
"","ISI","","html-keyboard-response","407","586412","0.0-1.0-570.0","0","0","91505","","null","","","null","63","NaN","","","","","","","","","","","","","","",""
"","S2","","html-keyboard-response","408","586675","0.0-1.0-571.0","0","0","91505","","null","","","null","63","","NaN","","","","","","","","","","","","","",""
"","response","","html-keyboard-response","409","587273","0.0-1.0-572.0-0.0","0","0","91505","","588","","","68","63","","","2","63","training","adjacent","BC","2","3","N.jpg","Q.jpg","0","1","0","",""
"","feedback","","html-keyboard-response","410","588287","0.0-1.0-573.0-0.0","0","0","91505","","null","","","null","63","","","","","","","","","","","","","","","",""
"","time_out","","html-keyboard-response","411","590298","0.0-1.0-575.0-0.0","0","0","91505","","null","","","null","63","","","","","","","","","","","","","","","",""
"","ITI","","html-keyboard-response","412","591307","0.0-1.0-576.0","0","0","91505","","null","","","null","63","","","","","","","","","","","","","","","NaN",""
"","S1","","html-keyboard-response","413","591564","0.0-1.0-578.0","0","0","91505","","null","","","null","64","","","","","","","","","","","","","","","",""
"","ISI","","html-keyboard-response","414","593576","0.0-1.0-579.0","0","0","91505","","null","","","null","64","NaN","","","","","","","","","","","","","","",""
"","S2","","html-keyboard-response","415","593838","0.0-1.0-580.0","0","0","91505","","null","","","null","64","","NaN","","","","","","","","","","","","","",""
"","response","","html-keyboard-response","416","594334","0.0-1.0-581.0-0.0","0","0","91505","","486","","","75","64","","","2","64","training","adjacent","CB","3","2","Q.jpg","N.jpg","1","0","0","",""
"","feedback","","html-keyboard-response","417","595348","0.0-1.0-582.0-0.0","0","0","91505","","null","","","null","64","","","","","","","","","","","","","","","",""
"","time_out","","html-keyboard-response","418","597360","0.0-1.0-584.0-0.0","0","0","91505","","null","","","null","64","","","","","","","","","","","","","","","",""
"","ITI","","html-keyboard-response","419","598373","0.0-1.0-585.0","0","0","91505","","null","","","null","64","","","","","","","","","","","","","","","NaN",""
"","S1","","html-keyboard-response","420","598633","0.0-1.0-587.0","0","0","91505","","null","","","null","65","","","","","","","","","","","","","","","",""
"","ISI","","html-keyboard-response","421","600643","0.0-1.0-588.0","0","0","91505","","null","","","null","65","NaN","","","","","","","","","","","","","","",""
"","S2","","html-keyboard-response","422","600905","0.0-1.0-589.0","0","0","91505","","null","","","null","65","","NaN","","","","","","","","","","","","","",""
"","response","","html-keyboard-response","423","601803","0.0-1.0-590.0-0.0","0","0","91505","","888","","","75","65","","","2","65","training","adjacent","ED","5","4","O.jpg","L.jpg","1","0","0","",""
"","feedback","","html-keyboard-response","424","602819","0.0-1.0-591.0-0.0","0","0","91505","","null","","","null","65","","","","","","","","","","","","","","","",""
"","time_out","","html-keyboard-response","425","604828","0.0-1.0-593.0-0.0","0","0","91505","","null","","","null","65","","","","","","","","","","","","","","","",""
"","ITI","","html-keyboard-response","426","605841","0.0-1.0-594.0","0","0","91505","","null","","","null","65","","","","","","","","","","","","","","","NaN",""
"","S1","","html-keyboard-response","427","606104","0.0-1.0-596.0","0","0","91505","","null","","","null","66","","","","","","","","","","","","","","","",""
"","ISI","","html-keyboard-response","428","608117","0.0-1.0-597.0","0","0","91505","","null","","","null","66","NaN","","","","","","","","","","","","","","",""
"","S2","","html-keyboard-response","429","608374","0.0-1.0-598.0","0","0","91505","","null","","","null","66","","NaN","","","","","","","","","","","","","",""
"","response","","html-keyboard-response","430","609377","0.0-1.0-599.0-0.0","0","0","91505","","992","","","75","66","","","2","66","training","adjacent","EF","5","6","O.jpg","R.jpg","1","1","1","",""
"","feedback","","html-keyboard-response","431","610390","0.0-1.0-600.0-0.0","0","0","91505","","null","","","null","66","","","","","","","","","","","","","","","",""
"","ITI","","html-keyboard-response","432","611403","0.0-1.0-603.0","0","0","91505","","null","","","null","66","","","","","","","","","","","","","","","NaN",""
"","S1","","html-keyboard-response","433","611667","0.0-1.0-605.0","0","0","91505","","null","","","null","67","","","","","","","","","","","","","","","",""
"","ISI","","html-keyboard-response","434","613681","0.0-1.0-606.0","0","0","91505","","null","","","null","67","NaN","","","","","","","","","","","","","","",""
"","S2","","html-keyboard-response","435","613943","0.0-1.0-607.0","0","0","91505","","null","","","null","67","","NaN","","","","","","","","","","","","","",""
"","response","","html-keyboard-response","436","614736","0.0-1.0-608.0-0.0","0","0","91505","","778","","","68","67","","","2","67","training","adjacent","FE","6","5","R.jpg","O.jpg","0","0","1","",""
"","feedback","","html-keyboard-response","437","615759","0.0-1.0-609.0-0.0","0","0","91505","","null","","","null","67","","","","","","","","","","","","","","","",""
"","ITI","","html-keyboard-response","438","616768","0.0-1.0-612.0","0","0","91505","","null","","","null","67","","","","","","","","","","","","","","","NaN",""
"","S1","","html-keyboard-response","439","617032","0.0-1.0-614.0","0","0","91505","","null","","","null","68","","","","","","","","","","","","","","","",""
"","ISI","","html-keyboard-response","440","619043","0.0-1.0-615.0","0","0","91505","","null","","","null","68","NaN","","","","","","","","","","","","","","",""
"","S2","","html-keyboard-response","441","619305","0.0-1.0-616.0","0","0","91505","","null","","","null","68","","NaN","","","","","","","","","","","","","",""
"","response","","html-keyboard-response","442","619702","0.0-1.0-617.0-0.0","0","0","91505","","384","","","75","68","","","2","68","training","adjacent","BC","2","3","N.jpg","Q.jpg","1","1","1","",""
"","feedback","","html-keyboard-response","443","620712","0.0-1.0-618.0-0.0","0","0","91505","","null","","","null","68","","","","","","","","","","","","","","","",""
"","ITI","","html-keyboard-response","444","621721","0.0-1.0-621.0","0","0","91505","","null","","","null","68","","","","","","","","","","","","","","","NaN",""
"","S1","","html-keyboard-response","445","621984","0.0-1.0-623.0","0","0","91505","","null","","","null","69","","","","","","","","","","","","","","","",""
"","ISI","","html-keyboard-response","446","623996","0.0-1.0-624.0","0","0","91505","","null","","","null","69","NaN","","","","","","","","","","","","","","",""
"","S2","","html-keyboard-response","447","624255","0.0-1.0-625.0","0","0","91505","","null","","","null","69","","NaN","","","","","","","","","","","","","",""
"","response","","html-keyboard-response","448","624733","0.0-1.0-626.0-0.0","0","0","91505","","466","","","75","69","","","2","69","training","adjacent","AB","1","2","P.jpg","N.jpg","1","1","1","",""
"","feedback","","html-keyboard-response","449","625747","0.0-1.0-627.0-0.0","0","0","91505","","null","","","null","69","","","","","","","","","","","","","","","",""
"","ITI","","html-keyboard-response","450","626767","0.0-1.0-630.0","0","0","91505","","null","","","null","69","","","","","","","","","","","","","","","NaN",""
"","S1","","html-keyboard-response","451","627031","0.0-1.0-632.0","0","0","91505","","null","","","null","70","","","","","","","","","","","","","","","",""
"","ISI","","html-keyboard-response","452","629044","0.0-1.0-633.0","0","0","91505","","null","","","null","70","NaN","","","","","","","","","","","","","","",""
"","S2","","html-keyboard-response","453","629305","0.0-1.0-634.0","0","0","91505","","null","","","null","70","","NaN","","","","","","","","","","","","","",""
"","response","","html-keyboard-response","454","629761","0.0-1.0-635.0-0.0","0","0","91505","","445","","","68","70","","","2","70","training","adjacent","BA","2","1","N.jpg","P.jpg","0","0","1","",""
"","feedback","","html-keyboard-response","455","630776","0.0-1.0-636.0-0.0","0","0","91505","","null","","","null","70","","","","","","","","","","","","","","","",""
"","ITI","","html-keyboard-response","456","631793","0.0-1.0-639.0","0","0","91505","","null","","","null","70","","","","","","","","","","","","","","","NaN",""
"","S1","","html-keyboard-response","457","632053","0.0-1.0-641.0","0","0","91505","","null","","","null","71","","","","","","","","","","","","","","","",""
"","ISI","","html-keyboard-response","458","634066","0.0-1.0-642.0","0","0","91505","","null","","","null","71","NaN","","","","","","","","","","","","","","",""
"","S2","","html-keyboard-response","459","634325","0.0-1.0-643.0","0","0","91505","","null","","","null","71","","NaN","","","","","","","","","","","","","",""
"","response","","html-keyboard-response","460","634848","0.0-1.0-644.0-0.0","0","0","91505","","512","","","68","71","","","2","71","training","adjacent","FG","6","7","R.jpg","M.jpg","0","1","0","",""
"","feedback","","html-keyboard-response","461","635861","0.0-1.0-645.0-0.0","0","0","91505","","null","","","null","71","","","","","","","","","","","","","","","",""
"","time_out","","html-keyboard-response","462","637873","0.0-1.0-647.0-0.0","0","0","91505","","null","","","null","71","","","","","","","","","","","","","","","",""
"","ITI","","html-keyboard-response","463","638886","0.0-1.0-648.0","0","0","91505","","null","","","null","71","","","","","","","","","","","","","","","NaN",""
"","S1","","html-keyboard-response","464","639149","0.0-1.0-650.0","0","0","91505","","null","","","null","72","","","","","","","","","","","","","","","",""
"","ISI","","html-keyboard-response","465","641162","0.0-1.0-651.0","0","0","91505","","null","","","null","72","NaN","","","","","","","","","","","","","","",""
"","S2","","html-keyboard-response","466","641423","0.0-1.0-652.0","0","0","91505","","null","","","null","72","","NaN","","","","","","","","","","","","","",""
"","response","","html-keyboard-response","467","641912","0.0-1.0-653.0-0.0","0","0","91505","","478","","","68","72","","","2","72","training","adjacent","FE","6","5","R.jpg","O.jpg","0","0","1","",""
"","feedback","","html-keyboard-response","468","642924","0.0-1.0-654.0-0.0","0","0","91505","","null","","","null","72","","","","","","","","","","","","","","","",""
"","ITI","","html-keyboard-response","469","643937","0.0-1.0-657.0","0","0","91505","","null","","","null","72","","","","","","","","","","","","","","","NaN",""
"","S1","","html-keyboard-response","470","644202","0.0-1.0-659.0","0","0","91505","","null","","","null","73","","","","","","","","","","","","","","","",""
"","ISI","","html-keyboard-response","471","646216","0.0-1.0-660.0","0","0","91505","","null","","","null","73","NaN","","","","","","","","","","","","","","",""
"","S2","","html-keyboard-response","472","646477","0.0-1.0-661.0","0","0","91505","","null","","","null","73","","NaN","","","","","","","","","","","","","",""
"","response","","html-keyboard-response","473","647054","0.0-1.0-662.0-0.0","0","0","91505","","566","","","68","73","","","2","73","training","adjacent","FE","6","5","R.jpg","O.jpg","0","0","1","",""
"","feedback","","html-keyboard-response","474","648069","0.0-1.0-663.0-0.0","0","0","91505","","null","","","null","73","","","","","","","","","","","","","","","",""
"","ITI","","html-keyboard-response","475","649084","0.0-1.0-666.0","0","0","91505","","null","","","null","73","","","","","","","","","","","","","","","NaN",""
"","S1","","html-keyboard-response","476","649347","0.0-1.0-668.0","0","0","91505","","null","","","null","74","","","","","","","","","","","","","","","",""
"","ISI","","html-keyboard-response","477","651360","0.0-1.0-669.0","0","0","91505","","null","","","null","74","NaN","","","","","","","","","","","","","","",""
"","S2","","html-keyboard-response","478","651623","0.0-1.0-670.0","0","0","91505","","null","","","null","74","","NaN","","","","","","","","","","","","","",""
"","response","","html-keyboard-response","479","652310","0.0-1.0-671.0-0.0","0","0","91505","","673","","","75","74","","","2","74","training","adjacent","DC","4","3","L.jpg","Q.jpg","1","0","0","",""
"","feedback","","html-keyboard-response","480","653324","0.0-1.0-672.0-0.0","0","0","91505","","null","","","null","74","","","","","","","","","","","","","","","",""
"","time_out","","html-keyboard-response","481","655332","0.0-1.0-674.0-0.0","0","0","91505","","null","","","null","74","","","","","","","","","","","","","","","",""
"","ITI","","html-keyboard-response","482","656338","0.0-1.0-675.0","0","0","91505","","null","","","null","74","","","","","","","","","","","","","","","NaN",""
"","S1","","html-keyboard-response","483","656596","0.0-1.0-677.0","0","0","91505","","null","","","null","75","","","","","","","","","","","","","","","",""
"","ISI","","html-keyboard-response","484","658606","0.0-1.0-678.0","0","0","91505","","null","","","null","75","NaN","","","","","","","","","","","","","","",""
"","S2","","html-keyboard-response","485","658870","0.0-1.0-679.0","0","0","91505","","null","","","null","75","","NaN","","","","","","","","","","","","","",""
"","response","","html-keyboard-response","486","659428","0.0-1.0-680.0-0.0","0","0","91505","","548","","","68","75","","","2","75","training","adjacent","BA","2","1","N.jpg","P.jpg","0","0","1","",""
"","feedback","","html-keyboard-response","487","660440","0.0-1.0-681.0-0.0","0","0","91505","","null","","","null","75","","","","","","","","","","","","","","","",""
"","ITI","","html-keyboard-response","488","661454","0.0-1.0-684.0","0","0","91505","","null","","","null","75","","","","","","","","","","","","","","","NaN",""
"","S1","","html-keyboard-response","489","661719","0.0-1.0-686.0","0","0","91505","","null","","","null","76","","","","","","","","","","","","","","","",""
"","ISI","","html-keyboard-response","490","663732","0.0-1.0-687.0","0","0","91505","","null","","","null","76","NaN","","","","","","","","","","","","","","",""
"","S2","","html-keyboard-response","491","663993","0.0-1.0-688.0","0","0","91505","","null","","","null","76","","NaN","","","","","","","","","","","","","",""
"","response","","html-keyboard-response","492","664477","0.0-1.0-689.0-0.0","0","0","91505","","472","","","75","76","","","2","76","training","adjacent","CB","3","2","Q.jpg","N.jpg","1","0","0","",""
"","feedback","","html-keyboard-response","493","665490","0.0-1.0-690.0-0.0","0","0","91505","","null","","","null","76","","","","","","","","","","","","","","","",""
"","time_out","","html-keyboard-response","494","667506","0.0-1.0-692.0-0.0","0","0","91505","","null","","","null","76","","","","","","","","","","","","","","","",""
"","ITI","","html-keyboard-response","495","668517","0.0-1.0-693.0","0","0","91505","","null","","","null","76","","","","","","","","","","","","","","","NaN",""
"","S1","","html-keyboard-response","496","668781","0.0-1.0-695.0","0","0","91505","","null","","","null","77","","","","","","","","","","","","","","","",""
"","ISI","","html-keyboard-response","497","670789","0.0-1.0-696.0","0","0","91505","","null","","","null","77","NaN","","","","","","","","","","","","","","",""
"","S2","","html-keyboard-response","498","671049","0.0-1.0-697.0","0","0","91505","","null","","","null","77","","NaN","","","","","","","","","","","","","",""
"","response","","html-keyboard-response","499","671919","0.0-1.0-698.0-0.0","0","0","91505","","862","","","75","77","","","2","77","training","adjacent","GF","7","6","M.jpg","R.jpg","1","0","0","",""
"","feedback","","html-keyboard-response","500","672931","0.0-1.0-699.0-0.0","0","0","91505","","null","","","null","77","","","","","","","","","","","","","","","",""
"","time_out","","html-keyboard-response","501","674945","0.0-1.0-701.0-0.0","0","0","91505","","null","","","null","77","","","","","","","","","","","","","","","",""
"","ITI","","html-keyboard-response","502","675956","0.0-1.0-702.0","0","0","91505","","null","","","null","77","","","","","","","","","","","","","","","NaN",""
"","S1","","html-keyboard-response","503","676218","0.0-1.0-704.0","0","0","91505","","null","","","null","78","","","","","","","","","","","","","","","",""
"","ISI","","html-keyboard-response","504","678230","0.0-1.0-705.0","0","0","91505","","null","","","null","78","NaN","","","","","","","","","","","","","","",""
"","S2","","html-keyboard-response","505","678495","0.0-1.0-706.0","0","0","91505","","null","","","null","78","","NaN","","","","","","","","","","","","","",""
"","response","","html-keyboard-response","506","679326","0.0-1.0-707.0-0.0","0","0","91505","","821","","","68","78","","","2","78","training","adjacent","CD","3","4","Q.jpg","L.jpg","0","1","0","",""
"","feedback","","html-keyboard-response","507","680335","0.0-1.0-708.0-0.0","0","0","91505","","null","","","null","78","","","","","","","","","","","","","","","",""
"","time_out","","html-keyboard-response","508","682346","0.0-1.0-710.0-0.0","0","0","91505","","null","","","null","78","","","","","","","","","","","","","","","",""
"","ITI","","html-keyboard-response","509","683353","0.0-1.0-711.0","0","0","91505","","null","","","null","78","","","","","","","","","","","","","","","NaN",""
"","S1","","html-keyboard-response","510","683617","0.0-1.0-713.0","0","0","91505","","null","","","null","79","","","","","","","","","","","","","","","",""
"","ISI","","html-keyboard-response","511","685628","0.0-1.0-714.0","0","0","91505","","null","","","null","79","NaN","","","","","","","","","","","","","","",""
"","S2","","html-keyboard-response","512","685892","0.0-1.0-715.0","0","0","91505","","null","","","null","79","","NaN","","","","","","","","","","","","","",""
"","response","","html-keyboard-response","513","686547","0.0-1.0-716.0-0.0","0","0","91505","","644","","","75","79","","","2","79","training","adjacent","EF","5","6","O.jpg","R.jpg","1","1","1","",""
"","feedback","","html-keyboard-response","514","687563","0.0-1.0-717.0-0.0","0","0","91505","","null","","","null","79","","","","","","","","","","","","","","","",""
"","ITI","","html-keyboard-response","515","688572","0.0-1.0-720.0","0","0","91505","","null","","","null","79","","","","","","","","","","","","","","","NaN",""
"","S1","","html-keyboard-response","516","688837","0.0-1.0-722.0","0","0","91505","","null","","","null","80","","","","","","","","","","","","","","","",""
"","ISI","","html-keyboard-response","517","690850","0.0-1.0-723.0","0","0","91505","","null","","","null","80","NaN","","","","","","","","","","","","","","",""
"","S2","","html-keyboard-response","518","691112","0.0-1.0-724.0","0","0","91505","","null","","","null","80","","NaN","","","","","","","","","","","","","",""
"","response","","html-keyboard-response","519","691818","0.0-1.0-725.0-0.0","0","0","91505","","697","","","75","80","","","2","80","training","adjacent","GF","7","6","M.jpg","R.jpg","1","0","0","",""
"","feedback","","html-keyboard-response","520","692827","0.0-1.0-726.0-0.0","0","0","91505","","null","","","null","80","","","","","","","","","","","","","","","",""
"","time_out","","html-keyboard-response","521","694838","0.0-1.0-728.0-0.0","0","0","91505","","null","","","null","80","","","","","","","","","","","","","","","",""
"","ITI","","html-keyboard-response","522","695850","0.0-1.0-729.0","0","0","91505","","null","","","null","80","","","","","","","","","","","","","","","NaN",""
"","S1","","html-keyboard-response","523","696112","0.0-1.0-731.0","0","0","91505","","null","","","null","81","","","","","","","","","","","","","","","",""
"","ISI","","html-keyboard-response","524","698125","0.0-1.0-732.0","0","0","91505","","null","","","null","81","NaN","","","","","","","","","","","","","","",""
"","S2","","html-keyboard-response","525","698388","0.0-1.0-733.0","0","0","91505","","null","","","null","81","","NaN","","","","","","","","","","","","","",""
"","response","","html-keyboard-response","526","698987","0.0-1.0-734.0-0.0","0","0","91505","","587","","","68","81","","","2","81","training","adjacent","DE","4","5","L.jpg","O.jpg","0","1","0","",""
"","feedback","","html-keyboard-response","527","700000","0.0-1.0-735.0-0.0","0","0","91505","","null","","","null","81","","","","","","","","","","","","","","","",""
"","time_out","","html-keyboard-response","528","702014","0.0-1.0-737.0-0.0","0","0","91505","","null","","","null","81","","","","","","","","","","","","","","","",""
"","ITI","","html-keyboard-response","529","703026","0.0-1.0-738.0","0","0","91505","","null","","","null","81","","","","","","","","","","","","","","","NaN",""
"","S1","","html-keyboard-response","530","703289","0.0-1.0-740.0","0","0","91505","","null","","","null","82","","","","","","","","","","","","","","","",""
"","ISI","","html-keyboard-response","531","705302","0.0-1.0-741.0","0","0","91505","","null","","","null","82","NaN","","","","","","","","","","","","","","",""
"","S2","","html-keyboard-response","532","705566","0.0-1.0-742.0","0","0","91505","","null","","","null","82","","NaN","","","","","","","","","","","","","",""
"","response","","html-keyboard-response","533","706028","0.0-1.0-743.0-0.0","0","0","91505","","446","","","75","82","","","2","82","training","adjacent","AB","1","2","P.jpg","N.jpg","1","1","1","",""
"","feedback","","html-keyboard-response","534","707042","0.0-1.0-744.0-0.0","0","0","91505","","null","","","null","82","","","","","","","","","","","","","","","",""
"","ITI","","html-keyboard-response","535","708052","0.0-1.0-747.0","0","0","91505","","null","","","null","82","","","","","","","","","","","","","","","NaN",""
"","S1","","html-keyboard-response","536","708316","0.0-1.0-749.0","0","0","91505","","null","","","null","83","","","","","","","","","","","","","","","",""
"","ISI","","html-keyboard-response","537","710324","0.0-1.0-750.0","0","0","91505","","null","","","null","83","NaN","","","","","","","","","","","","","","",""
"","S2","","html-keyboard-response","538","710586","0.0-1.0-751.0","0","0","91505","","null","","","null","83","","NaN","","","","","","","","","","","","","",""
"","response","","html-keyboard-response","539","711297","0.0-1.0-752.0-0.0","0","0","91505","","699","","","68","83","","","2","83","training","adjacent","DC","4","3","L.jpg","Q.jpg","0","0","1","",""
"","feedback","","html-keyboard-response","540","712310","0.0-1.0-753.0-0.0","0","0","91505","","null","","","null","83","","","","","","","","","","","","","","","",""
"","ITI","","html-keyboard-response","541","713329","0.0-1.0-756.0","0","0","91505","","null","","","null","83","","","","","","","","","","","","","","","NaN",""
"","S1","","html-keyboard-response","542","713590","0.0-1.0-758.0","0","0","91505","","null","","","null","84","","","","","","","","","","","","","","","",""
"","ISI","","html-keyboard-response","543","715600","0.0-1.0-759.0","0","0","91505","","null","","","null","84","NaN","","","","","","","","","","","","","","",""
"","S2","","html-keyboard-response","544","715862","0.0-1.0-760.0","0","0","91505","","null","","","null","84","","NaN","","","","","","","","","","","","","",""
"","response","","html-keyboard-response","545","716800","0.0-1.0-761.0-0.0","0","0","91505","","930","","","75","84","","","2","84","training","adjacent","DE","4","5","L.jpg","O.jpg","1","1","1","",""
"","feedback","","html-keyboard-response","546","717815","0.0-1.0-762.0-0.0","0","0","91505","","null","","","null","84","","","","","","","","","","","","","","","",""
"","ITI","","html-keyboard-response","547","718824","0.0-1.0-765.0","0","0","91505","","null","","","null","84","","","","","","","","","","","","","","","NaN",""
"","S1","","html-keyboard-response","548","719083","0.0-1.0-767.0","0","0","91505","","null","","","null","85","","","","","","","","","","","","","","","",""
"","ISI","","html-keyboard-response","549","721093","0.0-1.0-768.0","0","0","91505","","null","","","null","85","NaN","","","","","","","","","","","","","","",""
"","S2","","html-keyboard-response","550","721358","0.0-1.0-769.0","0","0","91505","","null","","","null","85","","NaN","","","","","","","","","","","","","",""
"","response","","html-keyboard-response","551","721913","0.0-1.0-770.0-0.0","0","0","91505","","547","","","75","85","","","2","85","training","adjacent","FG","6","7","R.jpg","M.jpg","1","1","1","",""
"","feedback","","html-keyboard-response","552","722927","0.0-1.0-771.0-0.0","0","0","91505","","null","","","null","85","","","","","","","","","","","","","","","",""
"","ITI","","html-keyboard-response","553","723942","0.0-1.0-774.0","0","0","91505","","null","","","null","85","","","","","","","","","","","","","","","NaN",""
"","S1","","html-keyboard-response","554","724205","0.0-1.0-776.0","0","0","91505","","null","","","null","86","","","","","","","","","","","","","","","",""
"","ISI","","html-keyboard-response","555","726219","0.0-1.0-777.0","0","0","91505","","null","","","null","86","NaN","","","","","","","","","","","","","","",""
"","S2","","html-keyboard-response","556","726481","0.0-1.0-778.0","0","0","91505","","null","","","null","86","","NaN","","","","","","","","","","","","","",""
"","response","","html-keyboard-response","557","726901","0.0-1.0-779.0-0.0","0","0","91505","","408","","","75","86","","","2","86","training","adjacent","CB","3","2","Q.jpg","N.jpg","1","0","0","",""
"","feedback","","html-keyboard-response","558","727916","0.0-1.0-780.0-0.0","0","0","91505","","null","","","null","86","","","","","","","","","","","","","","","",""
"","time_out","","html-keyboard-response","559","729929","0.0-1.0-782.0-0.0","0","0","91505","","null","","","null","86","","","","","","","","","","","","","","","",""
"","ITI","","html-keyboard-response","560","730943","0.0-1.0-783.0","0","0","91505","","null","","","null","86","","","","","","","","","","","","","","","NaN",""
"","S1","","html-keyboard-response","561","731204","0.0-1.0-785.0","0","0","91505","","null","","","null","87","","","","","","","","","","","","","","","",""
"","ISI","","html-keyboard-response","562","733217","0.0-1.0-786.0","0","0","91505","","null","","","null","87","NaN","","","","","","","","","","","","","","",""
"","S2","","html-keyboard-response","563","733480","0.0-1.0-787.0","0","0","91505","","null","","","null","87","","NaN","","","","","","","","","","","","","",""
"","response","","html-keyboard-response","564","734261","0.0-1.0-788.0-0.0","0","0","91505","","768","","","75","87","","","2","87","training","adjacent","EF","5","6","O.jpg","R.jpg","1","1","1","",""
"","feedback","","html-keyboard-response","565","735276","0.0-1.0-789.0-0.0","0","0","91505","","null","","","null","87","","","","","","","","","","","","","","","",""
"","ITI","","html-keyboard-response","566","736290","0.0-1.0-792.0","0","0","91505","","null","","","null","87","","","","","","","","","","","","","","","NaN",""
"","S1","","html-keyboard-response","567","736552","0.0-1.0-794.0","0","0","91505","","null","","","null","88","","","","","","","","","","","","","","","",""
"","ISI","","html-keyboard-response","568","738561","0.0-1.0-795.0","0","0","91505","","null","","","null","88","NaN","","","","","","","","","","","","","","",""
"","S2","","html-keyboard-response","569","738823","0.0-1.0-796.0","0","0","91505","","null","","","null","88","","NaN","","","","","","","","","","","","","",""
"","response","","html-keyboard-response","570","739546","0.0-1.0-797.0-0.0","0","0","91505","","711","","","75","88","","","2","88","training","adjacent","EF","5","6","O.jpg","R.jpg","1","1","1","",""
"","feedback","","html-keyboard-response","571","740560","0.0-1.0-798.0-0.0","0","0","91505","","null","","","null","88","","","","","","","","","","","","","","","",""
"","ITI","","html-keyboard-response","572","741575","0.0-1.0-801.0","0","0","91505","","null","","","null","88","","","","","","","","","","","","","","","NaN",""
"","S1","","html-keyboard-response","573","741841","0.0-1.0-803.0","0","0","91505","","null","","","null","89","","","","","","","","","","","","","","","",""
"","ISI","","html-keyboard-response","574","743852","0.0-1.0-804.0","0","0","91505","","null","","","null","89","NaN","","","","","","","","","","","","","","",""
"","S2","","html-keyboard-response","575","744115","0.0-1.0-805.0","0","0","91505","","null","","","null","89","","NaN","","","","","","","","","","","","","",""
"","response","","html-keyboard-response","576","744635","0.0-1.0-806.0-0.0","0","0","91505","","510","","","75","89","","","2","89","training","adjacent","CD","3","4","Q.jpg","L.jpg","1","1","1","",""
"","feedback","","html-keyboard-response","577","745649","0.0-1.0-807.0-0.0","0","0","91505","","null","","","null","89","","","","","","","","","","","","","","","",""
"","ITI","","html-keyboard-response","578","746667","0.0-1.0-810.0","0","0","91505","","null","","","null","89","","","","","","","","","","","","","","","NaN",""
"","S1","","html-keyboard-response","579","746930","0.0-1.0-812.0","0","0","91505","","null","","","null","90","","","","","","","","","","","","","","","",""
"","ISI","","html-keyboard-response","580","748941","0.0-1.0-813.0","0","0","91505","","null","","","null","90","NaN","","","","","","","","","","","","","","",""
