"success","ttype","start_time","trial_type","trial_index","time_elapsed","internal_node_id","warning","missed_checkup","PID","view_history","rt","responses","repeat_instructions","key_press","index","keypress_isi","keypress_S2","block","trial_num","phase","group_type","pair_type","S1_stim","S2_stim","S1_img","S2_img","S1_chosen","S1_higher","accuracy","keypress_iti","total_bonus_tally"
"true","full_screen","d04132023hr1920","fullscreen","0","13381","0.0-0.0","0","0","13920","","","","","","","","","","","","","","","","","","","","","",""
"","instructions","","instructions","1","41689","0.0-1.0-0.0-0.0","0","0","13920","[{""page_index"":0,""viewing_time"":5456},{""page_index"":1,""viewing_time"":11667},{""page_index"":2,""viewing_time"":8891},{""page_index"":3,""viewing_time"":2291}]","28305","","","","","","","","","","","","","","","","","","","",""
"","comprehension_check","","survey-multi-choice","2","66229","0.0-1.0-0.0-1.0","0","0","13920","","24537","{""Q0"":""True"",""Q1"":""D"",""Q2"":""Once the second image appears and while the screen 'MAKE A CHOICE' is shown"",""Q3"":""Green mark"",""Q4"":""either D or K""}","0","","","","","","","","","","","","","","","","","",""
"","start_exp","","html-keyboard-response","3","68536","0.0-1.0-1.0","0","0","13920","","2305","","","32","","","","","","","","","","","","","","","","",""
"","S1","","html-keyboard-response","4","68788","0.0-1.0-2.0","0","0","13920","","null","","","null","0","","","","","","","","","","","","","","","",""
"","ISI","","html-keyboard-response","5","69791","0.0-1.0-3.0","0","0","13920","","null","","","null","0","NaN","","","","","","","","","","","","","","",""
"","S2","","html-keyboard-response","6","70043","0.0-1.0-4.0","0","0","13920","","null","","","null","0","","NaN","","","","","","","","","","","","","",""
"","response","","html-keyboard-response","7","71795","0.0-1.0-5.0-0.0","0","0","13920","","null","","","null","0","","","1","0","training","adjacent","DC","4","3","O.jpg","Q.jpg","NaN","0","0","",""
"","too_slow_prompt","","html-keyboard-response","8","72797","0.0-1.0-7.0-0.0","1","0","13920","","null","","","null","","","","","","","","","","","","","","","","",""
"","time_out","","html-keyboard-response","9","74799","0.0-1.0-8.0-0.0","0","0","13920","","null","","","null","0","","","","","","","","","","","","","","","",""
"","ITI","","html-keyboard-response","10","75801","0.0-1.0-9.0","0","0","13920","","null","","","null","0","","","","","","","","","","","","","","","NaN",""
"","S1","","html-keyboard-response","11","76053","0.0-1.0-11.0","0","0","13920","","null","","","null","1","","","","","","","","","","","","","","","",""
"","ISI","","html-keyboard-response","12","77055","0.0-1.0-12.0","0","0","13920","","null","","","null","1","NaN","","","","","","","","","","","","","","",""
"","S2","","html-keyboard-response","13","77319","0.0-1.0-13.0","0","0","13920","","null","","","null","1","","NaN","","","","","","","","","","","","","",""
"","response","","html-keyboard-response","14","78113","0.0-1.0-14.0-0.0","0","0","13920","","792","","","75","1","","","1","1","training","adjacent","DE","4","5","O.jpg","R.jpg","0","1","0","",""
"","feedback","","html-keyboard-response","15","79116","0.0-1.0-15.0-0.0","0","0","13920","","null","","","null","1","","","","","","","","","","","","","","","",""
"","time_out","","html-keyboard-response","16","81118","0.0-1.0-17.0-0.0","0","0","13920","","null","","","null","1","","","","","","","","","","","","","","","",""
"","ITI","","html-keyboard-response","17","82121","0.0-1.0-18.0","0","0","13920","","null","","","null","1","","","","","","","","","","","","","","","NaN",""
"","S1","","html-keyboard-response","18","82374","0.0-1.0-20.0","0","0","13920","","null","","","null","2","","","","","","","","","","","","","","","",""
"","ISI","","html-keyboard-response","19","83378","0.0-1.0-21.0","0","0","13920","","null","","","null","2","NaN","","","","","","","","","","","","","","",""
"","S2","","html-keyboard-response","20","83630","0.0-1.0-22.0","0","0","13920","","null","","","null","2","","NaN","","","","","","","","","","","","","",""
"","response","","html-keyboard-response","21","83835","0.0-1.0-23.0-0.0","0","0","13920","","204","","","68","2","","","1","2","training","adjacent","AB","1","2","N.jpg","M.jpg","1","1","1","",""
"","feedback","","html-keyboard-response","22","84838","0.0-1.0-24.0-0.0","0","0","13920","","null","","","null","2","","","","","","","","","","","","","","","",""
"","ITI","","html-keyboard-response","23","85840","0.0-1.0-27.0","0","0","13920","","null","","","null","2","","","","","","","","","","","","","","","NaN",""
"","S1","","html-keyboard-response","24","86093","0.0-1.0-29.0","0","0","13920","","null","","","null","3","","","","","","","","","","","","","","","",""
"","ISI","","html-keyboard-response","25","87095","0.0-1.0-30.0","0","0","13920","","null","","","null","3","NaN","","","","","","","","","","","","","","",""
"","S2","","html-keyboard-response","26","87347","0.0-1.0-31.0","0","0","13920","","null","","","null","3","","NaN","","","","","","","","","","","","","",""
"","response","","html-keyboard-response","27","87589","0.0-1.0-32.0-0.0","0","0","13920","","240","","","68","3","","","1","3","training","adjacent","EF","5","6","R.jpg","L.jpg","1","1","1","",""
"","feedback","","html-keyboard-response","28","88591","0.0-1.0-33.0-0.0","0","0","13920","","null","","","null","3","","","","","","","","","","","","","","","",""
"","ITI","","html-keyboard-response","29","89606","0.0-1.0-36.0","0","0","13920","","null","","","null","3","","","","","","","","","","","","","","","NaN",""
"","S1","","html-keyboard-response","30","89872","0.0-1.0-38.0","0","0","13920","","null","","","null","4","","","","","","","","","","","","","","","",""
"","ISI","","html-keyboard-response","31","90874","0.0-1.0-39.0","0","0","13920","","null","","","null","4","NaN","","","","","","","","","","","","","","",""
"","S2","","html-keyboard-response","32","91128","0.0-1.0-40.0","0","0","13920","","null","","","null","4","","NaN","","","","","","","","","","","","","",""
"","response","","html-keyboard-response","33","91383","0.0-1.0-41.0-0.0","0","0","13920","","253","","","75","4","","","1","4","training","adjacent","GF","7","6","P.jpg","L.jpg","0","0","1","",""
"","feedback","","html-keyboard-response","34","92385","0.0-1.0-42.0-0.0","0","0","13920","","null","","","null","4","","","","","","","","","","","","","","","",""
"","ITI","","html-keyboard-response","35","93387","0.0-1.0-45.0","0","0","13920","","null","","","null","4","","","","","","","","","","","","","","","NaN",""
"","S1","","html-keyboard-response","36","93640","0.0-1.0-47.0","0","0","13920","","null","","","null","5","","","","","","","","","","","","","","","",""
"","ISI","","html-keyboard-response","37","94642","0.0-1.0-48.0","0","0","13920","","null","","","null","5","NaN","","","","","","","","","","","","","","",""
"","S2","","html-keyboard-response","38","94894","0.0-1.0-49.0","0","0","13920","","null","","","null","5","","NaN","","","","","","","","","","","","","",""
"","response","","html-keyboard-response","39","95588","0.0-1.0-50.0-0.0","0","0","13920","","693","","","68","5","","","1","5","training","adjacent","ED","5","4","R.jpg","O.jpg","1","0","0","",""
"","feedback","","html-keyboard-response","40","96591","0.0-1.0-51.0-0.0","0","0","13920","","null","","","null","5","","","","","","","","","","","","","","","",""
"","time_out","","html-keyboard-response","41","98592","0.0-1.0-53.0-0.0","0","0","13920","","null","","","null","5","","","","","","","","","","","","","","","",""
"","ITI","","html-keyboard-response","42","99594","0.0-1.0-54.0","0","0","13920","","null","","","null","5","","","","","","","","","","","","","","","NaN",""
"","S1","","html-keyboard-response","43","99846","0.0-1.0-56.0","0","0","13920","","null","","","null","6","","","","","","","","","","","","","","","",""
"","ISI","","html-keyboard-response","44","100849","0.0-1.0-57.0","0","0","13920","","null","","","null","6","NaN","","","","","","","","","","","","","","",""
"","S2","","html-keyboard-response","45","101101","0.0-1.0-58.0","0","0","13920","","null","","","null","6","","NaN","","","","","","","","","","","","","",""
"","response","","html-keyboard-response","46","101815","0.0-1.0-59.0-0.0","0","0","13920","","712","","","75","6","","","1","6","training","adjacent","BA","2","1","M.jpg","N.jpg","0","0","1","",""
"","feedback","","html-keyboard-response","47","102818","0.0-1.0-60.0-0.0","0","0","13920","","null","","","null","6","","","","","","","","","","","","","","","",""
"","ITI","","html-keyboard-response","48","103820","0.0-1.0-63.0","0","0","13920","","null","","","null","6","","","","","","","","","","","","","","","NaN",""
"","S1","","html-keyboard-response","49","104072","0.0-1.0-65.0","0","0","13920","","null","","","null","7","","","","","","","","","","","","","","","",""
"","ISI","","html-keyboard-response","50","105074","0.0-1.0-66.0","0","0","13920","","null","","","null","7","NaN","","","","","","","","","","","","","","",""
"","S2","","html-keyboard-response","51","105326","0.0-1.0-67.0","0","0","13920","","null","","","null","7","","NaN","","","","","","","","","","","","","",""
"","response","","html-keyboard-response","52","106173","0.0-1.0-68.0-0.0","0","0","13920","","846","","","68","7","","","1","7","training","adjacent","DC","4","3","O.jpg","Q.jpg","1","0","0","",""
"","feedback","","html-keyboard-response","53","107175","0.0-1.0-69.0-0.0","0","0","13920","","null","","","null","7","","","","","","","","","","","","","","","",""
"","time_out","","html-keyboard-response","54","109177","0.0-1.0-71.0-0.0","0","0","13920","","null","","","null","7","","","","","","","","","","","","","","","",""
"","ITI","","html-keyboard-response","55","110180","0.0-1.0-72.0","0","0","13920","","null","","","null","7","","","","","","","","","","","","","","","NaN",""
"","S1","","html-keyboard-response","56","110432","0.0-1.0-74.0","0","0","13920","","null","","","null","8","","","","","","","","","","","","","","","",""
"","ISI","","html-keyboard-response","57","111434","0.0-1.0-75.0","0","0","13920","","null","","","null","8","NaN","","","","","","","","","","","","","","",""
"","S2","","html-keyboard-response","58","111687","0.0-1.0-76.0","0","0","13920","","null","","","null","8","","NaN","","","","","","","","","","","","","",""
"","response","","html-keyboard-response","59","112169","0.0-1.0-77.0-0.0","0","0","13920","","481","","","75","8","","","1","8","training","adjacent","GF","7","6","P.jpg","L.jpg","0","0","1","",""
"","feedback","","html-keyboard-response","60","113171","0.0-1.0-78.0-0.0","0","0","13920","","null","","","null","8","","","","","","","","","","","","","","","",""
"","ITI","","html-keyboard-response","61","114174","0.0-1.0-81.0","0","0","13920","","null","","","null","8","","","","","","","","","","","","","","","NaN",""
"","S1","","html-keyboard-response","62","114426","0.0-1.0-83.0","0","0","13920","","null","","","null","9","","","","","","","","","","","","","","","",""
"","ISI","","html-keyboard-response","63","115429","0.0-1.0-84.0","0","0","13920","","null","","","null","9","NaN","","","","","","","","","","","","","","",""
"","S2","","html-keyboard-response","64","115681","0.0-1.0-85.0","0","0","13920","","null","","","null","9","","NaN","","","","","","","","","","","","","",""
"","response","","html-keyboard-response","65","116101","0.0-1.0-86.0-0.0","0","0","13920","","419","","","75","9","","","1","9","training","adjacent","BA","2","1","M.jpg","N.jpg","0","0","1","",""
"","feedback","","html-keyboard-response","66","117103","0.0-1.0-87.0-0.0","0","0","13920","","null","","","null","9","","","","","","","","","","","","","","","",""
"","ITI","","html-keyboard-response","67","118105","0.0-1.0-90.0","0","0","13920","","null","","","null","9","","","","","","","","","","","","","","","NaN",""
"","S1","","html-keyboard-response","68","118357","0.0-1.0-92.0","0","0","13920","","null","","","null","10","","","","","","","","","","","","","","","",""
"","ISI","","html-keyboard-response","69","119371","0.0-1.0-93.0","0","0","13920","","null","","","null","10","NaN","","","","","","","","","","","","","","",""
"","S2","","html-keyboard-response","70","119624","0.0-1.0-94.0","0","0","13920","","null","","","null","10","","NaN","","","","","","","","","","","","","",""
"","response","","html-keyboard-response","71","120253","0.0-1.0-95.0-0.0","0","0","13920","","628","","","75","10","","","1","10","training","adjacent","ED","5","4","R.jpg","O.jpg","0","0","1","",""
"","feedback","","html-keyboard-response","72","121255","0.0-1.0-96.0-0.0","0","0","13920","","null","","","null","10","","","","","","","","","","","","","","","",""
"","ITI","","html-keyboard-response","73","122258","0.0-1.0-99.0","0","0","13920","","null","","","null","10","","","","","","","","","","","","","","","NaN",""
"","S1","","html-keyboard-response","74","122509","0.0-1.0-101.0","0","0","13920","","null","","","null","11","","","","","","","","","","","","","","","",""
"","ISI","","html-keyboard-response","75","123512","0.0-1.0-102.0","0","0","13920","","null","","","null","11","NaN","","","","","","","","","","","","","","",""
"","S2","","html-keyboard-response","76","123764","0.0-1.0-103.0","0","0","13920","","null","","","null","11","","NaN","","","","","","","","","","","","","",""
"","response","","html-keyboard-response","77","124043","0.0-1.0-104.0-0.0","0","0","13920","","278","","","68","11","","","1","11","training","adjacent","AB","1","2","N.jpg","M.jpg","1","1","1","",""
"","feedback","","html-keyboard-response","78","125045","0.0-1.0-105.0-0.0","0","0","13920","","null","","","null","11","","","","","","","","","","","","","","","",""
"","ITI","","html-keyboard-response","79","126047","0.0-1.0-108.0","0","0","13920","","null","","","null","11","","","","","","","","","","","","","","","NaN",""
"","S1","","html-keyboard-response","80","126299","0.0-1.0-110.0","0","0","13920","","null","","","null","12","","","","","","","","","","","","","","","",""
"","ISI","","html-keyboard-response","81","127301","0.0-1.0-111.0","0","0","13920","","null","","","null","12","NaN","","","","","","","","","","","","","","",""
"","S2","","html-keyboard-response","82","127553","0.0-1.0-112.0","0","0","13920","","null","","","null","12","","NaN","","","","","","","","","","","","","",""
"","response","","html-keyboard-response","83","127878","0.0-1.0-113.0-0.0","0","0","13920","","324","","","75","12","","","1","12","training","adjacent","ED","5","4","R.jpg","O.jpg","0","0","1","",""
"","feedback","","html-keyboard-response","84","128880","0.0-1.0-114.0-0.0","0","0","13920","","null","","","null","12","","","","","","","","","","","","","","","",""
"","ITI","","html-keyboard-response","85","129881","0.0-1.0-117.0","0","0","13920","","null","","","null","12","","","","","","","","","","","","","","","NaN",""
"","S1","","html-keyboard-response","86","130134","0.0-1.0-119.0","0","0","13920","","null","","","null","13","","","","","","","","","","","","","","","",""
"","ISI","","html-keyboard-response","87","131135","0.0-1.0-120.0","0","0","13920","","null","","","null","13","NaN","","","","","","","","","","","","","","",""
"","S2","","html-keyboard-response","88","131387","0.0-1.0-121.0","0","0","13920","","null","","","null","13","","NaN","","","","","","","","","","","","","",""
"","response","","html-keyboard-response","89","131850","0.0-1.0-122.0-0.0","0","0","13920","","462","","","75","13","","","1","13","training","adjacent","EF","5","6","R.jpg","L.jpg","0","1","0","",""
"","feedback","","html-keyboard-response","90","132853","0.0-1.0-123.0-0.0","0","0","13920","","null","","","null","13","","","","","","","","","","","","","","","",""
"","time_out","","html-keyboard-response","91","134855","0.0-1.0-125.0-0.0","0","0","13920","","null","","","null","13","","","","","","","","","","","","","","","",""
"","ITI","","html-keyboard-response","92","135857","0.0-1.0-126.0","0","0","13920","","null","","","null","13","","","","","","","","","","","","","","","NaN",""
"","S1","","html-keyboard-response","93","136110","0.0-1.0-128.0","0","0","13920","","null","","","null","14","","","","","","","","","","","","","","","",""
"","ISI","","html-keyboard-response","94","137112","0.0-1.0-129.0","0","0","13920","","null","","","null","14","NaN","","","","","","","","","","","","","","",""
"","S2","","html-keyboard-response","95","137364","0.0-1.0-130.0","0","0","13920","","null","","","null","14","","NaN","","","","","","","","","","","","","",""
"","response","","html-keyboard-response","96","137778","0.0-1.0-131.0-0.0","0","0","13920","","413","","","68","14","","","1","14","training","adjacent","FE","6","5","L.jpg","R.jpg","1","0","0","",""
"","feedback","","html-keyboard-response","97","138781","0.0-1.0-132.0-0.0","0","0","13920","","null","","","null","14","","","","","","","","","","","","","","","",""
"","time_out","","html-keyboard-response","98","140782","0.0-1.0-134.0-0.0","0","0","13920","","null","","","null","14","","","","","","","","","","","","","","","",""
"","ITI","","html-keyboard-response","99","141784","0.0-1.0-135.0","0","0","13920","","null","","","null","14","","","","","","","","","","","","","","","NaN",""
"","S1","","html-keyboard-response","100","142037","0.0-1.0-137.0","0","0","13920","","null","","","null","15","","","","","","","","","","","","","","","",""
"","ISI","","html-keyboard-response","101","143040","0.0-1.0-138.0","0","0","13920","","null","","","null","15","NaN","","","","","","","","","","","","","","",""
"","S2","","html-keyboard-response","102","143292","0.0-1.0-139.0","0","0","13920","","null","","","null","15","","NaN","","","","","","","","","","","","","",""
"","response","","html-keyboard-response","103","143736","0.0-1.0-140.0-0.0","0","0","13920","","443","","","75","15","","","1","15","training","adjacent","GF","7","6","P.jpg","L.jpg","0","0","1","",""
"","feedback","","html-keyboard-response","104","144739","0.0-1.0-141.0-0.0","0","0","13920","","null","","","null","15","","","","","","","","","","","","","","","",""
"","ITI","","html-keyboard-response","105","145741","0.0-1.0-144.0","0","0","13920","","null","","","null","15","","","","","","","","","","","","","","","NaN",""
"","S1","","html-keyboard-response","106","145992","0.0-1.0-146.0","0","0","13920","","null","","","null","16","","","","","","","","","","","","","","","",""
"","ISI","","html-keyboard-response","107","146994","0.0-1.0-147.0","0","0","13920","","null","","","null","16","NaN","","","","","","","","","","","","","","",""
"","S2","","html-keyboard-response","108","147246","0.0-1.0-148.0","0","0","13920","","null","","","null","16","","NaN","","","","","","","","","","","","","",""
"","response","","html-keyboard-response","109","147568","0.0-1.0-149.0-0.0","0","0","13920","","321","","","75","16","","","1","16","training","adjacent","ED","5","4","R.jpg","O.jpg","0","0","1","",""
"","feedback","","html-keyboard-response","110","148570","0.0-1.0-150.0-0.0","0","0","13920","","null","","","null","16","","","","","","","","","","","","","","","",""
"","ITI","","html-keyboard-response","111","149573","0.0-1.0-153.0","0","0","13920","","null","","","null","16","","","","","","","","","","","","","","","NaN",""
"","S1","","html-keyboard-response","112","149826","0.0-1.0-155.0","0","0","13920","","null","","","null","17","","","","","","","","","","","","","","","",""
"","ISI","","html-keyboard-response","113","150828","0.0-1.0-156.0","0","0","13920","","null","","","null","17","NaN","","","","","","","","","","","","","","",""
"","S2","","html-keyboard-response","114","151081","0.0-1.0-157.0","0","0","13920","","null","","","null","17","","NaN","","","","","","","","","","","","","",""
"","response","","html-keyboard-response","115","151528","0.0-1.0-158.0-0.0","0","0","13920","","446","","","75","17","","","1","17","training","adjacent","FE","6","5","L.jpg","R.jpg","0","0","1","",""
"","feedback","","html-keyboard-response","116","152530","0.0-1.0-159.0-0.0","0","0","13920","","null","","","null","17","","","","","","","","","","","","","","","",""
"","ITI","","html-keyboard-response","117","153532","0.0-1.0-162.0","0","0","13920","","null","","","null","17","","","","","","","","","","","","","","","NaN",""
"","S1","","html-keyboard-response","118","153786","0.0-1.0-164.0","0","0","13920","","null","","","null","18","","","","","","","","","","","","","","","",""
"","ISI","","html-keyboard-response","119","154788","0.0-1.0-165.0","0","0","13920","","null","","","null","18","NaN","","","","","","","","","","","","","","",""
"","S2","","html-keyboard-response","120","155040","0.0-1.0-166.0","0","0","13920","","null","","","null","18","","NaN","","","","","","","","","","","","","",""
"","response","","html-keyboard-response","121","155191","0.0-1.0-167.0-0.0","0","0","13920","","150","","","68","18","","","1","18","training","adjacent","CB","3","2","Q.jpg","M.jpg","1","0","0","",""
"","feedback","","html-keyboard-response","122","156194","0.0-1.0-168.0-0.0","0","0","13920","","null","","","null","18","","","","","","","","","","","","","","","",""
"","time_out","","html-keyboard-response","123","158197","0.0-1.0-170.0-0.0","0","0","13920","","null","","","null","18","","","","","","","","","","","","","","","",""
"","ITI","","html-keyboard-response","124","159200","0.0-1.0-171.0","0","0","13920","","null","","","null","18","","","","","","","","","","","","","","","NaN",""
"","S1","","html-keyboard-response","125","159452","0.0-1.0-173.0","0","0","13920","","null","","","null","19","","","","","","","","","","","","","","","",""
"","ISI","","html-keyboard-response","126","160454","0.0-1.0-174.0","0","0","13920","","null","","","null","19","NaN","","","","","","","","","","","","","","",""
"","S2","","html-keyboard-response","127","160707","0.0-1.0-175.0","0","0","13920","","null","","","null","19","","NaN","","","","","","","","","","","","","",""
"","response","","html-keyboard-response","128","161172","0.0-1.0-176.0-0.0","0","0","13920","","464","","","68","19","","","1","19","training","adjacent","DE","4","5","O.jpg","R.jpg","1","1","1","",""
"","feedback","","html-keyboard-response","129","162174","0.0-1.0-177.0-0.0","0","0","13920","","null","","","null","19","","","","","","","","","","","","","","","",""
"","ITI","","html-keyboard-response","130","163176","0.0-1.0-180.0","0","0","13920","","null","","","null","19","","","","","","","","","","","","","","","NaN",""
"","S1","","html-keyboard-response","131","163428","0.0-1.0-182.0","0","0","13920","","null","","","null","20","","","","","","","","","","","","","","","",""
"","ISI","","html-keyboard-response","132","164430","0.0-1.0-183.0","0","0","13920","","null","","","null","20","NaN","","","","","","","","","","","","","","",""
"","S2","","html-keyboard-response","133","164682","0.0-1.0-184.0","0","0","13920","","null","","","null","20","","NaN","","","","","","","","","","","","","",""
"","response","","html-keyboard-response","134","165242","0.0-1.0-185.0-0.0","0","0","13920","","557","","","68","20","","","1","20","training","adjacent","EF","5","6","R.jpg","L.jpg","1","1","1","",""
"","feedback","","html-keyboard-response","135","166243","0.0-1.0-186.0-0.0","0","0","13920","","null","","","null","20","","","","","","","","","","","","","","","",""
"","ITI","","html-keyboard-response","136","167245","0.0-1.0-189.0","0","0","13920","","null","","","null","20","","","","","","","","","","","","","","","NaN",""
"","S1","","html-keyboard-response","137","167498","0.0-1.0-191.0","0","0","13920","","null","","","null","21","","","","","","","","","","","","","","","",""
"","ISI","","html-keyboard-response","138","168500","0.0-1.0-192.0","0","0","13920","","null","","","null","21","NaN","","","","","","","","","","","","","","",""
"","S2","","html-keyboard-response","139","168752","0.0-1.0-193.0","0","0","13920","","null","","","null","21","","NaN","","","","","","","","","","","","","",""
"","response","","html-keyboard-response","140","169099","0.0-1.0-194.0-0.0","0","0","13920","","345","","","75","21","","","1","21","training","adjacent","FE","6","5","L.jpg","R.jpg","0","0","1","",""
"","feedback","","html-keyboard-response","141","170102","0.0-1.0-195.0-0.0","0","0","13920","","null","","","null","21","","","","","","","","","","","","","","","",""
"","ITI","","html-keyboard-response","142","171104","0.0-1.0-198.0","0","0","13920","","null","","","null","21","","","","","","","","","","","","","","","NaN",""
"","S1","","html-keyboard-response","143","171355","0.0-1.0-200.0","0","0","13920","","null","","","null","22","","","","","","","","","","","","","","","",""
"","ISI","","html-keyboard-response","144","172357","0.0-1.0-201.0","0","0","13920","","null","","","null","22","NaN","","","","","","","","","","","","","","",""
"","S2","","html-keyboard-response","145","172610","0.0-1.0-202.0","0","0","13920","","null","","","null","22","","NaN","","","","","","","","","","","","","",""
"","response","","html-keyboard-response","146","172869","0.0-1.0-203.0-0.0","0","0","13920","","257","","","68","22","","","1","22","training","adjacent","CB","3","2","Q.jpg","M.jpg","1","0","0","",""
"","feedback","","html-keyboard-response","147","173870","0.0-1.0-204.0-0.0","0","0","13920","","null","","","null","22","","","","","","","","","","","","","","","",""
"","time_out","","html-keyboard-response","148","175872","0.0-1.0-206.0-0.0","0","0","13920","","null","","","null","22","","","","","","","","","","","","","","","",""
"","ITI","","html-keyboard-response","149","176874","0.0-1.0-207.0","0","0","13920","","null","","","null","22","","","","","","","","","","","","","","","NaN",""
"","S1","","html-keyboard-response","150","177126","0.0-1.0-209.0","0","0","13920","","null","","","null","23","","","","","","","","","","","","","","","",""
"","ISI","","html-keyboard-response","151","178129","0.0-1.0-210.0","0","0","13920","","null","","","null","23","NaN","","","","","","","","","","","","","","",""
"","S2","","html-keyboard-response","152","178381","0.0-1.0-211.0","0","0","13920","","null","","","null","23","","NaN","","","","","","","","","","","","","",""
"","response","","html-keyboard-response","153","178558","0.0-1.0-212.0-0.0","0","0","13920","","176","","","75","23","","","1","23","training","adjacent","BC","2","3","M.jpg","Q.jpg","0","1","0","",""
"","feedback","","html-keyboard-response","154","179561","0.0-1.0-213.0-0.0","0","0","13920","","null","","","null","23","","","","","","","","","","","","","","","",""
"","time_out","","html-keyboard-response","155","181563","0.0-1.0-215.0-0.0","0","0","13920","","null","","","null","23","","","","","","","","","","","","","","","",""
"","ITI","","html-keyboard-response","156","182565","0.0-1.0-216.0","0","0","13920","","null","","","null","23","","","","","","","","","","","","","","","NaN",""
"","S1","","html-keyboard-response","157","182816","0.0-1.0-218.0","0","0","13920","","null","","","null","24","","","","","","","","","","","","","","","",""
"","ISI","","html-keyboard-response","158","183819","0.0-1.0-219.0","0","0","13920","","null","","","null","24","NaN","","","","","","","","","","","","","","",""
"","S2","","html-keyboard-response","159","184071","0.0-1.0-220.0","0","0","13920","","null","","","null","24","","NaN","","","","","","","","","","","","","",""
"","response","","html-keyboard-response","160","184444","0.0-1.0-221.0-0.0","0","0","13920","","371","","","68","24","","","1","24","training","adjacent","EF","5","6","R.jpg","L.jpg","1","1","1","",""
"","feedback","","html-keyboard-response","161","185446","0.0-1.0-222.0-0.0","0","0","13920","","null","","","null","24","","","","","","","","","","","","","","","",""
"","ITI","","html-keyboard-response","162","186449","0.0-1.0-225.0","0","0","13920","","null","","","null","24","","","","","","","","","","","","","","","NaN",""
"","S1","","html-keyboard-response","163","186701","0.0-1.0-227.0","0","0","13920","","null","","","null","25","","","","","","","","","","","","","","","",""
"","ISI","","html-keyboard-response","164","187703","0.0-1.0-228.0","0","0","13920","","null","","","null","25","NaN","","","","","","","","","","","","","","",""
"","S2","","html-keyboard-response","165","187955","0.0-1.0-229.0","0","0","13920","","null","","","null","25","","NaN","","","","","","","","","","","","","",""
"","response","","html-keyboard-response","166","188302","0.0-1.0-230.0-0.0","0","0","13920","","346","","","75","25","","","1","25","training","adjacent","CD","3","4","Q.jpg","O.jpg","0","1","0","",""
"","feedback","","html-keyboard-response","167","189304","0.0-1.0-231.0-0.0","0","0","13920","","null","","","null","25","","","","","","","","","","","","","","","",""
"","time_out","","html-keyboard-response","168","191306","0.0-1.0-233.0-0.0","0","0","13920","","null","","","null","25","","","","","","","","","","","","","","","",""
"","ITI","","html-keyboard-response","169","192308","0.0-1.0-234.0","0","0","13920","","null","","","null","25","","","","","","","","","","","","","","","NaN",""
"","S1","","html-keyboard-response","170","192560","0.0-1.0-236.0","0","0","13920","","null","","","null","26","","","","","","","","","","","","","","","",""
"","ISI","","html-keyboard-response","171","193562","0.0-1.0-237.0","0","0","13920","","null","","","null","26","NaN","","","","","","","","","","","","","","",""
"","S2","","html-keyboard-response","172","193814","0.0-1.0-238.0","0","0","13920","","null","","","null","26","","NaN","","","","","","","","","","","","","",""
"","response","","html-keyboard-response","173","194628","0.0-1.0-239.0-0.0","0","0","13920","","812","","","68","26","","","1","26","training","adjacent","CB","3","2","Q.jpg","M.jpg","1","0","0","",""
"","feedback","","html-keyboard-response","174","195630","0.0-1.0-240.0-0.0","0","0","13920","","null","","","null","26","","","","","","","","","","","","","","","",""
"","time_out","","html-keyboard-response","175","197632","0.0-1.0-242.0-0.0","0","0","13920","","null","","","null","26","","","","","","","","","","","","","","","",""
"","ITI","","html-keyboard-response","176","198634","0.0-1.0-243.0","0","0","13920","","null","","","null","26","","","","","","","","","","","","","","","NaN",""
"","S1","","html-keyboard-response","177","198886","0.0-1.0-245.0","0","0","13920","","null","","","null","27","","","","","","","","","","","","","","","",""
"","ISI","","html-keyboard-response","178","199887","0.0-1.0-246.0","0","0","13920","","null","","","null","27","NaN","","","","","","","","","","","","","","",""
"","S2","","html-keyboard-response","179","200139","0.0-1.0-247.0","0","0","13920","","null","","","null","27","","NaN","","","","","","","","","","","","","",""
"","response","","html-keyboard-response","180","200838","0.0-1.0-248.0-0.0","0","0","13920","","697","","","75","27","","","1","27","training","adjacent","DE","4","5","O.jpg","R.jpg","0","1","0","",""
"","feedback","","html-keyboard-response","181","201839","0.0-1.0-249.0-0.0","0","0","13920","","null","","","null","27","","","","","","","","","","","","","","","",""
"","time_out","","html-keyboard-response","182","203847","0.0-1.0-251.0-0.0","0","0","13920","","null","","","null","27","","","","","","","","","","","","","","","",""
"","ITI","","html-keyboard-response","183","204849","0.0-1.0-252.0","0","0","13920","","null","","","null","27","","","","","","","","","","","","","","","NaN",""
"","S1","","html-keyboard-response","184","205101","0.0-1.0-254.0","0","0","13920","","null","","","null","28","","","","","","","","","","","","","","","",""
"","ISI","","html-keyboard-response","185","206103","0.0-1.0-255.0","0","0","13920","","null","","","null","28","NaN","","","","","","","","","","","","","","",""
"","S2","","html-keyboard-response","186","206355","0.0-1.0-256.0","0","0","13920","","null","","","null","28","","NaN","","","","","","","","","","","","","",""
"","response","","html-keyboard-response","187","206855","0.0-1.0-257.0-0.0","0","0","13920","","498","","","75","28","","","1","28","training","adjacent","AB","1","2","N.jpg","M.jpg","0","1","0","",""
"","feedback","","html-keyboard-response","188","207857","0.0-1.0-258.0-0.0","0","0","13920","","null","","","null","28","","","","","","","","","","","","","","","",""
"","time_out","","html-keyboard-response","189","209859","0.0-1.0-260.0-0.0","0","0","13920","","null","","","null","28","","","","","","","","","","","","","","","",""
"","ITI","","html-keyboard-response","190","210861","0.0-1.0-261.0","0","0","13920","","null","","","null","28","","","","","","","","","","","","","","","NaN",""
"","S1","","html-keyboard-response","191","211113","0.0-1.0-263.0","0","0","13920","","null","","","null","29","","","","","","","","","","","","","","","",""
"","ISI","","html-keyboard-response","192","212116","0.0-1.0-264.0","0","0","13920","","null","","","null","29","NaN","","","","","","","","","","","","","","",""
"","S2","","html-keyboard-response","193","212368","0.0-1.0-265.0","0","0","13920","","null","","","null","29","","NaN","","","","","","","","","","","","","",""
"","response","","html-keyboard-response","194","212707","0.0-1.0-266.0-0.0","0","0","13920","","338","","","68","29","","","1","29","training","adjacent","FG","6","7","L.jpg","P.jpg","1","1","1","",""
"","feedback","","html-keyboard-response","195","213710","0.0-1.0-267.0-0.0","0","0","13920","","null","","","null","29","","","","","","","","","","","","","","","",""
"","ITI","","html-keyboard-response","196","214711","0.0-1.0-270.0","0","0","13920","","null","","","null","29","","","","","","","","","","","","","","","NaN",""
"","S1","","html-keyboard-response","197","214963","0.0-1.0-272.0","0","0","13920","","null","","","null","30","","","","","","","","","","","","","","","",""
"","ISI","","html-keyboard-response","198","215966","0.0-1.0-273.0","0","0","13920","","null","","","null","30","NaN","","","","","","","","","","","","","","",""
"","S2","","html-keyboard-response","199","216218","0.0-1.0-274.0","0","0","13920","","null","","","null","30","","NaN","","","","","","","","","","","","","",""
"","response","","html-keyboard-response","200","216508","0.0-1.0-275.0-0.0","0","0","13920","","289","","","75","30","","","1","30","training","adjacent","BC","2","3","M.jpg","Q.jpg","0","1","0","",""
"","feedback","","html-keyboard-response","201","217510","0.0-1.0-276.0-0.0","0","0","13920","","null","","","null","30","","","","","","","","","","","","","","","",""
"","time_out","","html-keyboard-response","202","219512","0.0-1.0-278.0-0.0","0","0","13920","","null","","","null","30","","","","","","","","","","","","","","","",""
"","ITI","","html-keyboard-response","203","220514","0.0-1.0-279.0","0","0","13920","","null","","","null","30","","","","","","","","","","","","","","","NaN",""
"","S1","","html-keyboard-response","204","220767","0.0-1.0-281.0","0","0","13920","","null","","","null","31","","","","","","","","","","","","","","","",""
"","ISI","","html-keyboard-response","205","221770","0.0-1.0-282.0","0","0","13920","","null","","","null","31","NaN","","","","","","","","","","","","","","",""
"","S2","","html-keyboard-response","206","222022","0.0-1.0-283.0","0","0","13920","","null","","","null","31","","NaN","","","","","","","","","","","","","",""
"","response","","html-keyboard-response","207","222204","0.0-1.0-284.0-0.0","0","0","13920","","181","","","75","31","","","1","31","training","adjacent","CD","3","4","Q.jpg","O.jpg","0","1","0","",""
"","feedback","","html-keyboard-response","208","223206","0.0-1.0-285.0-0.0","0","0","13920","","null","","","null","31","","","","","","","","","","","","","","","",""
"","time_out","","html-keyboard-response","209","225208","0.0-1.0-287.0-0.0","0","0","13920","","null","","","null","31","","","","","","","","","","","","","","","",""
"","ITI","","html-keyboard-response","210","226209","0.0-1.0-288.0","0","0","13920","","null","","","null","31","","","","","","","","","","","","","","","NaN",""
"","S1","","html-keyboard-response","211","226462","0.0-1.0-290.0","0","0","13920","","null","","","null","32","","","","","","","","","","","","","","","",""
"","ISI","","html-keyboard-response","212","227464","0.0-1.0-291.0","0","0","13920","","null","","","null","32","NaN","","","","","","","","","","","","","","",""
"","S2","","html-keyboard-response","213","227717","0.0-1.0-292.0","0","0","13920","","null","","","null","32","","NaN","","","","","","","","","","","","","",""
"","response","","html-keyboard-response","214","227917","0.0-1.0-293.0-0.0","0","0","13920","","199","","","75","32","","","1","32","training","adjacent","GF","7","6","P.jpg","L.jpg","0","0","1","",""
"","feedback","","html-keyboard-response","215","228920","0.0-1.0-294.0-0.0","0","0","13920","","null","","","null","32","","","","","","","","","","","","","","","",""
"","ITI","","html-keyboard-response","216","229922","0.0-1.0-297.0","0","0","13920","","null","","","null","32","","","","","","","","","","","","","","","NaN",""
"","S1","","html-keyboard-response","217","230174","0.0-1.0-299.0","0","0","13920","","null","","","null","33","","","","","","","","","","","","","","","",""
"","ISI","","html-keyboard-response","218","231175","0.0-1.0-300.0","0","0","13920","","null","","","null","33","NaN","","","","","","","","","","","","","","",""
"","S2","","html-keyboard-response","219","231427","0.0-1.0-301.0","0","0","13920","","null","","","null","33","","NaN","","","","","","","","","","","","","",""
"","response","","html-keyboard-response","220","231628","0.0-1.0-302.0-0.0","0","0","13920","","200","","","75","33","","","1","33","training","adjacent","CD","3","4","Q.jpg","O.jpg","0","1","0","",""
"","feedback","","html-keyboard-response","221","232630","0.0-1.0-303.0-0.0","0","0","13920","","null","","","null","33","","","","","","","","","","","","","","","",""
"","time_out","","html-keyboard-response","222","234633","0.0-1.0-305.0-0.0","0","0","13920","","null","","","null","33","","","","","","","","","","","","","","","",""
"","ITI","","html-keyboard-response","223","235634","0.0-1.0-306.0","0","0","13920","","null","","","null","33","","","","","","","","","","","","","","","NaN",""
"","S1","","html-keyboard-response","224","235887","0.0-1.0-308.0","0","0","13920","","null","","","null","34","","","","","","","","","","","","","","","",""
"","ISI","","html-keyboard-response","225","236889","0.0-1.0-309.0","0","0","13920","","null","","","null","34","NaN","","","","","","","","","","","","","","",""
"","S2","","html-keyboard-response","226","237141","0.0-1.0-310.0","0","0","13920","","null","","","null","34","","NaN","","","","","","","","","","","","","",""
"","response","","html-keyboard-response","227","237640","0.0-1.0-311.0-0.0","0","0","13920","","498","","","68","34","","","1","34","training","adjacent","BA","2","1","M.jpg","N.jpg","1","0","0","",""
"","feedback","","html-keyboard-response","228","238642","0.0-1.0-312.0-0.0","0","0","13920","","null","","","null","34","","","","","","","","","","","","","","","",""
"","time_out","","html-keyboard-response","229","240644","0.0-1.0-314.0-0.0","0","0","13920","","null","","","null","34","","","","","","","","","","","","","","","",""
"","ITI","","html-keyboard-response","230","241646","0.0-1.0-315.0","0","0","13920","","null","","","null","34","","","","","","","","","","","","","","","NaN",""
"","S1","","html-keyboard-response","231","241898","0.0-1.0-317.0","0","0","13920","","null","","","null","35","","","","","","","","","","","","","","","",""
"","ISI","","html-keyboard-response","232","242900","0.0-1.0-318.0","0","0","13920","","null","","","null","35","NaN","","","","","","","","","","","","","","",""
"","S2","","html-keyboard-response","233","243152","0.0-1.0-319.0","0","0","13920","","null","","","null","35","","NaN","","","","","","","","","","","","","",""
"","response","","html-keyboard-response","234","243490","0.0-1.0-320.0-0.0","0","0","13920","","336","","","68","35","","","1","35","training","adjacent","FG","6","7","L.jpg","P.jpg","1","1","1","",""
"","feedback","","html-keyboard-response","235","244493","0.0-1.0-321.0-0.0","0","0","13920","","null","","","null","35","","","","","","","","","","","","","","","",""
"","ITI","","html-keyboard-response","236","245495","0.0-1.0-324.0","0","0","13920","","null","","","null","35","","","","","","","","","","","","","","","NaN",""
"","S1","","html-keyboard-response","237","245747","0.0-1.0-326.0","0","0","13920","","null","","","null","36","","","","","","","","","","","","","","","",""
"","ISI","","html-keyboard-response","238","246749","0.0-1.0-327.0","0","0","13920","","null","","","null","36","NaN","","","","","","","","","","","","","","",""
"","S2","","html-keyboard-response","239","247001","0.0-1.0-328.0","0","0","13920","","null","","","null","36","","NaN","","","","","","","","","","","","","",""
"","response","","html-keyboard-response","240","247348","0.0-1.0-329.0-0.0","0","0","13920","","346","","","75","36","","","1","36","training","adjacent","FE","6","5","L.jpg","R.jpg","0","0","1","",""
"","feedback","","html-keyboard-response","241","248351","0.0-1.0-330.0-0.0","0","0","13920","","null","","","null","36","","","","","","","","","","","","","","","",""
"","ITI","","html-keyboard-response","242","249353","0.0-1.0-333.0","0","0","13920","","null","","","null","36","","","","","","","","","","","","","","","NaN",""
"","S1","","html-keyboard-response","243","249605","0.0-1.0-335.0","0","0","13920","","null","","","null","37","","","","","","","","","","","","","","","",""
"","ISI","","html-keyboard-response","244","250607","0.0-1.0-336.0","0","0","13920","","null","","","null","37","NaN","","","","","","","","","","","","","","",""
"","S2","","html-keyboard-response","245","250859","0.0-1.0-337.0","0","0","13920","","null","","","null","37","","NaN","","","","","","","","","","","","","",""
"","response","","html-keyboard-response","246","251390","0.0-1.0-338.0-0.0","0","0","13920","","529","","","68","37","","","1","37","training","adjacent","BA","2","1","M.jpg","N.jpg","1","0","0","",""
"","feedback","","html-keyboard-response","247","252392","0.0-1.0-339.0-0.0","0","0","13920","","null","","","null","37","","","","","","","","","","","","","","","",""
"","time_out","","html-keyboard-response","248","254393","0.0-1.0-341.0-0.0","0","0","13920","","null","","","null","37","","","","","","","","","","","","","","","",""
"","ITI","","html-keyboard-response","249","255395","0.0-1.0-342.0","0","0","13920","","null","","","null","37","","","","","","","","","","","","","","","NaN",""
"","S1","","html-keyboard-response","250","255648","0.0-1.0-344.0","0","0","13920","","null","","","null","38","","","","","","","","","","","","","","","",""
"","ISI","","html-keyboard-response","251","256656","0.0-1.0-345.0","0","0","13920","","null","","","null","38","NaN","","","","","","","","","","","","","","",""
"","S2","","html-keyboard-response","252","256909","0.0-1.0-346.0","0","0","13920","","null","","","null","38","","NaN","","","","","","","","","","","","","",""
"","response","","html-keyboard-response","253","257444","0.0-1.0-347.0-0.0","0","0","13920","","534","","","75","38","","","1","38","training","adjacent","CB","3","2","Q.jpg","M.jpg","0","0","1","",""
"","feedback","","html-keyboard-response","254","258447","0.0-1.0-348.0-0.0","0","0","13920","","null","","","null","38","","","","","","","","","","","","","","","",""
"","ITI","","html-keyboard-response","255","259449","0.0-1.0-351.0","0","0","13920","","null","","","null","38","","","","","","","","","","","","","","","NaN",""
"","S1","","html-keyboard-response","256","259701","0.0-1.0-353.0","0","0","13920","","null","","","null","39","","","","","","","","","","","","","","","",""
"","ISI","","html-keyboard-response","257","260703","0.0-1.0-354.0","0","0","13920","","null","","","null","39","NaN","","","","","","","","","","","","","","",""
"","S2","","html-keyboard-response","258","260955","0.0-1.0-355.0","0","0","13920","","null","","","null","39","","NaN","","","","","","","","","","","","","",""
"","response","","html-keyboard-response","259","261374","0.0-1.0-356.0-0.0","0","0","13920","","418","","","68","39","","","1","39","training","adjacent","AB","1","2","N.jpg","M.jpg","1","1","1","",""
"","feedback","","html-keyboard-response","260","262377","0.0-1.0-357.0-0.0","0","0","13920","","null","","","null","39","","","","","","","","","","","","","","","",""
"","ITI","","html-keyboard-response","261","263379","0.0-1.0-360.0","0","0","13920","","null","","","null","39","","","","","","","","","","","","","","","NaN",""
"","S1","","html-keyboard-response","262","263631","0.0-1.0-362.0","0","0","13920","","null","","","null","40","","","","","","","","","","","","","","","",""
"","ISI","","html-keyboard-response","263","264633","0.0-1.0-363.0","0","0","13920","","null","","","null","40","NaN","","","","","","","","","","","","","","",""
"","S2","","html-keyboard-response","264","264886","0.0-1.0-364.0","0","0","13920","","null","","","null","40","","NaN","","","","","","","","","","","","","",""
"","response","","html-keyboard-response","265","265102","0.0-1.0-365.0-0.0","0","0","13920","","215","","","68","40","","","1","40","training","adjacent","DE","4","5","O.jpg","R.jpg","1","1","1","",""
"","feedback","","html-keyboard-response","266","266104","0.0-1.0-366.0-0.0","0","0","13920","","null","","","null","40","","","","","","","","","","","","","","","",""
"","ITI","","html-keyboard-response","267","267106","0.0-1.0-369.0","0","0","13920","","null","","","null","40","","","","","","","","","","","","","","","NaN",""
"","S1","","html-keyboard-response","268","267359","0.0-1.0-371.0","0","0","13920","","null","","","null","41","","","","","","","","","","","","","","","",""
"","ISI","","html-keyboard-response","269","268361","0.0-1.0-372.0","0","0","13920","","null","","","null","41","NaN","","","","","","","","","","","","","","",""
"","S2","","html-keyboard-response","270","268614","0.0-1.0-373.0","0","0","13920","","null","","","null","41","","NaN","","","","","","","","","","","","","",""
"","response","","html-keyboard-response","271","269201","0.0-1.0-374.0-0.0","0","0","13920","","586","","","68","41","","","1","41","training","adjacent","FG","6","7","L.jpg","P.jpg","1","1","1","",""
"","feedback","","html-keyboard-response","272","270203","0.0-1.0-375.0-0.0","0","0","13920","","null","","","null","41","","","","","","","","","","","","","","","",""
"","ITI","","html-keyboard-response","273","271205","0.0-1.0-378.0","0","0","13920","","null","","","null","41","","","","","","","","","","","","","","","NaN",""
"","S1","","html-keyboard-response","274","271457","0.0-1.0-380.0","0","0","13920","","null","","","null","42","","","","","","","","","","","","","","","",""
"","ISI","","html-keyboard-response","275","272458","0.0-1.0-381.0","0","0","13920","","null","","","null","42","NaN","","","","","","","","","","","","","","",""
"","S2","","html-keyboard-response","276","272710","0.0-1.0-382.0","0","0","13920","","null","","","null","42","","NaN","","","","","","","","","","","","","",""
"","response","","html-keyboard-response","277","273746","0.0-1.0-383.0-0.0","0","0","13920","","1035","","","75","42","","","1","42","training","adjacent","BC","2","3","M.jpg","Q.jpg","0","1","0","",""
"","feedback","","html-keyboard-response","278","274748","0.0-1.0-384.0-0.0","0","0","13920","","null","","","null","42","","","","","","","","","","","","","","","",""
"","time_out","","html-keyboard-response","279","276751","0.0-1.0-386.0-0.0","0","0","13920","","null","","","null","42","","","","","","","","","","","","","","","",""
"","ITI","","html-keyboard-response","280","277753","0.0-1.0-387.0","0","0","13920","","null","","","null","42","","","","","","","","","","","","","","","NaN",""
"","S1","","html-keyboard-response","281","278005","0.0-1.0-389.0","0","0","13920","","null","","","null","43","","","","","","","","","","","","","","","",""
"","ISI","","html-keyboard-response","282","279007","0.0-1.0-390.0","0","0","13920","","null","","","null","43","NaN","","","","","","","","","","","","","","",""
"","S2","","html-keyboard-response","283","279260","0.0-1.0-391.0","0","0","13920","","null","","","null","43","","NaN","","","","","","","","","","","","","",""
"","response","","html-keyboard-response","284","279763","0.0-1.0-392.0-0.0","0","0","13920","","502","","","68","43","","","1","43","training","adjacent","FG","6","7","L.jpg","P.jpg","1","1","1","",""
"","feedback","","html-keyboard-response","285","280766","0.0-1.0-393.0-0.0","0","0","13920","","null","","","null","43","","","","","","","","","","","","","","","",""
"","ITI","","html-keyboard-response","286","281768","0.0-1.0-396.0","0","0","13920","","null","","","null","43","","","","","","","","","","","","","","","NaN",""
"","S1","","html-keyboard-response","287","282021","0.0-1.0-398.0","0","0","13920","","null","","","null","44","","","","","","","","","","","","","","","",""
"","ISI","","html-keyboard-response","288","283022","0.0-1.0-399.0","0","0","13920","","null","","","null","44","NaN","","","","","","","","","","","","","","",""
"","S2","","html-keyboard-response","289","283275","0.0-1.0-400.0","0","0","13920","","null","","","null","44","","NaN","","","","","","","","","","","","","",""
"","response","","html-keyboard-response","290","284017","0.0-1.0-401.0-0.0","0","0","13920","","741","","","75","44","","","1","44","training","adjacent","DC","4","3","O.jpg","Q.jpg","0","0","1","",""
"","feedback","","html-keyboard-response","291","285019","0.0-1.0-402.0-0.0","0","0","13920","","null","","","null","44","","","","","","","","","","","","","","","",""
"","ITI","","html-keyboard-response","292","286022","0.0-1.0-405.0","0","0","13920","","null","","","null","44","","","","","","","","","","","","","","","NaN",""
"","S1","","html-keyboard-response","293","286274","0.0-1.0-407.0","0","0","13920","","null","","","null","45","","","","","","","","","","","","","","","",""
"","ISI","","html-keyboard-response","294","287277","0.0-1.0-408.0","0","0","13920","","null","","","null","45","NaN","","","","","","","","","","","","","","",""
"","S2","","html-keyboard-response","295","287530","0.0-1.0-409.0","0","0","13920","","null","","","null","45","","NaN","","","","","","","","","","","","","",""
"","response","","html-keyboard-response","296","287788","0.0-1.0-410.0-0.0","0","0","13920","","257","","","75","45","","","1","45","training","adjacent","CD","3","4","Q.jpg","O.jpg","0","1","0","",""
"","feedback","","html-keyboard-response","297","288791","0.0-1.0-411.0-0.0","0","0","13920","","null","","","null","45","","","","","","","","","","","","","","","",""
"","time_out","","html-keyboard-response","298","290793","0.0-1.0-413.0-0.0","0","0","13920","","null","","","null","45","","","","","","","","","","","","","","","",""
"","ITI","","html-keyboard-response","299","291795","0.0-1.0-414.0","0","0","13920","","null","","","null","45","","","","","","","","","","","","","","","NaN",""
"","S1","","html-keyboard-response","300","292048","0.0-1.0-416.0","0","0","13920","","null","","","null","46","","","","","","","","","","","","","","","",""
"","ISI","","html-keyboard-response","301","293051","0.0-1.0-417.0","0","0","13920","","null","","","null","46","NaN","","","","","","","","","","","","","","",""
"","S2","","html-keyboard-response","302","293303","0.0-1.0-418.0","0","0","13920","","null","","","null","46","","NaN","","","","","","","","","","","","","",""
"","response","","html-keyboard-response","303","294487","0.0-1.0-419.0-0.0","0","0","13920","","1183","","","75","46","","","1","46","training","adjacent","DC","4","3","O.jpg","Q.jpg","0","0","1","",""
"","feedback","","html-keyboard-response","304","295489","0.0-1.0-420.0-0.0","0","0","13920","","null","","","null","46","","","","","","","","","","","","","","","",""
"","ITI","","html-keyboard-response","305","296492","0.0-1.0-423.0","0","0","13920","","null","","","null","46","","","","","","","","","","","","","","","NaN",""
"","S1","","html-keyboard-response","306","296744","0.0-1.0-425.0","0","0","13920","","null","","","null","47","","","","","","","","","","","","","","","",""
"","ISI","","html-keyboard-response","307","297746","0.0-1.0-426.0","0","0","13920","","null","","","null","47","NaN","","","","","","","","","","","","","","",""
"","S2","","html-keyboard-response","308","297998","0.0-1.0-427.0","0","0","13920","","null","","","null","47","","NaN","","","","","","","","","","","","","",""
"","response","","html-keyboard-response","309","298932","0.0-1.0-428.0-0.0","0","0","13920","","932","","","68","47","","","1","47","training","adjacent","BC","2","3","M.jpg","Q.jpg","1","1","1","",""
"","feedback","","html-keyboard-response","310","299934","0.0-1.0-429.0-0.0","0","0","13920","","null","","","null","47","","","","","","","","","","","","","","","",""
"","ITI","","html-keyboard-response","311","300936","0.0-1.0-432.0","0","0","13920","","null","","","null","47","","","","","","","","","","","","","","","NaN",""
"","block_over","","html-keyboard-response","312","305207","0.0-1.0-433.0-0.0","0","0","13920","","4269","","","32","47","","","","","","","","","","","","","","","",""
"","S1","","html-keyboard-response","313","305459","0.0-1.0-434.0","0","0","13920","","null","","","null","48","","","","","","","","","","","","","","","",""
"","ISI","","html-keyboard-response","314","306462","0.0-1.0-435.0","0","0","13920","","null","","","null","48","NaN","","","","","","","","","","","","","","",""
"","S2","","html-keyboard-response","315","306713","0.0-1.0-436.0","0","0","13920","","null","","","null","48","","NaN","","","","","","","","","","","","","",""
"","response","","html-keyboard-response","316","307047","0.0-1.0-437.0-0.0","0","0","13920","","333","","","68","48","","","2","48","training","adjacent","FG","6","7","L.jpg","P.jpg","1","1","1","",""
"","feedback","","html-keyboard-response","317","308049","0.0-1.0-438.0-0.0","0","0","13920","","null","","","null","48","","","","","","","","","","","","","","","",""
"","ITI","","html-keyboard-response","318","309051","0.0-1.0-441.0","0","0","13920","","null","","","null","48","","","","","","","","","","","","","","","NaN",""
"","S1","","html-keyboard-response","319","309304","0.0-1.0-443.0","0","0","13920","","null","","","null","49","","","","","","","","","","","","","","","",""
"","ISI","","html-keyboard-response","320","310305","0.0-1.0-444.0","0","0","13920","","null","","","null","49","NaN","","","","","","","","","","","","","","",""
"","S2","","html-keyboard-response","321","310557","0.0-1.0-445.0","0","0","13920","","null","","","null","49","","NaN","","","","","","","","","","","","","",""
"","response","","html-keyboard-response","322","311006","0.0-1.0-446.0-0.0","0","0","13920","","448","","","75","49","","","2","49","training","adjacent","BC","2","3","M.jpg","Q.jpg","0","1","0","",""
"","feedback","","html-keyboard-response","323","312008","0.0-1.0-447.0-0.0","0","0","13920","","null","","","null","49","","","","","","","","","","","","","","","",""
"","time_out","","html-keyboard-response","324","314010","0.0-1.0-449.0-0.0","0","0","13920","","null","","","null","49","","","","","","","","","","","","","","","",""
"","ITI","","html-keyboard-response","325","315012","0.0-1.0-450.0","0","0","13920","","null","","","null","49","","","","","","","","","","","","","","","NaN",""
"","S1","","html-keyboard-response","326","315263","0.0-1.0-452.0","0","0","13920","","null","","","null","50","","","","","","","","","","","","","","","",""
"","ISI","","html-keyboard-response","327","316266","0.0-1.0-453.0","0","0","13920","","null","","","null","50","NaN","","","","","","","","","","","","","","",""
"","S2","","html-keyboard-response","328","316517","0.0-1.0-454.0","0","0","13920","","null","","","null","50","","NaN","","","","","","","","","","","","","",""
"","response","","html-keyboard-response","329","317019","0.0-1.0-455.0-0.0","0","0","13920","","500","","","75","50","","","2","50","training","adjacent","DE","4","5","O.jpg","R.jpg","0","1","0","",""
"","feedback","","html-keyboard-response","330","318021","0.0-1.0-456.0-0.0","0","0","13920","","null","","","null","50","","","","","","","","","","","","","","","",""
"","time_out","","html-keyboard-response","331","320023","0.0-1.0-458.0-0.0","0","0","13920","","null","","","null","50","","","","","","","","","","","","","","","",""
"","ITI","","html-keyboard-response","332","321025","0.0-1.0-459.0","0","0","13920","","null","","","null","50","","","","","","","","","","","","","","","NaN",""
"","S1","","html-keyboard-response","333","321278","0.0-1.0-461.0","0","0","13920","","null","","","null","51","","","","","","","","","","","","","","","",""
"","ISI","","html-keyboard-response","334","322280","0.0-1.0-462.0","0","0","13920","","null","","","null","51","NaN","","","","","","","","","","","","","","",""
"","S2","","html-keyboard-response","335","322532","0.0-1.0-463.0","0","0","13920","","null","","","null","51","","NaN","","","","","","","","","","","","","",""
"","response","","html-keyboard-response","336","323063","0.0-1.0-464.0-0.0","0","0","13920","","530","","","75","51","","","2","51","training","adjacent","CD","3","4","Q.jpg","O.jpg","0","1","0","",""
"","feedback","","html-keyboard-response","337","324066","0.0-1.0-465.0-0.0","0","0","13920","","null","","","null","51","","","","","","","","","","","","","","","",""
"","time_out","","html-keyboard-response","338","326069","0.0-1.0-467.0-0.0","0","0","13920","","null","","","null","51","","","","","","","","","","","","","","","",""
"","ITI","","html-keyboard-response","339","327071","0.0-1.0-468.0","0","0","13920","","null","","","null","51","","","","","","","","","","","","","","","NaN",""
"","S1","","html-keyboard-response","340","327323","0.0-1.0-470.0","0","0","13920","","null","","","null","52","","","","","","","","","","","","","","","",""
"","ISI","","html-keyboard-response","341","328325","0.0-1.0-471.0","0","0","13920","","null","","","null","52","NaN","","","","","","","","","","","","","","",""
"","S2","","html-keyboard-response","342","328578","0.0-1.0-472.0","0","0","13920","","null","","","null","52","","NaN","","","","","","","","","","","","","",""
"","response","","html-keyboard-response","343","329053","0.0-1.0-473.0-0.0","0","0","13920","","474","","","68","52","","","2","52","training","adjacent","FG","6","7","L.jpg","P.jpg","1","1","1","",""
"","feedback","","html-keyboard-response","344","330055","0.0-1.0-474.0-0.0","0","0","13920","","null","","","null","52","","","","","","","","","","","","","","","",""
"","ITI","","html-keyboard-response","345","331056","0.0-1.0-477.0","0","0","13920","","null","","","null","52","","","","","","","","","","","","","","","NaN",""
"","S1","","html-keyboard-response","346","331309","0.0-1.0-479.0","0","0","13920","","null","","","null","53","","","","","","","","","","","","","","","",""
"","ISI","","html-keyboard-response","347","332311","0.0-1.0-480.0","0","0","13920","","null","","","null","53","NaN","","","","","","","","","","","","","","",""
"","S2","","html-keyboard-response","348","332563","0.0-1.0-481.0","0","0","13920","","null","","","null","53","","NaN","","","","","","","","","","","","","",""
"","response","","html-keyboard-response","349","333389","0.0-1.0-482.0-0.0","0","0","13920","","825","","","68","53","","","2","53","training","adjacent","CD","3","4","Q.jpg","O.jpg","1","1","1","",""
"","feedback","","html-keyboard-response","350","334391","0.0-1.0-483.0-0.0","0","0","13920","","null","","","null","53","","","","","","","","","","","","","","","",""
"","ITI","","html-keyboard-response","351","335392","0.0-1.0-486.0","0","0","13920","","null","","","null","53","","","","","","","","","","","","","","","NaN",""
"","S1","","html-keyboard-response","352","335644","0.0-1.0-488.0","0","0","13920","","null","","","null","54","","","","","","","","","","","","","","","",""
"","ISI","","html-keyboard-response","353","336646","0.0-1.0-489.0","0","0","13920","","null","","","null","54","NaN","","","","","","","","","","","","","","",""
"","S2","","html-keyboard-response","354","336899","0.0-1.0-490.0","0","0","13920","","null","","","null","54","","NaN","","","","","","","","","","","","","",""
"","response","","html-keyboard-response","355","337266","0.0-1.0-491.0-0.0","0","0","13920","","366","","","75","54","","","2","54","training","adjacent","GF","7","6","P.jpg","L.jpg","0","0","1","",""
"","feedback","","html-keyboard-response","356","338269","0.0-1.0-492.0-0.0","0","0","13920","","null","","","null","54","","","","","","","","","","","","","","","",""
"","ITI","","html-keyboard-response","357","339271","0.0-1.0-495.0","0","0","13920","","null","","","null","54","","","","","","","","","","","","","","","NaN",""
"","S1","","html-keyboard-response","358","339523","0.0-1.0-497.0","0","0","13920","","null","","","null","55","","","","","","","","","","","","","","","",""
"","ISI","","html-keyboard-response","359","340527","0.0-1.0-498.0","0","0","13920","","null","","","null","55","NaN","","","","","","","","","","","","","","",""
"","S2","","html-keyboard-response","360","340780","0.0-1.0-499.0","0","0","13920","","null","","","null","55","","NaN","","","","","","","","","","","","","",""
"","response","","html-keyboard-response","361","341414","0.0-1.0-500.0-0.0","0","0","13920","","633","","","68","55","","","2","55","training","adjacent","FG","6","7","L.jpg","P.jpg","1","1","1","",""
"","feedback","","html-keyboard-response","362","342417","0.0-1.0-501.0-0.0","0","0","13920","","null","","","null","55","","","","","","","","","","","","","","","",""
"","ITI","","html-keyboard-response","363","343419","0.0-1.0-504.0","0","0","13920","","null","","","null","55","","","","","","","","","","","","","","","NaN",""
"","S1","","html-keyboard-response","364","343671","0.0-1.0-506.0","0","0","13920","","null","","","null","56","","","","","","","","","","","","","","","",""
"","ISI","","html-keyboard-response","365","344673","0.0-1.0-507.0","0","0","13920","","null","","","null","56","NaN","","","","","","","","","","","","","","",""
"","S2","","html-keyboard-response","366","344925","0.0-1.0-508.0","0","0","13920","","null","","","null","56","","NaN","","","","","","","","","","","","","",""
"","response","","html-keyboard-response","367","345208","0.0-1.0-509.0-0.0","0","0","13920","","282","","","75","56","","","2","56","training","adjacent","FE","6","5","L.jpg","R.jpg","0","0","1","",""
"","feedback","","html-keyboard-response","368","346211","0.0-1.0-510.0-0.0","0","0","13920","","null","","","null","56","","","","","","","","","","","","","","","",""
"","ITI","","html-keyboard-response","369","347213","0.0-1.0-513.0","0","0","13920","","null","","","null","56","","","","","","","","","","","","","","","NaN",""
"","S1","","html-keyboard-response","370","347465","0.0-1.0-515.0","0","0","13920","","null","","","null","57","","","","","","","","","","","","","","","",""
"","ISI","","html-keyboard-response","371","348467","0.0-1.0-516.0","0","0","13920","","null","","","null","57","NaN","","","","","","","","","","","","","","",""
"","S2","","html-keyboard-response","372","348720","0.0-1.0-517.0","0","0","13920","","null","","","null","57","","NaN","","","","","","","","","","","","","",""
"","response","","html-keyboard-response","373","349061","0.0-1.0-518.0-0.0","0","0","13920","","340","","","75","57","","","2","57","training","adjacent","FE","6","5","L.jpg","R.jpg","0","0","1","",""
"","feedback","","html-keyboard-response","374","350063","0.0-1.0-519.0-0.0","0","0","13920","","null","","","null","57","","","","","","","","","","","","","","","",""
"","ITI","","html-keyboard-response","375","351065","0.0-1.0-522.0","0","0","13920","","null","","","null","57","","","","","","","","","","","","","","","NaN",""
"","S1","","html-keyboard-response","376","351317","0.0-1.0-524.0","0","0","13920","","null","","","null","58","","","","","","","","","","","","","","","",""
"","ISI","","html-keyboard-response","377","352332","0.0-1.0-525.0","0","0","13920","","null","","","null","58","NaN","","","","","","","","","","","","","","",""
"","S2","","html-keyboard-response","378","352584","0.0-1.0-526.0","0","0","13920","","null","","","null","58","","NaN","","","","","","","","","","","","","",""
"","response","","html-keyboard-response","379","353095","0.0-1.0-527.0-0.0","0","0","13920","","511","","","75","58","","","2","58","training","adjacent","BA","2","1","M.jpg","N.jpg","0","0","1","",""
"","feedback","","html-keyboard-response","380","354098","0.0-1.0-528.0-0.0","0","0","13920","","null","","","null","58","","","","","","","","","","","","","","","",""
"","ITI","","html-keyboard-response","381","355100","0.0-1.0-531.0","0","0","13920","","null","","","null","58","","","","","","","","","","","","","","","NaN",""
"","S1","","html-keyboard-response","382","355352","0.0-1.0-533.0","0","0","13920","","null","","","null","59","","","","","","","","","","","","","","","",""
"","ISI","","html-keyboard-response","383","356353","0.0-1.0-534.0","0","0","13920","","null","","","null","59","NaN","","","","","","","","","","","","","","",""
"","S2","","html-keyboard-response","384","356607","0.0-1.0-535.0","0","0","13920","","null","","","null","59","","NaN","","","","","","","","","","","","","",""
"","response","","html-keyboard-response","385","357591","0.0-1.0-536.0-0.0","0","0","13920","","983","","","68","59","","","2","59","training","adjacent","CB","3","2","Q.jpg","M.jpg","1","0","0","",""
"","feedback","","html-keyboard-response","386","358593","0.0-1.0-537.0-0.0","0","0","13920","","null","","","null","59","","","","","","","","","","","","","","","",""
"","time_out","","html-keyboard-response","387","360596","0.0-1.0-539.0-0.0","0","0","13920","","null","","","null","59","","","","","","","","","","","","","","","",""
"","ITI","","html-keyboard-response","388","361598","0.0-1.0-540.0","0","0","13920","","null","","","null","59","","","","","","","","","","","","","","","NaN",""
"","S1","","html-keyboard-response","389","361850","0.0-1.0-542.0","0","0","13920","","null","","","null","60","","","","","","","","","","","","","","","",""
"","ISI","","html-keyboard-response","390","362852","0.0-1.0-543.0","0","0","13920","","null","","","null","60","NaN","","","","","","","","","","","","","","",""
"","S2","","html-keyboard-response","391","363105","0.0-1.0-544.0","0","0","13920","","null","","","null","60","","NaN","","","","","","","","","","","","","",""
"","response","","html-keyboard-response","392","363383","0.0-1.0-545.0-0.0","0","0","13920","","278","","","75","60","","","2","60","training","adjacent","FE","6","5","L.jpg","R.jpg","0","0","1","",""
"","feedback","","html-keyboard-response","393","364386","0.0-1.0-546.0-0.0","0","0","13920","","null","","","null","60","","","","","","","","","","","","","","","",""
"","ITI","","html-keyboard-response","394","365388","0.0-1.0-549.0","0","0","13920","","null","","","null","60","","","","","","","","","","","","","","","NaN",""
"","S1","","html-keyboard-response","395","365640","0.0-1.0-551.0","0","0","13920","","null","","","null","61","","","","","","","","","","","","","","","",""
"","ISI","","html-keyboard-response","396","366643","0.0-1.0-552.0","0","0","13920","","null","","","null","61","NaN","","","","","","","","","","","","","","",""
"","S2","","html-keyboard-response","397","366895","0.0-1.0-553.0","0","0","13920","","null","","","null","61","","NaN","","","","","","","","","","","","","",""
"","response","","html-keyboard-response","398","367449","0.0-1.0-554.0-0.0","0","0","13920","","553","","","75","61","","","2","61","training","adjacent","DC","4","3","O.jpg","Q.jpg","0","0","1","",""
"","feedback","","html-keyboard-response","399","368451","0.0-1.0-555.0-0.0","0","0","13920","","null","","","null","61","","","","","","","","","","","","","","","",""
"","ITI","","html-keyboard-response","400","369453","0.0-1.0-558.0","0","0","13920","","null","","","null","61","","","","","","","","","","","","","","","NaN",""
"","S1","","html-keyboard-response","401","369704","0.0-1.0-560.0","0","0","13920","","null","","","null","62","","","","","","","","","","","","","","","",""
"","ISI","","html-keyboard-response","402","370706","0.0-1.0-561.0","0","0","13920","","null","","","null","62","NaN","","","","","","","","","","","","","","",""
"","S2","","html-keyboard-response","403","370960","0.0-1.0-562.0","0","0","13920","","null","","","null","62","","NaN","","","","","","","","","","","","","",""
"","response","","html-keyboard-response","404","371583","0.0-1.0-563.0-0.0","0","0","13920","","622","","","68","62","","","2","62","training","adjacent","BC","2","3","M.jpg","Q.jpg","1","1","1","",""
"","feedback","","html-keyboard-response","405","372586","0.0-1.0-564.0-0.0","0","0","13920","","null","","","null","62","","","","","","","","","","","","","","","",""
"","ITI","","html-keyboard-response","406","373588","0.0-1.0-567.0","0","0","13920","","null","","","null","62","","","","","","","","","","","","","","","NaN",""
"","S1","","html-keyboard-response","407","373840","0.0-1.0-569.0","0","0","13920","","null","","","null","63","","","","","","","","","","","","","","","",""
"","ISI","","html-keyboard-response","408","374842","0.0-1.0-570.0","0","0","13920","","null","","","null","63","NaN","","","","","","","","","","","","","","",""
"","S2","","html-keyboard-response","409","375094","0.0-1.0-571.0","0","0","13920","","null","","","null","63","","NaN","","","","","","","","","","","","","",""
"","response","","html-keyboard-response","410","375526","0.0-1.0-572.0-0.0","0","0","13920","","432","","","75","63","","","2","63","training","adjacent","ED","5","4","R.jpg","O.jpg","0","0","1","",""
"","feedback","","html-keyboard-response","411","376529","0.0-1.0-573.0-0.0","0","0","13920","","null","","","null","63","","","","","","","","","","","","","","","",""
"","ITI","","html-keyboard-response","412","377531","0.0-1.0-576.0","0","0","13920","","null","","","null","63","","","","","","","","","","","","","","","NaN",""
"","S1","","html-keyboard-response","413","377783","0.0-1.0-578.0","0","0","13920","","null","","","null","64","","","","","","","","","","","","","","","",""
"","ISI","","html-keyboard-response","414","378785","0.0-1.0-579.0","0","0","13920","","null","","","null","64","NaN","","","","","","","","","","","","","","",""
"","S2","","html-keyboard-response","415","379038","0.0-1.0-580.0","0","0","13920","","null","","","null","64","","NaN","","","","","","","","","","","","","",""
"","response","","html-keyboard-response","416","379842","0.0-1.0-581.0-0.0","0","0","13920","","803","","","68","64","","","2","64","training","adjacent","CD","3","4","Q.jpg","O.jpg","1","1","1","",""
"","feedback","","html-keyboard-response","417","380844","0.0-1.0-582.0-0.0","0","0","13920","","null","","","null","64","","","","","","","","","","","","","","","",""
"","ITI","","html-keyboard-response","418","381846","0.0-1.0-585.0","0","0","13920","","null","","","null","64","","","","","","","","","","","","","","","NaN",""
"","S1","","html-keyboard-response","419","382098","0.0-1.0-587.0","0","0","13920","","null","","","null","65","","","","","","","","","","","","","","","",""
"","ISI","","html-keyboard-response","420","383100","0.0-1.0-588.0","0","0","13920","","null","","","null","65","NaN","","","","","","","","","","","","","","",""
"","S2","","html-keyboard-response","421","383352","0.0-1.0-589.0","0","0","13920","","null","","","null","65","","NaN","","","","","","","","","","","","","",""
"","response","","html-keyboard-response","422","383751","0.0-1.0-590.0-0.0","0","0","13920","","397","","","75","65","","","2","65","training","adjacent","DC","4","3","O.jpg","Q.jpg","0","0","1","",""
"","feedback","","html-keyboard-response","423","384754","0.0-1.0-591.0-0.0","0","0","13920","","null","","","null","65","","","","","","","","","","","","","","","",""
"","ITI","","html-keyboard-response","424","385756","0.0-1.0-594.0","0","0","13920","","null","","","null","65","","","","","","","","","","","","","","","NaN",""
"","S1","","html-keyboard-response","425","386008","0.0-1.0-596.0","0","0","13920","","null","","","null","66","","","","","","","","","","","","","","","",""
"","ISI","","html-keyboard-response","426","387010","0.0-1.0-597.0","0","0","13920","","null","","","null","66","NaN","","","","","","","","","","","","","","",""
"","S2","","html-keyboard-response","427","387262","0.0-1.0-598.0","0","0","13920","","null","","","null","66","","NaN","","","","","","","","","","","","","",""
"","response","","html-keyboard-response","428","387752","0.0-1.0-599.0-0.0","0","0","13920","","489","","","75","66","","","2","66","training","adjacent","CB","3","2","Q.jpg","M.jpg","0","0","1","",""
"","feedback","","html-keyboard-response","429","388754","0.0-1.0-600.0-0.0","0","0","13920","","null","","","null","66","","","","","","","","","","","","","","","",""
"","ITI","","html-keyboard-response","430","389756","0.0-1.0-603.0","0","0","13920","","null","","","null","66","","","","","","","","","","","","","","","NaN",""
"","S1","","html-keyboard-response","431","390009","0.0-1.0-605.0","0","0","13920","","null","","","null","67","","","","","","","","","","","","","","","",""
"","ISI","","html-keyboard-response","432","391012","0.0-1.0-606.0","0","0","13920","","null","","","null","67","NaN","","","","","","","","","","","","","","",""
"","S2","","html-keyboard-response","433","391264","0.0-1.0-607.0","0","0","13920","","null","","","null","67","","NaN","","","","","","","","","","","","","",""
"","response","","html-keyboard-response","434","391992","0.0-1.0-608.0-0.0","0","0","13920","","727","","","68","67","","","2","67","training","adjacent","BC","2","3","M.jpg","Q.jpg","1","1","1","",""
"","feedback","","html-keyboard-response","435","392994","0.0-1.0-609.0-0.0","0","0","13920","","null","","","null","67","","","","","","","","","","","","","","","",""
"","ITI","","html-keyboard-response","436","393996","0.0-1.0-612.0","0","0","13920","","null","","","null","67","","","","","","","","","","","","","","","NaN",""
"","S1","","html-keyboard-response","437","394248","0.0-1.0-614.0","0","0","13920","","null","","","null","68","","","","","","","","","","","","","","","",""
"","ISI","","html-keyboard-response","438","395250","0.0-1.0-615.0","0","0","13920","","null","","","null","68","NaN","","","","","","","","","","","","","","",""
"","S2","","html-keyboard-response","439","395502","0.0-1.0-616.0","0","0","13920","","null","","","null","68","","NaN","","","","","","","","","","","","","",""
"","response","","html-keyboard-response","440","395803","0.0-1.0-617.0-0.0","0","0","13920","","300","","","75","68","","","2","68","training","adjacent","DE","4","5","O.jpg","R.jpg","0","1","0","",""
"","feedback","","html-keyboard-response","441","396805","0.0-1.0-618.0-0.0","0","0","13920","","null","","","null","68","","","","","","","","","","","","","","","",""
"","time_out","","html-keyboard-response","442","398808","0.0-1.0-620.0-0.0","0","0","13920","","null","","","null","68","","","","","","","","","","","","","","","",""
"","ITI","","html-keyboard-response","443","399810","0.0-1.0-621.0","0","0","13920","","null","","","null","68","","","","","","","","","","","","","","","NaN",""
"","S1","","html-keyboard-response","444","400062","0.0-1.0-623.0","0","0","13920","","null","","","null","69","","","","","","","","","","","","","","","",""
"","ISI","","html-keyboard-response","445","401064","0.0-1.0-624.0","0","0","13920","","null","","","null","69","NaN","","","","","","","","","","","","","","",""
"","S2","","html-keyboard-response","446","401316","0.0-1.0-625.0","0","0","13920","","null","","","null","69","","NaN","","","","","","","","","","","","","",""
"","response","","html-keyboard-response","447","401994","0.0-1.0-626.0-0.0","0","0","13920","","678","","","75","69","","","2","69","training","adjacent","AB","1","2","N.jpg","M.jpg","0","1","0","",""
"","feedback","","html-keyboard-response","448","402996","0.0-1.0-627.0-0.0","0","0","13920","","null","","","null","69","","","","","","","","","","","","","","","",""
"","time_out","","html-keyboard-response","449","404999","0.0-1.0-629.0-0.0","0","0","13920","","null","","","null","69","","","","","","","","","","","","","","","",""
"","ITI","","html-keyboard-response","450","406000","0.0-1.0-630.0","0","0","13920","","null","","","null","69","","","","","","","","","","","","","","","NaN",""
"","S1","","html-keyboard-response","451","406253","0.0-1.0-632.0","0","0","13920","","null","","","null","70","","","","","","","","","","","","","","","",""
"","ISI","","html-keyboard-response","452","407256","0.0-1.0-633.0","0","0","13920","","null","","","null","70","NaN","","","","","","","","","","","","","","",""
"","S2","","html-keyboard-response","453","407508","0.0-1.0-634.0","0","0","13920","","null","","","null","70","","NaN","","","","","","","","","","","","","",""
"","response","","html-keyboard-response","454","407999","0.0-1.0-635.0-0.0","0","0","13920","","489","","","68","70","","","2","70","training","adjacent","AB","1","2","N.jpg","M.jpg","1","1","1","",""
"","feedback","","html-keyboard-response","455","409001","0.0-1.0-636.0-0.0","0","0","13920","","null","","","null","70","","","","","","","","","","","","","","","",""
"","ITI","","html-keyboard-response","456","410002","0.0-1.0-639.0","0","0","13920","","null","","","null","70","","","","","","","","","","","","","","","NaN",""
"","S1","","html-keyboard-response","457","410255","0.0-1.0-641.0","0","0","13920","","null","","","null","71","","","","","","","","","","","","","","","",""
"","ISI","","html-keyboard-response","458","411256","0.0-1.0-642.0","0","0","13920","","null","","","null","71","NaN","","","","","","","","","","","","","","",""
"","S2","","html-keyboard-response","459","411509","0.0-1.0-643.0","0","0","13920","","null","","","null","71","","NaN","","","","","","","","","","","","","",""
"","response","","html-keyboard-response","460","412310","0.0-1.0-644.0-0.0","0","0","13920","","800","","","68","71","","","2","71","training","adjacent","ED","5","4","R.jpg","O.jpg","1","0","0","",""
"","feedback","","html-keyboard-response","461","413312","0.0-1.0-645.0-0.0","0","0","13920","","null","","","null","71","","","","","","","","","","","","","","","",""
"","time_out","","html-keyboard-response","462","415315","0.0-1.0-647.0-0.0","0","0","13920","","null","","","null","71","","","","","","","","","","","","","","","",""
"","ITI","","html-keyboard-response","463","416317","0.0-1.0-648.0","0","0","13920","","null","","","null","71","","","","","","","","","","","","","","","NaN",""
"","S1","","html-keyboard-response","464","416570","0.0-1.0-650.0","0","0","13920","","null","","","null","72","","","","","","","","","","","","","","","",""
"","ISI","","html-keyboard-response","465","417572","0.0-1.0-651.0","0","0","13920","","null","","","null","72","NaN","","","","","","","","","","","","","","",""
"","S2","","html-keyboard-response","466","417824","0.0-1.0-652.0","0","0","13920","","null","","","null","72","","NaN","","","","","","","","","","","","","",""
"","response","","html-keyboard-response","467","418341","0.0-1.0-653.0-0.0","0","0","13920","","515","","","75","72","","","2","72","training","adjacent","GF","7","6","P.jpg","L.jpg","0","0","1","",""
"","feedback","","html-keyboard-response","468","419342","0.0-1.0-654.0-0.0","0","0","13920","","null","","","null","72","","","","","","","","","","","","","","","",""
"","ITI","","html-keyboard-response","469","420345","0.0-1.0-657.0","0","0","13920","","null","","","null","72","","","","","","","","","","","","","","","NaN",""
"","S1","","html-keyboard-response","470","420598","0.0-1.0-659.0","0","0","13920","","null","","","null","73","","","","","","","","","","","","","","","",""
"","ISI","","html-keyboard-response","471","421600","0.0-1.0-660.0","0","0","13920","","null","","","null","73","NaN","","","","","","","","","","","","","","",""
"","S2","","html-keyboard-response","472","421852","0.0-1.0-661.0","0","0","13920","","null","","","null","73","","NaN","","","","","","","","","","","","","",""
"","response","","html-keyboard-response","473","422142","0.0-1.0-662.0-0.0","0","0","13920","","288","","","68","73","","","2","73","training","adjacent","BC","2","3","M.jpg","Q.jpg","1","1","1","",""
"","feedback","","html-keyboard-response","474","423144","0.0-1.0-663.0-0.0","0","0","13920","","null","","","null","73","","","","","","","","","","","","","","","",""
"","ITI","","html-keyboard-response","475","424146","0.0-1.0-666.0","0","0","13920","","null","","","null","73","","","","","","","","","","","","","","","NaN",""
"","S1","","html-keyboard-response","476","424398","0.0-1.0-668.0","0","0","13920","","null","","","null","74","","","","","","","","","","","","","","","",""
"","ISI","","html-keyboard-response","477","425400","0.0-1.0-669.0","0","0","13920","","null","","","null","74","NaN","","","","","","","","","","","","","","",""
"","S2","","html-keyboard-response","478","425652","0.0-1.0-670.0","0","0","13920","","null","","","null","74","","NaN","","","","","","","","","","","","","",""
"","response","","html-keyboard-response","479","426458","0.0-1.0-671.0-0.0","0","0","13920","","805","","","68","74","","","2","74","training","adjacent","EF","5","6","R.jpg","L.jpg","1","1","1","",""
"","feedback","","html-keyboard-response","480","427461","0.0-1.0-672.0-0.0","0","0","13920","","null","","","null","74","","","","","","","","","","","","","","","",""
"","ITI","","html-keyboard-response","481","428463","0.0-1.0-675.0","0","0","13920","","null","","","null","74","","","","","","","","","","","","","","","NaN",""
"","S1","","html-keyboard-response","482","428716","0.0-1.0-677.0","0","0","13920","","null","","","null","75","","","","","","","","","","","","","","","",""
"","ISI","","html-keyboard-response","483","429718","0.0-1.0-678.0","0","0","13920","","null","","","null","75","NaN","","","","","","","","","","","","","","",""
"","S2","","html-keyboard-response","484","429969","0.0-1.0-679.0","0","0","13920","","null","","","null","75","","NaN","","","","","","","","","","","","","",""
"","response","","html-keyboard-response","485","430820","0.0-1.0-680.0-0.0","0","0","13920","","849","","","75","75","","","2","75","training","adjacent","DC","4","3","O.jpg","Q.jpg","0","0","1","",""
"","feedback","","html-keyboard-response","486","431834","0.0-1.0-681.0-0.0","0","0","13920","","null","","","null","75","","","","","","","","","","","","","","","",""
"","ITI","","html-keyboard-response","487","432837","0.0-1.0-684.0","0","0","13920","","null","","","null","75","","","","","","","","","","","","","","","NaN",""
"","S1","","html-keyboard-response","488","433089","0.0-1.0-686.0","0","0","13920","","null","","","null","76","","","","","","","","","","","","","","","",""
"","ISI","","html-keyboard-response","489","434091","0.0-1.0-687.0","0","0","13920","","null","","","null","76","NaN","","","","","","","","","","","","","","",""
"","S2","","html-keyboard-response","490","434343","0.0-1.0-688.0","0","0","13920","","null","","","null","76","","NaN","","","","","","","","","","","","","",""
"","response","","html-keyboard-response","491","435308","0.0-1.0-689.0-0.0","0","0","13920","","964","","","75","76","","","2","76","training","adjacent","DE","4","5","O.jpg","R.jpg","0","1","0","",""
"","feedback","","html-keyboard-response","492","436310","0.0-1.0-690.0-0.0","0","0","13920","","null","","","null","76","","","","","","","","","","","","","","","",""
"","time_out","","html-keyboard-response","493","438312","0.0-1.0-692.0-0.0","0","0","13920","","null","","","null","76","","","","","","","","","","","","","","","",""
"","ITI","","html-keyboard-response","494","439314","0.0-1.0-693.0","0","0","13920","","null","","","null","76","","","","","","","","","","","","","","","NaN",""
"","S1","","html-keyboard-response","495","439567","0.0-1.0-695.0","0","0","13920","","null","","","null","77","","","","","","","","","","","","","","","",""
"","ISI","","html-keyboard-response","496","440568","0.0-1.0-696.0","0","0","13920","","null","","","null","77","NaN","","","","","","","","","","","","","","",""
"","S2","","html-keyboard-response","497","440821","0.0-1.0-697.0","0","0","13920","","null","","","null","77","","NaN","","","","","","","","","","","","","",""
"","response","","html-keyboard-response","498","441023","0.0-1.0-698.0-0.0","0","0","13920","","200","","","75","77","","","2","77","training","adjacent","CB","3","2","Q.jpg","M.jpg","0","0","1","",""
"","feedback","","html-keyboard-response","499","442025","0.0-1.0-699.0-0.0","0","0","13920","","null","","","null","77","","","","","","","","","","","","","","","",""
"","ITI","","html-keyboard-response","500","443027","0.0-1.0-702.0","0","0","13920","","null","","","null","77","","","","","","","","","","","","","","","NaN",""
"","S1","","html-keyboard-response","501","443289","0.0-1.0-704.0","0","0","13920","","null","","","null","78","","","","","","","","","","","","","","","",""
"","ISI","","html-keyboard-response","502","444291","0.0-1.0-705.0","0","0","13920","","null","","","null","78","NaN","","","","","","","","","","","","","","",""
"","S2","","html-keyboard-response","503","444544","0.0-1.0-706.0","0","0","13920","","null","","","null","78","","NaN","","","","","","","","","","","","","",""
"","response","","html-keyboard-response","504","444830","0.0-1.0-707.0-0.0","0","0","13920","","285","","","68","78","","","2","78","training","adjacent","AB","1","2","N.jpg","M.jpg","1","1","1","",""
"","feedback","","html-keyboard-response","505","445833","0.0-1.0-708.0-0.0","0","0","13920","","null","","","null","78","","","","","","","","","","","","","","","",""
"","ITI","","html-keyboard-response","506","446836","0.0-1.0-711.0","0","0","13920","","null","","","null","78","","","","","","","","","","","","","","","NaN",""
"","S1","","html-keyboard-response","507","447092","0.0-1.0-713.0","0","0","13920","","null","","","null","79","","","","","","","","","","","","","","","",""
"","ISI","","html-keyboard-response","508","448094","0.0-1.0-714.0","0","0","13920","","null","","","null","79","NaN","","","","","","","","","","","","","","",""
"","S2","","html-keyboard-response","509","448346","0.0-1.0-715.0","0","0","13920","","null","","","null","79","","NaN","","","","","","","","","","","","","",""
"","response","","html-keyboard-response","510","449072","0.0-1.0-716.0-0.0","0","0","13920","","725","","","75","79","","","2","79","training","adjacent","CB","3","2","Q.jpg","M.jpg","0","0","1","",""
"","feedback","","html-keyboard-response","511","450074","0.0-1.0-717.0-0.0","0","0","13920","","null","","","null","79","","","","","","","","","","","","","","","",""
"","ITI","","html-keyboard-response","512","451076","0.0-1.0-720.0","0","0","13920","","null","","","null","79","","","","","","","","","","","","","","","NaN",""
"","S1","","html-keyboard-response","513","451333","0.0-1.0-722.0","0","0","13920","","null","","","null","80","","","","","","","","","","","","","","","",""
"","ISI","","html-keyboard-response","514","452335","0.0-1.0-723.0","0","0","13920","","null","","","null","80","NaN","","","","","","","","","","","","","","",""
"","S2","","html-keyboard-response","515","452587","0.0-1.0-724.0","0","0","13920","","null","","","null","80","","NaN","","","","","","","","","","","","","",""
"","response","","html-keyboard-response","516","453299","0.0-1.0-725.0-0.0","0","0","13920","","712","","","68","80","","","2","80","training","adjacent","AB","1","2","N.jpg","M.jpg","1","1","1","",""
"","feedback","","html-keyboard-response","517","454301","0.0-1.0-726.0-0.0","0","0","13920","","null","","","null","80","","","","","","","","","","","","","","","",""
"","ITI","","html-keyboard-response","518","455304","0.0-1.0-729.0","0","0","13920","","null","","","null","80","","","","","","","","","","","","","","","NaN",""
"","S1","","html-keyboard-response","519","455556","0.0-1.0-731.0","0","0","13920","","null","","","null","81","","","","","","","","","","","","","","","",""
"","ISI","","html-keyboard-response","520","456558","0.0-1.0-732.0","0","0","13920","","null","","","null","81","NaN","","","","","","","","","","","","","","",""
"","S2","","html-keyboard-response","521","456811","0.0-1.0-733.0","0","0","13920","","null","","","null","81","","NaN","","","","","","","","","","","","","",""
"","response","","html-keyboard-response","522","457283","0.0-1.0-734.0-0.0","0","0","13920","","470","","","75","81","","","2","81","training","adjacent","FE","6","5","L.jpg","R.jpg","0","0","1","",""
"","feedback","","html-keyboard-response","523","458285","0.0-1.0-735.0-0.0","0","0","13920","","null","","","null","81","","","","","","","","","","","","","","","",""
"","ITI","","html-keyboard-response","524","459288","0.0-1.0-738.0","0","0","13920","","null","","","null","81","","","","","","","","","","","","","","","NaN",""
"","S1","","html-keyboard-response","525","459541","0.0-1.0-740.0","0","0","13920","","null","","","null","82","","","","","","","","","","","","","","","",""
"","ISI","","html-keyboard-response","526","460543","0.0-1.0-741.0","0","0","13920","","null","","","null","82","NaN","","","","","","","","","","","","","","",""
"","S2","","html-keyboard-response","527","460795","0.0-1.0-742.0","0","0","13920","","null","","","null","82","","NaN","","","","","","","","","","","","","",""
"","response","","html-keyboard-response","528","461387","0.0-1.0-743.0-0.0","0","0","13920","","591","","","75","82","","","2","82","training","adjacent","GF","7","6","P.jpg","L.jpg","0","0","1","",""
"","feedback","","html-keyboard-response","529","462389","0.0-1.0-744.0-0.0","0","0","13920","","null","","","null","82","","","","","","","","","","","","","","","",""
"","ITI","","html-keyboard-response","530","463391","0.0-1.0-747.0","0","0","13920","","null","","","null","82","","","","","","","","","","","","","","","NaN",""
"","S1","","html-keyboard-response","531","463643","0.0-1.0-749.0","0","0","13920","","null","","","null","83","","","","","","","","","","","","","","","",""
"","ISI","","html-keyboard-response","532","464645","0.0-1.0-750.0","0","0","13920","","null","","","null","83","NaN","","","","","","","","","","","","","","",""
"","S2","","html-keyboard-response","533","464898","0.0-1.0-751.0","0","0","13920","","null","","","null","83","","NaN","","","","","","","","","","","","","",""
"","response","","html-keyboard-response","534","465610","0.0-1.0-752.0-0.0","0","0","13920","","711","","","75","83","","","2","83","training","adjacent","ED","5","4","R.jpg","O.jpg","0","0","1","",""
"","feedback","","html-keyboard-response","535","466612","0.0-1.0-753.0-0.0","0","0","13920","","null","","","null","83","","","","","","","","","","","","","","","",""
"","ITI","","html-keyboard-response","536","467615","0.0-1.0-756.0","0","0","13920","","null","","","null","83","","","","","","","","","","","","","","","NaN",""
"","S1","","html-keyboard-response","537","467867","0.0-1.0-758.0","0","0","13920","","null","","","null","84","","","","","","","","","","","","","","","",""
"","ISI","","html-keyboard-response","538","468868","0.0-1.0-759.0","0","0","13920","","null","","","null","84","NaN","","","","","","","","","","","","","","",""
"","S2","","html-keyboard-response","539","469120","0.0-1.0-760.0","0","0","13920","","null","","","null","84","","NaN","","","","","","","","","","","","","",""
"","response","","html-keyboard-response","540","469766","0.0-1.0-761.0-0.0","0","0","13920","","645","","","68","84","","","2","84","training","adjacent","DE","4","5","O.jpg","R.jpg","1","1","1","",""
"","feedback","","html-keyboard-response","541","470768","0.0-1.0-762.0-0.0","0","0","13920","","null","","","null","84","","","","","","","","","","","","","","","",""
"","ITI","","html-keyboard-response","542","471773","0.0-1.0-765.0","0","0","13920","","null","","","null","84","","","","","","","","","","","","","","","NaN",""
"","S1","","html-keyboard-response","543","472025","0.0-1.0-767.0","0","0","13920","","null","","","null","85","","","","","","","","","","","","","","","",""
"","ISI","","html-keyboard-response","544","473028","0.0-1.0-768.0","0","0","13920","","null","","","null","85","NaN","","","","","","","","","","","","","","",""
"","S2","","html-keyboard-response","545","473280","0.0-1.0-769.0","0","0","13920","","null","","","null","85","","NaN","","","","","","","","","","","","","",""
"","response","","html-keyboard-response","546","473781","0.0-1.0-770.0-0.0","0","0","13920","","498","","","68","85","","","2","85","training","adjacent","EF","5","6","R.jpg","L.jpg","1","1","1","",""
"","feedback","","html-keyboard-response","547","474783","0.0-1.0-771.0-0.0","0","0","13920","","null","","","null","85","","","","","","","","","","","","","","","",""
"","ITI","","html-keyboard-response","548","475785","0.0-1.0-774.0","0","0","13920","","null","","","null","85","","","","","","","","","","","","","","","NaN",""
"","S1","","html-keyboard-response","549","476037","0.0-1.0-776.0","0","0","13920","","null","","","null","86","","","","","","","","","","","","","","","",""
"","ISI","","html-keyboard-response","550","477040","0.0-1.0-777.0","0","0","13920","","null","","","null","86","NaN","","","","","","","","","","","","","","",""
"","S2","","html-keyboard-response","551","477292","0.0-1.0-778.0","0","0","13920","","null","","","null","86","","NaN","","","","","","","","","","","","","",""
"","response","","html-keyboard-response","552","477671","0.0-1.0-779.0-0.0","0","0","13920","","378","","","75","86","","","2","86","training","adjacent","GF","7","6","P.jpg","L.jpg","0","0","1","",""
"","feedback","","html-keyboard-response","553","478673","0.0-1.0-780.0-0.0","0","0","13920","","null","","","null","86","","","","","","","","","","","","","","","",""
"","ITI","","html-keyboard-response","554","479675","0.0-1.0-783.0","0","0","13920","","null","","","null","86","","","","","","","","","","","","","","","NaN",""
"","S1","","html-keyboard-response","555","479928","0.0-1.0-785.0","0","0","13920","","null","","","null","87","","","","","","","","","","","","","","","",""
"","ISI","","html-keyboard-response","556","480930","0.0-1.0-786.0","0","0","13920","","null","","","null","87","NaN","","","","","","","","","","","","","","",""
"","S2","","html-keyboard-response","557","481181","0.0-1.0-787.0","0","0","13920","","null","","","null","87","","NaN","","","","","","","","","","","","","",""
"","response","","html-keyboard-response","558","481535","0.0-1.0-788.0-0.0","0","0","13920","","351","","","68","87","","","2","87","training","adjacent","EF","5","6","R.jpg","L.jpg","1","1","1","",""
"","feedback","","html-keyboard-response","559","482541","0.0-1.0-789.0-0.0","0","0","13920","","null","","","null","87","","","","","","","","","","","","","","","",""
"","ITI","","html-keyboard-response","560","483543","0.0-1.0-792.0","0","0","13920","","null","","","null","87","","","","","","","","","","","","","","","NaN",""
"","S1","","html-keyboard-response","561","483794","0.0-1.0-794.0","0","0","13920","","null","","","null","88","","","","","","","","","","","","","","","",""
"","ISI","","html-keyboard-response","562","484797","0.0-1.0-795.0","0","0","13920","","null","","","null","88","NaN","","","","","","","","","","","","","","",""
"","S2","","html-keyboard-response","563","485049","0.0-1.0-796.0","0","0","13920","","null","","","null","88","","NaN","","","","","","","","","","","","","",""
"","response","","html-keyboard-response","564","485517","0.0-1.0-797.0-0.0","0","0","13920","","466","","","75","88","","","2","88","training","adjacent","BA","2","1","M.jpg","N.jpg","0","0","1","",""
"","feedback","","html-keyboard-response","565","486519","0.0-1.0-798.0-0.0","0","0","13920","","null","","","null","88","","","","","","","","","","","","","","","",""
"","ITI","","html-keyboard-response","566","487523","0.0-1.0-801.0","0","0","13920","","null","","","null","88","","","","","","","","","","","","","","","NaN",""
"","S1","","html-keyboard-response","567","487775","0.0-1.0-803.0","0","0","13920","","null","","","null","89","","","","","","","","","","","","","","","",""
"","ISI","","html-keyboard-response","568","488777","0.0-1.0-804.0","0","0","13920","","null","","","null","89","NaN","","","","","","","","","","","","","","",""
"","S2","","html-keyboard-response","569","489030","0.0-1.0-805.0","0","0","13920","","null","","","null","89","","NaN","","","","","","","","","","","","","",""
"","response","","html-keyboard-response","570","489506","0.0-1.0-806.0-0.0","0","0","13920","","475","","","75","89","","","2","89","training","adjacent","BA","2","1","M.jpg","N.jpg","0","0","1","",""
"","feedback","","html-keyboard-response","571","490508","0.0-1.0-807.0-0.0","0","0","13920","","null","","","null","89","","","","","","","","","","","","","","","",""
"","ITI","","html-keyboard-response","572","491510","0.0-1.0-810.0","0","0","13920","","null","","","null","89","","","","","","","","","","","","","","","NaN",""
"","S1","","html-keyboard-response","573","491762","0.0-1.0-812.0","0","0","13920","","null","","","null","90","","","","","","","","","","","","","","","",""
"","ISI","","html-keyboard-response","574","492764","0.0-1.0-813.0","0","0","13920","","null","","","null","90","NaN","","","","","","","","","","","","","","",""
"","S2","","html-keyboard-response","575","493016","0.0-1.0-814.0","0","0","13920","","null","","","null","90","","NaN","","","","","","","","","","","","","",""
"","response","","html-keyboard-response","576","493379","0.0-1.0-815.0-0.0","0","0","13920","","361","","","75","90","","","2","90","training","adjacent","ED","5","4","R.jpg","O.jpg","0","0","1","",""
"","feedback","","html-keyboard-response","577","494381","0.0-1.0-816.0-0.0","0","0","13920","","null","","","null","90","","","","","","","","","","","","","","","",""
"","ITI","","html-keyboard-response","578","495384","0.0-1.0-819.0","0","0","13920","","null","","","null","90","","","","","","","","","","","","","","","NaN",""
"","S1","","html-keyboard-response","579","495637","0.0-1.0-821.0","0","0","13920","","null","","","null","91","","","","","","","","","","","","","","","",""
"","ISI","","html-keyboard-response","580","496639","0.0-1.0-822.0","0","0","13920","","null","","","null","91","NaN","","","","","","","","","","","","","","",""
"","S2","","html-keyboard-response","581","496891","0.0-1.0-823.0","0","0","13920","","null","","","null","91","","NaN","","","","","","","","","","","","","",""
"","response","","html-keyboard-response","582","497121","0.0-1.0-824.0-0.0","0","0","13920","","228","","","68","91","","","2","91","training","adjacent","FG","6","7","L.jpg","P.jpg","1","1","1","",""
