"success","ttype","start_time","trial_type","trial_index","time_elapsed","internal_node_id","warning","missed_checkup","PID","view_history","rt","responses","repeat_instructions","key_press","index","keypress_isi","keypress_S2","block","trial_num","phase","group_type","pair_type","S1_stim","S2_stim","S1_img","S2_img","S1_chosen","S1_higher","accuracy","keypress_iti","total_bonus_tally"
"true","full_screen","d04142023hr0324","fullscreen","0","4988","0.0-0.0","0","0","79601","","","","","","","","","","","","","","","","","","","","","",""
"","instructions","","instructions","1","23874","0.0-1.0-0.0-0.0","0","0","79601","[{""page_index"":0,""viewing_time"":3988},{""page_index"":1,""viewing_time"":7392},{""page_index"":2,""viewing_time"":6279},{""page_index"":3,""viewing_time"":1224}]","18884","","","","","","","","","","","","","","","","","","","",""
"","comprehension_check","","survey-multi-choice","2","46514","0.0-1.0-0.0-1.0","0","0","79601","","22635","{""Q0"":""True"",""Q1"":""K"",""Q2"":""Only when the screen 'MAKE A CHOICE' is shown"",""Q3"":""Green mark"",""Q4"":""either D or K""}","1","","","","","","","","","","","","","","","","","",""
"","missed_instruction_checkup","","html-keyboard-response","3","48040","0.0-1.0-0.0-2.0-0.0","0","1","79601","","1523","","","32","","","","","","","","","","","","","","","","",""
"","instructions","","instructions","4","79457","0.0-1.0-0.1-0.1","0","0","79601","[{""page_index"":0,""viewing_time"":7369},{""page_index"":1,""viewing_time"":9751},{""page_index"":2,""viewing_time"":2920},{""page_index"":1,""viewing_time"":9792},{""page_index"":2,""viewing_time"":664},{""page_index"":3,""viewing_time"":920}]","31416","","","","","","","","","","","","","","","","","","","",""
"","comprehension_check","","survey-multi-choice","5","94649","0.0-1.0-0.1-1.1","0","0","79601","","15187","{""Q0"":""True"",""Q1"":""K"",""Q2"":""Once the second image appears and while the screen 'MAKE A CHOICE' is shown"",""Q3"":""Green mark"",""Q4"":""either D or K""}","0","","","","","","","","","","","","","","","","","",""
"","start_exp","","html-keyboard-response","6","96181","0.0-1.0-1.0","0","0","79601","","1530","","","32","","","","","","","","","","","","","","","","",""
"","S1","","html-keyboard-response","7","96435","0.0-1.0-2.0","0","0","79601","","null","","","null","0","","","","","","","","","","","","","","","",""
"","ISI","","html-keyboard-response","8","97438","0.0-1.0-3.0","0","0","79601","","239","","","75","0","k","","","","","","","","","","","","","","",""
"","S2","","html-keyboard-response","9","97691","0.0-1.0-4.0","0","0","79601","","null","","","null","0","","NaN","","","","","","","","","","","","","",""
"","response","","html-keyboard-response","10","98338","0.0-1.0-5.0-0.0","0","0","79601","","645","","","75","0","","","1","0","training","adjacent","GF","7","6","P.jpg","N.jpg","1","0","0","",""
"","feedback","","html-keyboard-response","11","99341","0.0-1.0-6.0-0.0","0","0","79601","","null","","","null","0","","","","","","","","","","","","","","","",""
"","time_out","","html-keyboard-response","12","101344","0.0-1.0-8.0-0.0","0","0","79601","","null","","","null","0","","","","","","","","","","","","","","","",""
"","ITI","","html-keyboard-response","13","102347","0.0-1.0-9.0","0","0","79601","","null","","","null","0","","","","","","","","","","","","","","","NaN",""
"","S1","","html-keyboard-response","14","102599","0.0-1.0-11.0","0","0","79601","","null","","","null","1","","","","","","","","","","","","","","","",""
"","ISI","","html-keyboard-response","15","103601","0.0-1.0-12.0","0","0","79601","","null","","","null","1","NaN","","","","","","","","","","","","","","",""
"","S2","","html-keyboard-response","16","103854","0.0-1.0-13.0","0","0","79601","","null","","","null","1","","NaN","","","","","","","","","","","","","",""
"","response","","html-keyboard-response","17","104293","0.0-1.0-14.0-0.0","0","0","79601","","437","","","68","1","","","1","1","training","adjacent","BA","2","1","R.jpg","M.jpg","0","0","1","",""
"","feedback","","html-keyboard-response","18","105295","0.0-1.0-15.0-0.0","0","0","79601","","null","","","null","1","","","","","","","","","","","","","","","",""
"","ITI","","html-keyboard-response","19","106297","0.0-1.0-18.0","0","0","79601","","null","","","null","1","","","","","","","","","","","","","","","NaN",""
"","S1","","html-keyboard-response","20","106549","0.0-1.0-20.0","0","0","79601","","null","","","null","2","","","","","","","","","","","","","","","",""
"","ISI","","html-keyboard-response","21","107552","0.0-1.0-21.0","0","0","79601","","null","","","null","2","NaN","","","","","","","","","","","","","","",""
"","S2","","html-keyboard-response","22","107805","0.0-1.0-22.0","0","0","79601","","null","","","null","2","","NaN","","","","","","","","","","","","","",""
"","response","","html-keyboard-response","23","108172","0.0-1.0-23.0-0.0","0","0","79601","","366","","","68","2","","","1","2","training","adjacent","CB","3","2","L.jpg","R.jpg","0","0","1","",""
"","feedback","","html-keyboard-response","24","109176","0.0-1.0-24.0-0.0","0","0","79601","","null","","","null","2","","","","","","","","","","","","","","","",""
"","ITI","","html-keyboard-response","25","110181","0.0-1.0-27.0","0","0","79601","","null","","","null","2","","","","","","","","","","","","","","","NaN",""
"","S1","","html-keyboard-response","26","110433","0.0-1.0-29.0","0","0","79601","","null","","","null","3","","","","","","","","","","","","","","","",""
"","ISI","","html-keyboard-response","27","111435","0.0-1.0-30.0","0","0","79601","","null","","","null","3","NaN","","","","","","","","","","","","","","",""
"","S2","","html-keyboard-response","28","111686","0.0-1.0-31.0","0","0","79601","","null","","","null","3","","NaN","","","","","","","","","","","","","",""
"","response","","html-keyboard-response","29","111916","0.0-1.0-32.0-0.0","0","0","79601","","228","","","75","3","","","1","3","training","adjacent","AB","1","2","M.jpg","R.jpg","1","1","1","",""
"","feedback","","html-keyboard-response","30","112918","0.0-1.0-33.0-0.0","0","0","79601","","null","","","null","3","","","","","","","","","","","","","","","",""
"","ITI","","html-keyboard-response","31","113932","0.0-1.0-36.0","0","0","79601","","null","","","null","3","","","","","","","","","","","","","","","NaN",""
"","S1","","html-keyboard-response","32","114184","0.0-1.0-38.0","0","0","79601","","null","","","null","4","","","","","","","","","","","","","","","",""
"","ISI","","html-keyboard-response","33","115187","0.0-1.0-39.0","0","0","79601","","null","","","null","4","NaN","","","","","","","","","","","","","","",""
"","S2","","html-keyboard-response","34","115440","0.0-1.0-40.0","0","0","79601","","null","","","null","4","","NaN","","","","","","","","","","","","","",""
"","response","","html-keyboard-response","35","115675","0.0-1.0-41.0-0.0","0","0","79601","","234","","","75","4","","","1","4","training","adjacent","CD","3","4","L.jpg","Q.jpg","1","1","1","",""
"","feedback","","html-keyboard-response","36","116677","0.0-1.0-42.0-0.0","0","0","79601","","null","","","null","4","","","","","","","","","","","","","","","",""
"","ITI","","html-keyboard-response","37","117679","0.0-1.0-45.0","0","0","79601","","null","","","null","4","","","","","","","","","","","","","","","NaN",""
"","S1","","html-keyboard-response","38","117932","0.0-1.0-47.0","0","0","79601","","null","","","null","5","","","","","","","","","","","","","","","",""
"","ISI","","html-keyboard-response","39","118935","0.0-1.0-48.0","0","0","79601","","null","","","null","5","NaN","","","","","","","","","","","","","","",""
"","S2","","html-keyboard-response","40","119187","0.0-1.0-49.0","0","0","79601","","null","","","null","5","","NaN","","","","","","","","","","","","","",""
"","response","","html-keyboard-response","41","119470","0.0-1.0-50.0-0.0","0","0","79601","","281","","","68","5","","","1","5","training","adjacent","AB","1","2","M.jpg","R.jpg","0","1","0","",""
"","feedback","","html-keyboard-response","42","120473","0.0-1.0-51.0-0.0","0","0","79601","","null","","","null","5","","","","","","","","","","","","","","","",""
"","time_out","","html-keyboard-response","43","122475","0.0-1.0-53.0-0.0","0","0","79601","","null","","","null","5","","","","","","","","","","","","","","","",""
"","ITI","","html-keyboard-response","44","123478","0.0-1.0-54.0","0","0","79601","","null","","","null","5","","","","","","","","","","","","","","","NaN",""
"","S1","","html-keyboard-response","45","123730","0.0-1.0-56.0","0","0","79601","","null","","","null","6","","","","","","","","","","","","","","","",""
"","ISI","","html-keyboard-response","46","124733","0.0-1.0-57.0","0","0","79601","","null","","","null","6","NaN","","","","","","","","","","","","","","",""
"","S2","","html-keyboard-response","47","124985","0.0-1.0-58.0","0","0","79601","","null","","","null","6","","NaN","","","","","","","","","","","","","",""
"","response","","html-keyboard-response","48","125355","0.0-1.0-59.0-0.0","0","0","79601","","369","","","75","6","","","1","6","training","adjacent","DE","4","5","Q.jpg","O.jpg","1","1","1","",""
"","feedback","","html-keyboard-response","49","126357","0.0-1.0-60.0-0.0","0","0","79601","","null","","","null","6","","","","","","","","","","","","","","","",""
"","ITI","","html-keyboard-response","50","127361","0.0-1.0-63.0","0","0","79601","","null","","","null","6","","","","","","","","","","","","","","","NaN",""
"","S1","","html-keyboard-response","51","127613","0.0-1.0-65.0","0","0","79601","","null","","","null","7","","","","","","","","","","","","","","","",""
"","ISI","","html-keyboard-response","52","128616","0.0-1.0-66.0","0","0","79601","","null","","","null","7","NaN","","","","","","","","","","","","","","",""
"","S2","","html-keyboard-response","53","128869","0.0-1.0-67.0","0","0","79601","","null","","","null","7","","NaN","","","","","","","","","","","","","",""
"","response","","html-keyboard-response","54","129637","0.0-1.0-68.0-0.0","0","0","79601","","767","","","75","7","","","1","7","training","adjacent","FE","6","5","N.jpg","O.jpg","1","0","0","",""
"","feedback","","html-keyboard-response","55","130639","0.0-1.0-69.0-0.0","0","0","79601","","null","","","null","7","","","","","","","","","","","","","","","",""
"","time_out","","html-keyboard-response","56","132641","0.0-1.0-71.0-0.0","0","0","79601","","null","","","null","7","","","","","","","","","","","","","","","",""
"","ITI","","html-keyboard-response","57","133647","0.0-1.0-72.0","0","0","79601","","null","","","null","7","","","","","","","","","","","","","","","NaN",""
"","S1","","html-keyboard-response","58","133900","0.0-1.0-74.0","0","0","79601","","null","","","null","8","","","","","","","","","","","","","","","",""
"","ISI","","html-keyboard-response","59","134901","0.0-1.0-75.0","0","0","79601","","null","","","null","8","NaN","","","","","","","","","","","","","","",""
"","S2","","html-keyboard-response","60","135153","0.0-1.0-76.0","0","0","79601","","null","","","null","8","","NaN","","","","","","","","","","","","","",""
"","response","","html-keyboard-response","61","136503","0.0-1.0-77.0-0.0","0","0","79601","","1348","","","68","8","","","1","8","training","adjacent","DC","4","3","Q.jpg","L.jpg","0","0","1","",""
"","feedback","","html-keyboard-response","62","137506","0.0-1.0-78.0-0.0","0","0","79601","","null","","","null","8","","","","","","","","","","","","","","","",""
"","ITI","","html-keyboard-response","63","138510","0.0-1.0-81.0","0","0","79601","","null","","","null","8","","","","","","","","","","","","","","","NaN",""
"","S1","","html-keyboard-response","64","138762","0.0-1.0-83.0","0","0","79601","","null","","","null","9","","","","","","","","","","","","","","","",""
"","ISI","","html-keyboard-response","65","139765","0.0-1.0-84.0","0","0","79601","","null","","","null","9","NaN","","","","","","","","","","","","","","",""
"","S2","","html-keyboard-response","66","140018","0.0-1.0-85.0","0","0","79601","","null","","","null","9","","NaN","","","","","","","","","","","","","",""
"","response","","html-keyboard-response","67","140903","0.0-1.0-86.0-0.0","0","0","79601","","884","","","75","9","","","1","9","training","adjacent","FG","6","7","N.jpg","P.jpg","1","1","1","",""
"","feedback","","html-keyboard-response","68","141906","0.0-1.0-87.0-0.0","0","0","79601","","null","","","null","9","","","","","","","","","","","","","","","",""
"","ITI","","html-keyboard-response","69","142909","0.0-1.0-90.0","0","0","79601","","null","","","null","9","","","","","","","","","","","","","","","NaN",""
"","S1","","html-keyboard-response","70","143161","0.0-1.0-92.0","0","0","79601","","null","","","null","10","","","","","","","","","","","","","","","",""
"","ISI","","html-keyboard-response","71","144163","0.0-1.0-93.0","0","0","79601","","null","","","null","10","NaN","","","","","","","","","","","","","","",""
"","S2","","html-keyboard-response","72","144415","0.0-1.0-94.0","0","0","79601","","null","","","null","10","","NaN","","","","","","","","","","","","","",""
"","response","","html-keyboard-response","73","144788","0.0-1.0-95.0-0.0","0","0","79601","","371","","","68","10","","","1","10","training","adjacent","EF","5","6","O.jpg","N.jpg","0","1","0","",""
"","feedback","","html-keyboard-response","74","145791","0.0-1.0-96.0-0.0","0","0","79601","","null","","","null","10","","","","","","","","","","","","","","","",""
"","time_out","","html-keyboard-response","75","147793","0.0-1.0-98.0-0.0","0","0","79601","","null","","","null","10","","","","","","","","","","","","","","","",""
"","ITI","","html-keyboard-response","76","148796","0.0-1.0-99.0","0","0","79601","","null","","","null","10","","","","","","","","","","","","","","","NaN",""
"","S1","","html-keyboard-response","77","149048","0.0-1.0-101.0","0","0","79601","","null","","","null","11","","","","","","","","","","","","","","","",""
"","ISI","","html-keyboard-response","78","150051","0.0-1.0-102.0","0","0","79601","","null","","","null","11","NaN","","","","","","","","","","","","","","",""
"","S2","","html-keyboard-response","79","150303","0.0-1.0-103.0","0","0","79601","","null","","","null","11","","NaN","","","","","","","","","","","","","",""
"","response","","html-keyboard-response","80","150559","0.0-1.0-104.0-0.0","0","0","79601","","255","","","75","11","","","1","11","training","adjacent","ED","5","4","O.jpg","Q.jpg","1","0","0","",""
"","feedback","","html-keyboard-response","81","151561","0.0-1.0-105.0-0.0","0","0","79601","","null","","","null","11","","","","","","","","","","","","","","","",""
"","time_out","","html-keyboard-response","82","153564","0.0-1.0-107.0-0.0","0","0","79601","","null","","","null","11","","","","","","","","","","","","","","","",""
"","ITI","","html-keyboard-response","83","154567","0.0-1.0-108.0","0","0","79601","","null","","","null","11","","","","","","","","","","","","","","","NaN",""
"","S1","","html-keyboard-response","84","154819","0.0-1.0-110.0","0","0","79601","","null","","","null","12","","","","","","","","","","","","","","","",""
"","ISI","","html-keyboard-response","85","155821","0.0-1.0-111.0","0","0","79601","","null","","","null","12","NaN","","","","","","","","","","","","","","",""
"","S2","","html-keyboard-response","86","156074","0.0-1.0-112.0","0","0","79601","","null","","","null","12","","NaN","","","","","","","","","","","","","",""
"","response","","html-keyboard-response","87","156418","0.0-1.0-113.0-0.0","0","0","79601","","343","","","75","12","","","1","12","training","adjacent","DE","4","5","Q.jpg","O.jpg","1","1","1","",""
"","feedback","","html-keyboard-response","88","157420","0.0-1.0-114.0-0.0","0","0","79601","","null","","","null","12","","","","","","","","","","","","","","","",""
"","ITI","","html-keyboard-response","89","158422","0.0-1.0-117.0","0","0","79601","","null","","","null","12","","","","","","","","","","","","","","","NaN",""
"","S1","","html-keyboard-response","90","158674","0.0-1.0-119.0","0","0","79601","","null","","","null","13","","","","","","","","","","","","","","","",""
"","ISI","","html-keyboard-response","91","159677","0.0-1.0-120.0","0","0","79601","","null","","","null","13","NaN","","","","","","","","","","","","","","",""
"","S2","","html-keyboard-response","92","159929","0.0-1.0-121.0","0","0","79601","","null","","","null","13","","NaN","","","","","","","","","","","","","",""
"","response","","html-keyboard-response","93","160132","0.0-1.0-122.0-0.0","0","0","79601","","202","","","68","13","","","1","13","training","adjacent","ED","5","4","O.jpg","Q.jpg","0","0","1","",""
"","feedback","","html-keyboard-response","94","161135","0.0-1.0-123.0-0.0","0","0","79601","","null","","","null","13","","","","","","","","","","","","","","","",""
"","ITI","","html-keyboard-response","95","162138","0.0-1.0-126.0","0","0","79601","","null","","","null","13","","","","","","","","","","","","","","","NaN",""
"","S1","","html-keyboard-response","96","162390","0.0-1.0-128.0","0","0","79601","","null","","","null","14","","","","","","","","","","","","","","","",""
"","ISI","","html-keyboard-response","97","163393","0.0-1.0-129.0","0","0","79601","","null","","","null","14","NaN","","","","","","","","","","","","","","",""
"","S2","","html-keyboard-response","98","163646","0.0-1.0-130.0","0","0","79601","","null","","","null","14","","NaN","","","","","","","","","","","","","",""
"","response","","html-keyboard-response","99","163805","0.0-1.0-131.0-0.0","0","0","79601","","158","","","75","14","","","1","14","training","adjacent","DC","4","3","Q.jpg","L.jpg","1","0","0","",""
"","feedback","","html-keyboard-response","100","164808","0.0-1.0-132.0-0.0","0","0","79601","","null","","","null","14","","","","","","","","","","","","","","","",""
"","time_out","","html-keyboard-response","101","166810","0.0-1.0-134.0-0.0","0","0","79601","","null","","","null","14","","","","","","","","","","","","","","","",""
"","ITI","","html-keyboard-response","102","167812","0.0-1.0-135.0","0","0","79601","","null","","","null","14","","","","","","","","","","","","","","","NaN",""
"","S1","","html-keyboard-response","103","168064","0.0-1.0-137.0","0","0","79601","","null","","","null","15","","","","","","","","","","","","","","","",""
"","ISI","","html-keyboard-response","104","169067","0.0-1.0-138.0","0","0","79601","","null","","","null","15","NaN","","","","","","","","","","","","","","",""
"","S2","","html-keyboard-response","105","169297","0.0-1.0-139.0","0","0","79601","","229","","","68","15","","d","1","15","training","adjacent","EF","5","6","O.jpg","N.jpg","0","1","0","",""
"","feedback","","html-keyboard-response","106","170300","0.0-1.0-141.0-0.0","0","0","79601","","null","","","null","15","","","","","","","","","","","","","","","",""
"","time_out","","html-keyboard-response","107","172302","0.0-1.0-143.0-0.0","0","0","79601","","null","","","null","15","","","","","","","","","","","","","","","",""
"","ITI","","html-keyboard-response","108","173304","0.0-1.0-144.0","0","0","79601","","null","","","null","15","","","","","","","","","","","","","","","NaN",""
"","S1","","html-keyboard-response","109","173557","0.0-1.0-146.0","0","0","79601","","null","","","null","16","","","","","","","","","","","","","","","",""
"","ISI","","html-keyboard-response","110","174559","0.0-1.0-147.0","0","0","79601","","null","","","null","16","NaN","","","","","","","","","","","","","","",""
"","S2","","html-keyboard-response","111","174811","0.0-1.0-148.0","0","0","79601","","null","","","null","16","","NaN","","","","","","","","","","","","","",""
"","response","","html-keyboard-response","112","175541","0.0-1.0-149.0-0.0","0","0","79601","","727","","","75","16","","","1","16","training","adjacent","FE","6","5","N.jpg","O.jpg","1","0","0","",""
"","feedback","","html-keyboard-response","113","176543","0.0-1.0-150.0-0.0","0","0","79601","","null","","","null","16","","","","","","","","","","","","","","","",""
"","time_out","","html-keyboard-response","114","178546","0.0-1.0-152.0-0.0","0","0","79601","","null","","","null","16","","","","","","","","","","","","","","","",""
"","ITI","","html-keyboard-response","115","179549","0.0-1.0-153.0","0","0","79601","","null","","","null","16","","","","","","","","","","","","","","","NaN",""
"","S1","","html-keyboard-response","116","179802","0.0-1.0-155.0","0","0","79601","","null","","","null","17","","","","","","","","","","","","","","","",""
"","ISI","","html-keyboard-response","117","180805","0.0-1.0-156.0","0","0","79601","","null","","","null","17","NaN","","","","","","","","","","","","","","",""
"","S2","","html-keyboard-response","118","181057","0.0-1.0-157.0","0","0","79601","","null","","","null","17","","NaN","","","","","","","","","","","","","",""
"","response","","html-keyboard-response","119","181461","0.0-1.0-158.0-0.0","0","0","79601","","403","","","68","17","","","1","17","training","adjacent","CD","3","4","L.jpg","Q.jpg","0","1","0","",""
"","feedback","","html-keyboard-response","120","182463","0.0-1.0-159.0-0.0","0","0","79601","","null","","","null","17","","","","","","","","","","","","","","","",""
"","time_out","","html-keyboard-response","121","184465","0.0-1.0-161.0-0.0","0","0","79601","","null","","","null","17","","","","","","","","","","","","","","","",""
"","ITI","","html-keyboard-response","122","185467","0.0-1.0-162.0","0","0","79601","","null","","","null","17","","","","","","","","","","","","","","","NaN",""
"","S1","","html-keyboard-response","123","185720","0.0-1.0-164.0","0","0","79601","","null","","","null","18","","","","","","","","","","","","","","","",""
"","ISI","","html-keyboard-response","124","186723","0.0-1.0-165.0","0","0","79601","","null","","","null","18","NaN","","","","","","","","","","","","","","",""
"","S2","","html-keyboard-response","125","186974","0.0-1.0-166.0","0","0","79601","","null","","","null","18","","NaN","","","","","","","","","","","","","",""
"","response","","html-keyboard-response","126","187460","0.0-1.0-167.0-0.0","0","0","79601","","484","","","68","18","","","1","18","training","adjacent","GF","7","6","P.jpg","N.jpg","0","0","1","",""
"","feedback","","html-keyboard-response","127","188464","0.0-1.0-168.0-0.0","0","0","79601","","null","","","null","18","","","","","","","","","","","","","","","",""
"","ITI","","html-keyboard-response","128","189472","0.0-1.0-171.0","0","0","79601","","null","","","null","18","","","","","","","","","","","","","","","NaN",""
"","S1","","html-keyboard-response","129","189724","0.0-1.0-173.0","0","0","79601","","null","","","null","19","","","","","","","","","","","","","","","",""
"","ISI","","html-keyboard-response","130","190727","0.0-1.0-174.0","0","0","79601","","null","","","null","19","NaN","","","","","","","","","","","","","","",""
"","S2","","html-keyboard-response","131","190980","0.0-1.0-175.0","0","0","79601","","null","","","null","19","","NaN","","","","","","","","","","","","","",""
"","response","","html-keyboard-response","132","191515","0.0-1.0-176.0-0.0","0","0","79601","","534","","","75","19","","","1","19","training","adjacent","FE","6","5","N.jpg","O.jpg","1","0","0","",""
"","feedback","","html-keyboard-response","133","192518","0.0-1.0-177.0-0.0","0","0","79601","","null","","","null","19","","","","","","","","","","","","","","","",""
"","time_out","","html-keyboard-response","134","194521","0.0-1.0-179.0-0.0","0","0","79601","","null","","","null","19","","","","","","","","","","","","","","","",""
"","ITI","","html-keyboard-response","135","195524","0.0-1.0-180.0","0","0","79601","","null","","","null","19","","","","","","","","","","","","","","","NaN",""
"","S1","","html-keyboard-response","136","195776","0.0-1.0-182.0","0","0","79601","","null","","","null","20","","","","","","","","","","","","","","","",""
"","ISI","","html-keyboard-response","137","196780","0.0-1.0-183.0","0","0","79601","","null","","","null","20","NaN","","","","","","","","","","","","","","",""
"","S2","","html-keyboard-response","138","197032","0.0-1.0-184.0","0","0","79601","","null","","","null","20","","NaN","","","","","","","","","","","","","",""
"","response","","html-keyboard-response","139","198178","0.0-1.0-185.0-0.0","0","0","79601","","1145","","","68","20","","","1","20","training","adjacent","BC","2","3","R.jpg","L.jpg","0","1","0","",""
"","feedback","","html-keyboard-response","140","199181","0.0-1.0-186.0-0.0","0","0","79601","","null","","","null","20","","","","","","","","","","","","","","","",""
"","time_out","","html-keyboard-response","141","201183","0.0-1.0-188.0-0.0","0","0","79601","","null","","","null","20","","","","","","","","","","","","","","","",""
"","ITI","","html-keyboard-response","142","202185","0.0-1.0-189.0","0","0","79601","","null","","","null","20","","","","","","","","","","","","","","","NaN",""
"","S1","","html-keyboard-response","143","202437","0.0-1.0-191.0","0","0","79601","","null","","","null","21","","","","","","","","","","","","","","","",""
"","ISI","","html-keyboard-response","144","203439","0.0-1.0-192.0","0","0","79601","","null","","","null","21","NaN","","","","","","","","","","","","","","",""
"","S2","","html-keyboard-response","145","203692","0.0-1.0-193.0","0","0","79601","","null","","","null","21","","NaN","","","","","","","","","","","","","",""
"","response","","html-keyboard-response","146","204145","0.0-1.0-194.0-0.0","0","0","79601","","452","","","75","21","","","1","21","training","adjacent","CB","3","2","L.jpg","R.jpg","1","0","0","",""
"","feedback","","html-keyboard-response","147","205149","0.0-1.0-195.0-0.0","0","0","79601","","null","","","null","21","","","","","","","","","","","","","","","",""
"","time_out","","html-keyboard-response","148","207151","0.0-1.0-197.0-0.0","0","0","79601","","null","","","null","21","","","","","","","","","","","","","","","",""
"","ITI","","html-keyboard-response","149","208153","0.0-1.0-198.0","0","0","79601","","null","","","null","21","","","","","","","","","","","","","","","NaN",""
"","S1","","html-keyboard-response","150","208405","0.0-1.0-200.0","0","0","79601","","null","","","null","22","","","","","","","","","","","","","","","",""
"","ISI","","html-keyboard-response","151","209407","0.0-1.0-201.0","0","0","79601","","null","","","null","22","NaN","","","","","","","","","","","","","","",""
"","S2","","html-keyboard-response","152","209660","0.0-1.0-202.0","0","0","79601","","null","","","null","22","","NaN","","","","","","","","","","","","","",""
"","response","","html-keyboard-response","153","210109","0.0-1.0-203.0-0.0","0","0","79601","","448","","","68","22","","","1","22","training","adjacent","ED","5","4","O.jpg","Q.jpg","0","0","1","",""
"","feedback","","html-keyboard-response","154","211112","0.0-1.0-204.0-0.0","0","0","79601","","null","","","null","22","","","","","","","","","","","","","","","",""
"","ITI","","html-keyboard-response","155","212115","0.0-1.0-207.0","0","0","79601","","null","","","null","22","","","","","","","","","","","","","","","NaN",""
"","S1","","html-keyboard-response","156","212368","0.0-1.0-209.0","0","0","79601","","null","","","null","23","","","","","","","","","","","","","","","",""
"","ISI","","html-keyboard-response","157","213371","0.0-1.0-210.0","0","0","79601","","null","","","null","23","NaN","","","","","","","","","","","","","","",""
"","S2","","html-keyboard-response","158","213623","0.0-1.0-211.0","0","0","79601","","null","","","null","23","","NaN","","","","","","","","","","","","","",""
"","response","","html-keyboard-response","159","214247","0.0-1.0-212.0-0.0","0","0","79601","","622","","","75","23","","","1","23","training","adjacent","DE","4","5","Q.jpg","O.jpg","1","1","1","",""
"","feedback","","html-keyboard-response","160","215250","0.0-1.0-213.0-0.0","0","0","79601","","null","","","null","23","","","","","","","","","","","","","","","",""
"","ITI","","html-keyboard-response","161","216252","0.0-1.0-216.0","0","0","79601","","null","","","null","23","","","","","","","","","","","","","","","NaN",""
"","S1","","html-keyboard-response","162","216514","0.0-1.0-218.0","0","0","79601","","null","","","null","24","","","","","","","","","","","","","","","",""
"","ISI","","html-keyboard-response","163","217516","0.0-1.0-219.0","0","0","79601","","null","","","null","24","NaN","","","","","","","","","","","","","","",""
"","S2","","html-keyboard-response","164","217768","0.0-1.0-220.0","0","0","79601","","null","","","null","24","","NaN","","","","","","","","","","","","","",""
"","response","","html-keyboard-response","165","218323","0.0-1.0-221.0-0.0","0","0","79601","","553","","","68","24","","","1","24","training","adjacent","BA","2","1","R.jpg","M.jpg","0","0","1","",""
"","feedback","","html-keyboard-response","166","219325","0.0-1.0-222.0-0.0","0","0","79601","","null","","","null","24","","","","","","","","","","","","","","","",""
"","ITI","","html-keyboard-response","167","220327","0.0-1.0-225.0","0","0","79601","","null","","","null","24","","","","","","","","","","","","","","","NaN",""
"","S1","","html-keyboard-response","168","220579","0.0-1.0-227.0","0","0","79601","","null","","","null","25","","","","","","","","","","","","","","","",""
"","ISI","","html-keyboard-response","169","221581","0.0-1.0-228.0","0","0","79601","","null","","","null","25","NaN","","","","","","","","","","","","","","",""
"","S2","","html-keyboard-response","170","221834","0.0-1.0-229.0","0","0","79601","","null","","","null","25","","NaN","","","","","","","","","","","","","",""
"","response","","html-keyboard-response","171","222214","0.0-1.0-230.0-0.0","0","0","79601","","379","","","75","25","","","1","25","training","adjacent","BA","2","1","R.jpg","M.jpg","1","0","0","",""
"","feedback","","html-keyboard-response","172","223216","0.0-1.0-231.0-0.0","0","0","79601","","null","","","null","25","","","","","","","","","","","","","","","",""
"","time_out","","html-keyboard-response","173","225218","0.0-1.0-233.0-0.0","0","0","79601","","null","","","null","25","","","","","","","","","","","","","","","",""
"","ITI","","html-keyboard-response","174","226221","0.0-1.0-234.0","0","0","79601","","null","","","null","25","","","","","","","","","","","","","","","NaN",""
"","S1","","html-keyboard-response","175","226474","0.0-1.0-236.0","0","0","79601","","null","","","null","26","","","","","","","","","","","","","","","",""
"","ISI","","html-keyboard-response","176","227476","0.0-1.0-237.0","0","0","79601","","null","","","null","26","NaN","","","","","","","","","","","","","","",""
"","S2","","html-keyboard-response","177","227728","0.0-1.0-238.0","0","0","79601","","null","","","null","26","","NaN","","","","","","","","","","","","","",""
"","response","","html-keyboard-response","178","228123","0.0-1.0-239.0-0.0","0","0","79601","","393","","","75","26","","","1","26","training","adjacent","BA","2","1","R.jpg","M.jpg","1","0","0","",""
"","feedback","","html-keyboard-response","179","229126","0.0-1.0-240.0-0.0","0","0","79601","","null","","","null","26","","","","","","","","","","","","","","","",""
"","time_out","","html-keyboard-response","180","231128","0.0-1.0-242.0-0.0","0","0","79601","","null","","","null","26","","","","","","","","","","","","","","","",""
"","ITI","","html-keyboard-response","181","232131","0.0-1.0-243.0","0","0","79601","","null","","","null","26","","","","","","","","","","","","","","","NaN",""
"","S1","","html-keyboard-response","182","232383","0.0-1.0-245.0","0","0","79601","","null","","","null","27","","","","","","","","","","","","","","","",""
"","ISI","","html-keyboard-response","183","233385","0.0-1.0-246.0","0","0","79601","","null","","","null","27","NaN","","","","","","","","","","","","","","",""
"","S2","","html-keyboard-response","184","233638","0.0-1.0-247.0","0","0","79601","","null","","","null","27","","NaN","","","","","","","","","","","","","",""
"","response","","html-keyboard-response","185","233980","0.0-1.0-248.0-0.0","0","0","79601","","339","","","68","27","","","1","27","training","adjacent","ED","5","4","O.jpg","Q.jpg","0","0","1","",""
"","feedback","","html-keyboard-response","186","234982","0.0-1.0-249.0-0.0","0","0","79601","","null","","","null","27","","","","","","","","","","","","","","","",""
"","ITI","","html-keyboard-response","187","235984","0.0-1.0-252.0","0","0","79601","","null","","","null","27","","","","","","","","","","","","","","","NaN",""
"","S1","","html-keyboard-response","188","236237","0.0-1.0-254.0","0","0","79601","","null","","","null","28","","","","","","","","","","","","","","","",""
"","ISI","","html-keyboard-response","189","237239","0.0-1.0-255.0","0","0","79601","","null","","","null","28","NaN","","","","","","","","","","","","","","",""
"","S2","","html-keyboard-response","190","237493","0.0-1.0-256.0","0","0","79601","","null","","","null","28","","NaN","","","","","","","","","","","","","",""
"","response","","html-keyboard-response","191","238112","0.0-1.0-257.0-0.0","0","0","79601","","618","","","75","28","","","1","28","training","adjacent","BC","2","3","R.jpg","L.jpg","1","1","1","",""
"","feedback","","html-keyboard-response","192","239114","0.0-1.0-258.0-0.0","0","0","79601","","null","","","null","28","","","","","","","","","","","","","","","",""
"","ITI","","html-keyboard-response","193","240131","0.0-1.0-261.0","0","0","79601","","null","","","null","28","","","","","","","","","","","","","","","NaN",""
"","S1","","html-keyboard-response","194","240384","0.0-1.0-263.0","0","0","79601","","null","","","null","29","","","","","","","","","","","","","","","",""
"","ISI","","html-keyboard-response","195","241387","0.0-1.0-264.0","0","0","79601","","null","","","null","29","NaN","","","","","","","","","","","","","","",""
"","S2","","html-keyboard-response","196","241640","0.0-1.0-265.0","0","0","79601","","null","","","null","29","","NaN","","","","","","","","","","","","","",""
"","response","","html-keyboard-response","197","241942","0.0-1.0-266.0-0.0","0","0","79601","","300","","","75","29","","","1","29","training","adjacent","CB","3","2","L.jpg","R.jpg","1","0","0","",""
"","feedback","","html-keyboard-response","198","242944","0.0-1.0-267.0-0.0","0","0","79601","","null","","","null","29","","","","","","","","","","","","","","","",""
"","time_out","","html-keyboard-response","199","244946","0.0-1.0-269.0-0.0","0","0","79601","","null","","","null","29","","","","","","","","","","","","","","","",""
"","ITI","","html-keyboard-response","200","245948","0.0-1.0-270.0","0","0","79601","","null","","","null","29","","","","","","","","","","","","","","","NaN",""
"","S1","","html-keyboard-response","201","246201","0.0-1.0-272.0","0","0","79601","","null","","","null","30","","","","","","","","","","","","","","","",""
"","ISI","","html-keyboard-response","202","247204","0.0-1.0-273.0","0","0","79601","","null","","","null","30","NaN","","","","","","","","","","","","","","",""
"","S2","","html-keyboard-response","203","247456","0.0-1.0-274.0","0","0","79601","","null","","","null","30","","NaN","","","","","","","","","","","","","",""
"","response","","html-keyboard-response","204","247814","0.0-1.0-275.0-0.0","0","0","79601","","356","","","68","30","","","1","30","training","adjacent","FG","6","7","N.jpg","P.jpg","0","1","0","",""
"","feedback","","html-keyboard-response","205","248822","0.0-1.0-276.0-0.0","0","0","79601","","null","","","null","30","","","","","","","","","","","","","","","",""
"","time_out","","html-keyboard-response","206","250824","0.0-1.0-278.0-0.0","0","0","79601","","null","","","null","30","","","","","","","","","","","","","","","",""
"","ITI","","html-keyboard-response","207","251827","0.0-1.0-279.0","0","0","79601","","null","","","null","30","","","","","","","","","","","","","","","NaN",""
"","S1","","html-keyboard-response","208","252080","0.0-1.0-281.0","0","0","79601","","null","","","null","31","","","","","","","","","","","","","","","",""
"","ISI","","html-keyboard-response","209","253082","0.0-1.0-282.0","0","0","79601","","null","","","null","31","NaN","","","","","","","","","","","","","","",""
"","S2","","html-keyboard-response","210","253347","0.0-1.0-283.0","0","0","79601","","null","","","null","31","","NaN","","","","","","","","","","","","","",""
"","response","","html-keyboard-response","211","253756","0.0-1.0-284.0-0.0","0","0","79601","","408","","","68","31","","","1","31","training","adjacent","GF","7","6","P.jpg","N.jpg","0","0","1","",""
"","feedback","","html-keyboard-response","212","254759","0.0-1.0-285.0-0.0","0","0","79601","","null","","","null","31","","","","","","","","","","","","","","","",""
"","ITI","","html-keyboard-response","213","255762","0.0-1.0-288.0","0","0","79601","","null","","","null","31","","","","","","","","","","","","","","","NaN",""
"","S1","","html-keyboard-response","214","256015","0.0-1.0-290.0","0","0","79601","","null","","","null","32","","","","","","","","","","","","","","","",""
"","ISI","","html-keyboard-response","215","257018","0.0-1.0-291.0","0","0","79601","","null","","","null","32","NaN","","","","","","","","","","","","","","",""
"","S2","","html-keyboard-response","216","257271","0.0-1.0-292.0","0","0","79601","","null","","","null","32","","NaN","","","","","","","","","","","","","",""
"","response","","html-keyboard-response","217","257881","0.0-1.0-293.0-0.0","0","0","79601","","609","","","68","32","","","1","32","training","adjacent","DE","4","5","Q.jpg","O.jpg","0","1","0","",""
"","feedback","","html-keyboard-response","218","258883","0.0-1.0-294.0-0.0","0","0","79601","","null","","","null","32","","","","","","","","","","","","","","","",""
"","time_out","","html-keyboard-response","219","260886","0.0-1.0-296.0-0.0","0","0","79601","","null","","","null","32","","","","","","","","","","","","","","","",""
"","ITI","","html-keyboard-response","220","261889","0.0-1.0-297.0","0","0","79601","","null","","","null","32","","","","","","","","","","","","","","","NaN",""
"","S1","","html-keyboard-response","221","262143","0.0-1.0-299.0","0","0","79601","","null","","","null","33","","","","","","","","","","","","","","","",""
"","ISI","","html-keyboard-response","222","263160","0.0-1.0-300.0","0","0","79601","","null","","","null","33","NaN","","","","","","","","","","","","","","",""
"","S2","","html-keyboard-response","223","263412","0.0-1.0-301.0","0","0","79601","","null","","","null","33","","NaN","","","","","","","","","","","","","",""
"","response","","html-keyboard-response","224","263696","0.0-1.0-302.0-0.0","0","0","79601","","283","","","68","33","","","1","33","training","adjacent","AB","1","2","M.jpg","R.jpg","0","1","0","",""
"","feedback","","html-keyboard-response","225","264699","0.0-1.0-303.0-0.0","0","0","79601","","null","","","null","33","","","","","","","","","","","","","","","",""
"","time_out","","html-keyboard-response","226","266702","0.0-1.0-305.0-0.0","0","0","79601","","null","","","null","33","","","","","","","","","","","","","","","",""
"","ITI","","html-keyboard-response","227","267705","0.0-1.0-306.0","0","0","79601","","null","","","null","33","","","","","","","","","","","","","","","NaN",""
"","S1","","html-keyboard-response","228","267957","0.0-1.0-308.0","0","0","79601","","null","","","null","34","","","","","","","","","","","","","","","",""
"","ISI","","html-keyboard-response","229","268960","0.0-1.0-309.0","0","0","79601","","null","","","null","34","NaN","","","","","","","","","","","","","","",""
"","S2","","html-keyboard-response","230","269212","0.0-1.0-310.0","0","0","79601","","null","","","null","34","","NaN","","","","","","","","","","","","","",""
"","response","","html-keyboard-response","231","269980","0.0-1.0-311.0-0.0","0","0","79601","","767","","","75","34","","","1","34","training","adjacent","CD","3","4","L.jpg","Q.jpg","1","1","1","",""
"","feedback","","html-keyboard-response","232","270982","0.0-1.0-312.0-0.0","0","0","79601","","null","","","null","34","","","","","","","","","","","","","","","",""
"","ITI","","html-keyboard-response","233","271984","0.0-1.0-315.0","0","0","79601","","null","","","null","34","","","","","","","","","","","","","","","NaN",""
"","S1","","html-keyboard-response","234","272236","0.0-1.0-317.0","0","0","79601","","null","","","null","35","","","","","","","","","","","","","","","",""
"","ISI","","html-keyboard-response","235","273251","0.0-1.0-318.0","0","0","79601","","null","","","null","35","NaN","","","","","","","","","","","","","","",""
"","S2","","html-keyboard-response","236","273517","0.0-1.0-319.0","0","0","79601","","null","","","null","35","","NaN","","","","","","","","","","","","","",""
"","response","","html-keyboard-response","237","274039","0.0-1.0-320.0-0.0","0","0","79601","","521","","","68","35","","","1","35","training","adjacent","FG","6","7","N.jpg","P.jpg","0","1","0","",""
"","feedback","","html-keyboard-response","238","275042","0.0-1.0-321.0-0.0","0","0","79601","","null","","","null","35","","","","","","","","","","","","","","","",""
"","time_out","","html-keyboard-response","239","277044","0.0-1.0-323.0-0.0","0","0","79601","","null","","","null","35","","","","","","","","","","","","","","","",""
"","ITI","","html-keyboard-response","240","278046","0.0-1.0-324.0","0","0","79601","","null","","","null","35","","","","","","","","","","","","","","","NaN",""
"","S1","","html-keyboard-response","241","278299","0.0-1.0-326.0","0","0","79601","","null","","","null","36","","","","","","","","","","","","","","","",""
"","ISI","","html-keyboard-response","242","279301","0.0-1.0-327.0","0","0","79601","","null","","","null","36","NaN","","","","","","","","","","","","","","",""
"","S2","","html-keyboard-response","243","279554","0.0-1.0-328.0","0","0","79601","","null","","","null","36","","NaN","","","","","","","","","","","","","",""
"","response","","html-keyboard-response","244","280030","0.0-1.0-329.0-0.0","0","0","79601","","474","","","68","36","","","1","36","training","adjacent","EF","5","6","O.jpg","N.jpg","0","1","0","",""
"","feedback","","html-keyboard-response","245","281032","0.0-1.0-330.0-0.0","0","0","79601","","null","","","null","36","","","","","","","","","","","","","","","",""
"","time_out","","html-keyboard-response","246","283035","0.0-1.0-332.0-0.0","0","0","79601","","null","","","null","36","","","","","","","","","","","","","","","",""
"","ITI","","html-keyboard-response","247","284037","0.0-1.0-333.0","0","0","79601","","null","","","null","36","","","","","","","","","","","","","","","NaN",""
"","S1","","html-keyboard-response","248","284290","0.0-1.0-335.0","0","0","79601","","null","","","null","37","","","","","","","","","","","","","","","",""
"","ISI","","html-keyboard-response","249","285293","0.0-1.0-336.0","0","0","79601","","null","","","null","37","NaN","","","","","","","","","","","","","","",""
"","S2","","html-keyboard-response","250","285546","0.0-1.0-337.0","0","0","79601","","null","","","null","37","","NaN","","","","","","","","","","","","","",""
"","response","","html-keyboard-response","251","285733","0.0-1.0-338.0-0.0","0","0","79601","","186","","","75","37","","","1","37","training","adjacent","FE","6","5","N.jpg","O.jpg","1","0","0","",""
"","feedback","","html-keyboard-response","252","286735","0.0-1.0-339.0-0.0","0","0","79601","","null","","","null","37","","","","","","","","","","","","","","","",""
"","time_out","","html-keyboard-response","253","288737","0.0-1.0-341.0-0.0","0","0","79601","","null","","","null","37","","","","","","","","","","","","","","","",""
"","ITI","","html-keyboard-response","254","289740","0.0-1.0-342.0","0","0","79601","","null","","","null","37","","","","","","","","","","","","","","","NaN",""
"","S1","","html-keyboard-response","255","289992","0.0-1.0-344.0","0","0","79601","","null","","","null","38","","","","","","","","","","","","","","","",""
"","ISI","","html-keyboard-response","256","290995","0.0-1.0-345.0","0","0","79601","","null","","","null","38","NaN","","","","","","","","","","","","","","",""
"","S2","","html-keyboard-response","257","291247","0.0-1.0-346.0","0","0","79601","","null","","","null","38","","NaN","","","","","","","","","","","","","",""
"","response","","html-keyboard-response","258","291466","0.0-1.0-347.0-0.0","0","0","79601","","218","","","68","38","","","1","38","training","adjacent","FG","6","7","N.jpg","P.jpg","0","1","0","",""
"","feedback","","html-keyboard-response","259","292467","0.0-1.0-348.0-0.0","0","0","79601","","null","","","null","38","","","","","","","","","","","","","","","",""
"","time_out","","html-keyboard-response","260","294469","0.0-1.0-350.0-0.0","0","0","79601","","null","","","null","38","","","","","","","","","","","","","","","",""
"","ITI","","html-keyboard-response","261","295471","0.0-1.0-351.0","0","0","79601","","null","","","null","38","","","","","","","","","","","","","","","NaN",""
"","S1","","html-keyboard-response","262","295723","0.0-1.0-353.0","0","0","79601","","null","","","null","39","","","","","","","","","","","","","","","",""
"","ISI","","html-keyboard-response","263","296725","0.0-1.0-354.0","0","0","79601","","911","","","75","39","k","","","","","","","","","","","","","","",""
"","S2","","html-keyboard-response","264","296977","0.0-1.0-355.0","0","0","79601","","null","","","null","39","","NaN","","","","","","","","","","","","","",""
"","response","","html-keyboard-response","265","297294","0.0-1.0-356.0-0.0","0","0","79601","","315","","","75","39","","","1","39","training","adjacent","DC","4","3","Q.jpg","L.jpg","1","0","0","",""
"","feedback","","html-keyboard-response","266","298298","0.0-1.0-357.0-0.0","0","0","79601","","null","","","null","39","","","","","","","","","","","","","","","",""
"","time_out","","html-keyboard-response","267","300301","0.0-1.0-359.0-0.0","0","0","79601","","null","","","null","39","","","","","","","","","","","","","","","",""
"","ITI","","html-keyboard-response","268","301302","0.0-1.0-360.0","0","0","79601","","null","","","null","39","","","","","","","","","","","","","","","NaN",""
"","S1","","html-keyboard-response","269","301554","0.0-1.0-362.0","0","0","79601","","null","","","null","40","","","","","","","","","","","","","","","",""
"","ISI","","html-keyboard-response","270","302557","0.0-1.0-363.0","0","0","79601","","null","","","null","40","NaN","","","","","","","","","","","","","","",""
"","S2","","html-keyboard-response","271","302809","0.0-1.0-364.0","0","0","79601","","null","","","null","40","","NaN","","","","","","","","","","","","","",""
"","response","","html-keyboard-response","272","303311","0.0-1.0-365.0-0.0","0","0","79601","","500","","","75","40","","","1","40","training","adjacent","GF","7","6","P.jpg","N.jpg","1","0","0","",""
"","feedback","","html-keyboard-response","273","304313","0.0-1.0-366.0-0.0","0","0","79601","","null","","","null","40","","","","","","","","","","","","","","","",""
"","time_out","","html-keyboard-response","274","306316","0.0-1.0-368.0-0.0","0","0","79601","","null","","","null","40","","","","","","","","","","","","","","","",""
"","ITI","","html-keyboard-response","275","307319","0.0-1.0-369.0","0","0","79601","","null","","","null","40","","","","","","","","","","","","","","","NaN",""
"","S1","","html-keyboard-response","276","307571","0.0-1.0-371.0","0","0","79601","","null","","","null","41","","","","","","","","","","","","","","","",""
"","ISI","","html-keyboard-response","277","308574","0.0-1.0-372.0","0","0","79601","","null","","","null","41","NaN","","","","","","","","","","","","","","",""
"","S2","","html-keyboard-response","278","308815","0.0-1.0-373.0","0","0","79601","","239","","","68","41","","d","1","41","training","adjacent","EF","5","6","O.jpg","N.jpg","0","1","0","",""
"","feedback","","html-keyboard-response","279","309817","0.0-1.0-375.0-0.0","0","0","79601","","null","","","null","41","","","","","","","","","","","","","","","",""
"","time_out","","html-keyboard-response","280","311820","0.0-1.0-377.0-0.0","0","0","79601","","null","","","null","41","","","","","","","","","","","","","","","",""
"","ITI","","html-keyboard-response","281","312821","0.0-1.0-378.0","0","0","79601","","null","","","null","41","","","","","","","","","","","","","","","NaN",""
"","S1","","html-keyboard-response","282","313073","0.0-1.0-380.0","0","0","79601","","null","","","null","42","","","","","","","","","","","","","","","",""
"","ISI","","html-keyboard-response","283","314076","0.0-1.0-381.0","0","0","79601","","null","","","null","42","NaN","","","","","","","","","","","","","","",""
"","S2","","html-keyboard-response","284","314329","0.0-1.0-382.0","0","0","79601","","null","","","null","42","","NaN","","","","","","","","","","","","","",""
"","response","","html-keyboard-response","285","314618","0.0-1.0-383.0-0.0","0","0","79601","","288","","","68","42","","","1","42","training","adjacent","BC","2","3","R.jpg","L.jpg","0","1","0","",""
"","feedback","","html-keyboard-response","286","315620","0.0-1.0-384.0-0.0","0","0","79601","","null","","","null","42","","","","","","","","","","","","","","","",""
"","time_out","","html-keyboard-response","287","317622","0.0-1.0-386.0-0.0","0","0","79601","","null","","","null","42","","","","","","","","","","","","","","","",""
"","ITI","","html-keyboard-response","288","318625","0.0-1.0-387.0","0","0","79601","","null","","","null","42","","","","","","","","","","","","","","","NaN",""
"","S1","","html-keyboard-response","289","318878","0.0-1.0-389.0","0","0","79601","","null","","","null","43","","","","","","","","","","","","","","","",""
"","ISI","","html-keyboard-response","290","319881","0.0-1.0-390.0","0","0","79601","","null","","","null","43","NaN","","","","","","","","","","","","","","",""
"","S2","","html-keyboard-response","291","320133","0.0-1.0-391.0","0","0","79601","","null","","","null","43","","NaN","","","","","","","","","","","","","",""
"","response","","html-keyboard-response","292","320390","0.0-1.0-392.0-0.0","0","0","79601","","256","","","75","43","","","1","43","training","adjacent","DC","4","3","Q.jpg","L.jpg","1","0","0","",""
"","feedback","","html-keyboard-response","293","321392","0.0-1.0-393.0-0.0","0","0","79601","","null","","","null","43","","","","","","","","","","","","","","","",""
"","time_out","","html-keyboard-response","294","323395","0.0-1.0-395.0-0.0","0","0","79601","","null","","","null","43","","","","","","","","","","","","","","","",""
"","ITI","","html-keyboard-response","295","324397","0.0-1.0-396.0","0","0","79601","","null","","","null","43","","","","","","","","","","","","","","","NaN",""
"","S1","","html-keyboard-response","296","324650","0.0-1.0-398.0","0","0","79601","","null","","","null","44","","","","","","","","","","","","","","","",""
"","ISI","","html-keyboard-response","297","325653","0.0-1.0-399.0","0","0","79601","","null","","","null","44","NaN","","","","","","","","","","","","","","",""
"","S2","","html-keyboard-response","298","325906","0.0-1.0-400.0","0","0","79601","","null","","","null","44","","NaN","","","","","","","","","","","","","",""
"","response","","html-keyboard-response","299","326340","0.0-1.0-401.0-0.0","0","0","79601","","431","","","68","44","","","1","44","training","adjacent","BC","2","3","R.jpg","L.jpg","0","1","0","",""
"","feedback","","html-keyboard-response","300","327343","0.0-1.0-402.0-0.0","0","0","79601","","null","","","null","44","","","","","","","","","","","","","","","",""
"","time_out","","html-keyboard-response","301","329346","0.0-1.0-404.0-0.0","0","0","79601","","null","","","null","44","","","","","","","","","","","","","","","",""
"","ITI","","html-keyboard-response","302","330349","0.0-1.0-405.0","0","0","79601","","null","","","null","44","","","","","","","","","","","","","","","NaN",""
"","S1","","html-keyboard-response","303","330602","0.0-1.0-407.0","0","0","79601","","null","","","null","45","","","","","","","","","","","","","","","",""
"","ISI","","html-keyboard-response","304","331604","0.0-1.0-408.0","0","0","79601","","null","","","null","45","NaN","","","","","","","","","","","","","","",""
"","S2","","html-keyboard-response","305","331858","0.0-1.0-409.0","0","0","79601","","null","","","null","45","","NaN","","","","","","","","","","","","","",""
"","response","","html-keyboard-response","306","332195","0.0-1.0-410.0-0.0","0","0","79601","","336","","","75","45","","","1","45","training","adjacent","CB","3","2","L.jpg","R.jpg","1","0","0","",""
"","feedback","","html-keyboard-response","307","333197","0.0-1.0-411.0-0.0","0","0","79601","","null","","","null","45","","","","","","","","","","","","","","","",""
"","time_out","","html-keyboard-response","308","335200","0.0-1.0-413.0-0.0","0","0","79601","","null","","","null","45","","","","","","","","","","","","","","","",""
"","ITI","","html-keyboard-response","309","336205","0.0-1.0-414.0","0","0","79601","","null","","","null","45","","","","","","","","","","","","","","","NaN",""
"","S1","","html-keyboard-response","310","336458","0.0-1.0-416.0","0","0","79601","","null","","","null","46","","","","","","","","","","","","","","","",""
"","ISI","","html-keyboard-response","311","337461","0.0-1.0-417.0","0","0","79601","","null","","","null","46","NaN","","","","","","","","","","","","","","",""
"","S2","","html-keyboard-response","312","337714","0.0-1.0-418.0","0","0","79601","","null","","","null","46","","NaN","","","","","","","","","","","","","",""
"","response","","html-keyboard-response","313","338120","0.0-1.0-419.0-0.0","0","0","79601","","405","","","75","46","","","1","46","training","adjacent","CD","3","4","L.jpg","Q.jpg","1","1","1","",""
"","feedback","","html-keyboard-response","314","339123","0.0-1.0-420.0-0.0","0","0","79601","","null","","","null","46","","","","","","","","","","","","","","","",""
"","ITI","","html-keyboard-response","315","340126","0.0-1.0-423.0","0","0","79601","","null","","","null","46","","","","","","","","","","","","","","","NaN",""
"","S1","","html-keyboard-response","316","340377","0.0-1.0-425.0","0","0","79601","","null","","","null","47","","","","","","","","","","","","","","","",""
"","ISI","","html-keyboard-response","317","341380","0.0-1.0-426.0","0","0","79601","","null","","","null","47","NaN","","","","","","","","","","","","","","",""
"","S2","","html-keyboard-response","318","341632","0.0-1.0-427.0","0","0","79601","","null","","","null","47","","NaN","","","","","","","","","","","","","",""
"","response","","html-keyboard-response","319","342143","0.0-1.0-428.0-0.0","0","0","79601","","509","","","68","47","","","1","47","training","adjacent","AB","1","2","M.jpg","R.jpg","0","1","0","",""
"","feedback","","html-keyboard-response","320","343147","0.0-1.0-429.0-0.0","0","0","79601","","null","","","null","47","","","","","","","","","","","","","","","",""
"","time_out","","html-keyboard-response","321","345150","0.0-1.0-431.0-0.0","0","0","79601","","null","","","null","47","","","","","","","","","","","","","","","",""
"","ITI","","html-keyboard-response","322","346152","0.0-1.0-432.0","0","0","79601","","null","","","null","47","","","","","","","","","","","","","","","NaN",""
"","block_over","","html-keyboard-response","323","356640","0.0-1.0-433.0-0.0","0","0","79601","","10486","","","32","47","","","","","","","","","","","","","","","",""
"","S1","","html-keyboard-response","324","356894","0.0-1.0-434.0","0","0","79601","","null","","","null","48","","","","","","","","","","","","","","","",""
"","ISI","","html-keyboard-response","325","357896","0.0-1.0-435.0","0","0","79601","","null","","","null","48","NaN","","","","","","","","","","","","","","",""
"","S2","","html-keyboard-response","326","358148","0.0-1.0-436.0","0","0","79601","","null","","","null","48","","NaN","","","","","","","","","","","","","",""
"","response","","html-keyboard-response","327","358576","0.0-1.0-437.0-0.0","0","0","79601","","426","","","68","48","","","2","48","training","adjacent","BA","2","1","R.jpg","M.jpg","0","0","1","",""
"","feedback","","html-keyboard-response","328","359579","0.0-1.0-438.0-0.0","0","0","79601","","null","","","null","48","","","","","","","","","","","","","","","",""
"","ITI","","html-keyboard-response","329","360581","0.0-1.0-441.0","0","0","79601","","null","","","null","48","","","","","","","","","","","","","","","NaN",""
"","S1","","html-keyboard-response","330","360834","0.0-1.0-443.0","0","0","79601","","null","","","null","49","","","","","","","","","","","","","","","",""
"","ISI","","html-keyboard-response","331","361836","0.0-1.0-444.0","0","0","79601","","null","","","null","49","NaN","","","","","","","","","","","","","","",""
"","S2","","html-keyboard-response","332","362090","0.0-1.0-445.0","0","0","79601","","null","","","null","49","","NaN","","","","","","","","","","","","","",""
"","response","","html-keyboard-response","333","362954","0.0-1.0-446.0-0.0","0","0","79601","","863","","","68","49","","","2","49","training","adjacent","BC","2","3","R.jpg","L.jpg","0","1","0","",""
"","feedback","","html-keyboard-response","334","363957","0.0-1.0-447.0-0.0","0","0","79601","","null","","","null","49","","","","","","","","","","","","","","","",""
"","time_out","","html-keyboard-response","335","365960","0.0-1.0-449.0-0.0","0","0","79601","","null","","","null","49","","","","","","","","","","","","","","","",""
"","ITI","","html-keyboard-response","336","366964","0.0-1.0-450.0","0","0","79601","","null","","","null","49","","","","","","","","","","","","","","","NaN",""
"","S1","","html-keyboard-response","337","367215","0.0-1.0-452.0","0","0","79601","","null","","","null","50","","","","","","","","","","","","","","","",""
"","ISI","","html-keyboard-response","338","368218","0.0-1.0-453.0","0","0","79601","","null","","","null","50","NaN","","","","","","","","","","","","","","",""
"","S2","","html-keyboard-response","339","368451","0.0-1.0-454.0","0","0","79601","","231","","","75","50","","k","2","50","training","adjacent","CB","3","2","L.jpg","R.jpg","1","0","0","",""
"","feedback","","html-keyboard-response","340","369453","0.0-1.0-456.0-0.0","0","0","79601","","null","","","null","50","","","","","","","","","","","","","","","",""
"","time_out","","html-keyboard-response","341","371457","0.0-1.0-458.0-0.0","0","0","79601","","null","","","null","50","","","","","","","","","","","","","","","",""
"","ITI","","html-keyboard-response","342","372460","0.0-1.0-459.0","0","0","79601","","null","","","null","50","","","","","","","","","","","","","","","NaN",""
"","S1","","html-keyboard-response","343","372712","0.0-1.0-461.0","0","0","79601","","null","","","null","51","","","","","","","","","","","","","","","",""
"","ISI","","html-keyboard-response","344","373713","0.0-1.0-462.0","0","0","79601","","null","","","null","51","NaN","","","","","","","","","","","","","","",""
"","S2","","html-keyboard-response","345","373966","0.0-1.0-463.0","0","0","79601","","null","","","null","51","","NaN","","","","","","","","","","","","","",""
"","response","","html-keyboard-response","346","374201","0.0-1.0-464.0-0.0","0","0","79601","","233","","","68","51","","","2","51","training","adjacent","DC","4","3","Q.jpg","L.jpg","0","0","1","",""
"","feedback","","html-keyboard-response","347","375204","0.0-1.0-465.0-0.0","0","0","79601","","null","","","null","51","","","","","","","","","","","","","","","",""
"","ITI","","html-keyboard-response","348","376207","0.0-1.0-468.0","0","0","79601","","null","","","null","51","","","","","","","","","","","","","","","NaN",""
"","S1","","html-keyboard-response","349","376459","0.0-1.0-470.0","0","0","79601","","null","","","null","52","","","","","","","","","","","","","","","",""
"","ISI","","html-keyboard-response","350","377462","0.0-1.0-471.0","0","0","79601","","null","","","null","52","NaN","","","","","","","","","","","","","","",""
"","S2","","html-keyboard-response","351","377713","0.0-1.0-472.0","0","0","79601","","null","","","null","52","","NaN","","","","","","","","","","","","","",""
"","response","","html-keyboard-response","352","377935","0.0-1.0-473.0-0.0","0","0","79601","","220","","","75","52","","","2","52","training","adjacent","CB","3","2","L.jpg","R.jpg","1","0","0","",""
"","feedback","","html-keyboard-response","353","378939","0.0-1.0-474.0-0.0","0","0","79601","","null","","","null","52","","","","","","","","","","","","","","","",""
"","time_out","","html-keyboard-response","354","380942","0.0-1.0-476.0-0.0","0","0","79601","","null","","","null","52","","","","","","","","","","","","","","","",""
"","ITI","","html-keyboard-response","355","381944","0.0-1.0-477.0","0","0","79601","","null","","","null","52","","","","","","","","","","","","","","","NaN",""
"","S1","","html-keyboard-response","356","382197","0.0-1.0-479.0","0","0","79601","","null","","","null","53","","","","","","","","","","","","","","","",""
"","ISI","","html-keyboard-response","357","383199","0.0-1.0-480.0","0","0","79601","","null","","","null","53","NaN","","","","","","","","","","","","","","",""
"","S2","","html-keyboard-response","358","383451","0.0-1.0-481.0","0","0","79601","","null","","","null","53","","NaN","","","","","","","","","","","","","",""
"","response","","html-keyboard-response","359","383723","0.0-1.0-482.0-0.0","0","0","79601","","270","","","68","53","","","2","53","training","adjacent","FE","6","5","N.jpg","O.jpg","0","0","1","",""
"","feedback","","html-keyboard-response","360","384726","0.0-1.0-483.0-0.0","0","0","79601","","null","","","null","53","","","","","","","","","","","","","","","",""
"","ITI","","html-keyboard-response","361","385728","0.0-1.0-486.0","0","0","79601","","null","","","null","53","","","","","","","","","","","","","","","NaN",""
"","S1","","html-keyboard-response","362","385981","0.0-1.0-488.0","0","0","79601","","null","","","null","54","","","","","","","","","","","","","","","",""
"","ISI","","html-keyboard-response","363","386984","0.0-1.0-489.0","0","0","79601","","null","","","null","54","NaN","","","","","","","","","","","","","","",""
"","S2","","html-keyboard-response","364","387237","0.0-1.0-490.0","0","0","79601","","null","","","null","54","","NaN","","","","","","","","","","","","","",""
"","response","","html-keyboard-response","365","387570","0.0-1.0-491.0-0.0","0","0","79601","","331","","","68","54","","","2","54","training","adjacent","AB","1","2","M.jpg","R.jpg","0","1","0","",""
"","feedback","","html-keyboard-response","366","388573","0.0-1.0-492.0-0.0","0","0","79601","","null","","","null","54","","","","","","","","","","","","","","","",""
"","time_out","","html-keyboard-response","367","390575","0.0-1.0-494.0-0.0","0","0","79601","","null","","","null","54","","","","","","","","","","","","","","","",""
"","ITI","","html-keyboard-response","368","391578","0.0-1.0-495.0","0","0","79601","","538","","","68","54","","","","","","","","","","","","","","","d",""
"","S1","","html-keyboard-response","369","391830","0.0-1.0-497.0","0","0","79601","","null","","","null","55","","","","","","","","","","","","","","","",""
"","ISI","","html-keyboard-response","370","392833","0.0-1.0-498.0","0","0","79601","","null","","","null","55","NaN","","","","","","","","","","","","","","",""
"","S2","","html-keyboard-response","371","393086","0.0-1.0-499.0","0","0","79601","","null","","","null","55","","NaN","","","","","","","","","","","","","",""
"","response","","html-keyboard-response","372","393526","0.0-1.0-500.0-0.0","0","0","79601","","438","","","75","55","","","2","55","training","adjacent","CD","3","4","L.jpg","Q.jpg","1","1","1","",""
"","feedback","","html-keyboard-response","373","394529","0.0-1.0-501.0-0.0","0","0","79601","","null","","","null","55","","","","","","","","","","","","","","","",""
"","ITI","","html-keyboard-response","374","395531","0.0-1.0-504.0","0","0","79601","","null","","","null","55","","","","","","","","","","","","","","","NaN",""
"","S1","","html-keyboard-response","375","395783","0.0-1.0-506.0","0","0","79601","","null","","","null","56","","","","","","","","","","","","","","","",""
"","ISI","","html-keyboard-response","376","396790","0.0-1.0-507.0","0","0","79601","","null","","","null","56","NaN","","","","","","","","","","","","","","",""
"","S2","","html-keyboard-response","377","397042","0.0-1.0-508.0","0","0","79601","","null","","","null","56","","NaN","","","","","","","","","","","","","",""
"","response","","html-keyboard-response","378","397361","0.0-1.0-509.0-0.0","0","0","79601","","317","","","75","56","","","2","56","training","adjacent","DE","4","5","Q.jpg","O.jpg","1","1","1","",""
"","feedback","","html-keyboard-response","379","398365","0.0-1.0-510.0-0.0","0","0","79601","","null","","","null","56","","","","","","","","","","","","","","","",""
"","ITI","","html-keyboard-response","380","399368","0.0-1.0-513.0","0","0","79601","","null","","","null","56","","","","","","","","","","","","","","","NaN",""
"","S1","","html-keyboard-response","381","399620","0.0-1.0-515.0","0","0","79601","","null","","","null","57","","","","","","","","","","","","","","","",""
"","ISI","","html-keyboard-response","382","400623","0.0-1.0-516.0","0","0","79601","","null","","","null","57","NaN","","","","","","","","","","","","","","",""
"","S2","","html-keyboard-response","383","400875","0.0-1.0-517.0","0","0","79601","","null","","","null","57","","NaN","","","","","","","","","","","","","",""
"","response","","html-keyboard-response","384","401305","0.0-1.0-518.0-0.0","0","0","79601","","428","","","68","57","","","2","57","training","adjacent","ED","5","4","O.jpg","Q.jpg","0","0","1","",""
"","feedback","","html-keyboard-response","385","402308","0.0-1.0-519.0-0.0","0","0","79601","","null","","","null","57","","","","","","","","","","","","","","","",""
"","ITI","","html-keyboard-response","386","403312","0.0-1.0-522.0","0","0","79601","","null","","","null","57","","","","","","","","","","","","","","","NaN",""
"","S1","","html-keyboard-response","387","403564","0.0-1.0-524.0","0","0","79601","","null","","","null","58","","","","","","","","","","","","","","","",""
"","ISI","","html-keyboard-response","388","404567","0.0-1.0-525.0","0","0","79601","","null","","","null","58","NaN","","","","","","","","","","","","","","",""
"","S2","","html-keyboard-response","389","404819","0.0-1.0-526.0","0","0","79601","","null","","","null","58","","NaN","","","","","","","","","","","","","",""
"","response","","html-keyboard-response","390","405300","0.0-1.0-527.0-0.0","0","0","79601","","479","","","68","58","","","2","58","training","adjacent","GF","7","6","P.jpg","N.jpg","0","0","1","",""
"","feedback","","html-keyboard-response","391","406302","0.0-1.0-528.0-0.0","0","0","79601","","null","","","null","58","","","","","","","","","","","","","","","",""
"","ITI","","html-keyboard-response","392","407304","0.0-1.0-531.0","0","0","79601","","null","","","null","58","","","","","","","","","","","","","","","NaN",""
"","S1","","html-keyboard-response","393","407557","0.0-1.0-533.0","0","0","79601","","null","","","null","59","","","","","","","","","","","","","","","",""
"","ISI","","html-keyboard-response","394","408558","0.0-1.0-534.0","0","0","79601","","null","","","null","59","NaN","","","","","","","","","","","","","","",""
"","S2","","html-keyboard-response","395","408811","0.0-1.0-535.0","0","0","79601","","null","","","null","59","","NaN","","","","","","","","","","","","","",""
"","response","","html-keyboard-response","396","409647","0.0-1.0-536.0-0.0","0","0","79601","","834","","","68","59","","","2","59","training","adjacent","ED","5","4","O.jpg","Q.jpg","0","0","1","",""
"","feedback","","html-keyboard-response","397","410650","0.0-1.0-537.0-0.0","0","0","79601","","null","","","null","59","","","","","","","","","","","","","","","",""
"","ITI","","html-keyboard-response","398","411652","0.0-1.0-540.0","0","0","79601","","null","","","null","59","","","","","","","","","","","","","","","NaN",""
"","S1","","html-keyboard-response","399","411904","0.0-1.0-542.0","0","0","79601","","null","","","null","60","","","","","","","","","","","","","","","",""
"","ISI","","html-keyboard-response","400","412907","0.0-1.0-543.0","0","0","79601","","null","","","null","60","NaN","","","","","","","","","","","","","","",""
"","S2","","html-keyboard-response","401","413159","0.0-1.0-544.0","0","0","79601","","null","","","null","60","","NaN","","","","","","","","","","","","","",""
"","response","","html-keyboard-response","402","413596","0.0-1.0-545.0-0.0","0","0","79601","","436","","","75","60","","","2","60","training","adjacent","BC","2","3","R.jpg","L.jpg","1","1","1","",""
"","feedback","","html-keyboard-response","403","414598","0.0-1.0-546.0-0.0","0","0","79601","","null","","","null","60","","","","","","","","","","","","","","","",""
"","ITI","","html-keyboard-response","404","415601","0.0-1.0-549.0","0","0","79601","","null","","","null","60","","","","","","","","","","","","","","","NaN",""
"","S1","","html-keyboard-response","405","415853","0.0-1.0-551.0","0","0","79601","","null","","","null","61","","","","","","","","","","","","","","","",""
"","ISI","","html-keyboard-response","406","416857","0.0-1.0-552.0","0","0","79601","","null","","","null","61","NaN","","","","","","","","","","","","","","",""
"","S2","","html-keyboard-response","407","417109","0.0-1.0-553.0","0","0","79601","","null","","","null","61","","NaN","","","","","","","","","","","","","",""
"","response","","html-keyboard-response","408","417405","0.0-1.0-554.0-0.0","0","0","79601","","295","","","75","61","","","2","61","training","adjacent","DE","4","5","Q.jpg","O.jpg","1","1","1","",""
"","feedback","","html-keyboard-response","409","418407","0.0-1.0-555.0-0.0","0","0","79601","","null","","","null","61","","","","","","","","","","","","","","","",""
"","ITI","","html-keyboard-response","410","419410","0.0-1.0-558.0","0","0","79601","","null","","","null","61","","","","","","","","","","","","","","","NaN",""
"","S1","","html-keyboard-response","411","419662","0.0-1.0-560.0","0","0","79601","","null","","","null","62","","","","","","","","","","","","","","","",""
"","ISI","","html-keyboard-response","412","420664","0.0-1.0-561.0","0","0","79601","","null","","","null","62","NaN","","","","","","","","","","","","","","",""
"","S2","","html-keyboard-response","413","420916","0.0-1.0-562.0","0","0","79601","","null","","","null","62","","NaN","","","","","","","","","","","","","",""
"","response","","html-keyboard-response","414","421364","0.0-1.0-563.0-0.0","0","0","79601","","446","","","68","62","","","2","62","training","adjacent","EF","5","6","O.jpg","N.jpg","0","1","0","",""
"","feedback","","html-keyboard-response","415","422367","0.0-1.0-564.0-0.0","0","0","79601","","null","","","null","62","","","","","","","","","","","","","","","",""
"","time_out","","html-keyboard-response","416","424370","0.0-1.0-566.0-0.0","0","0","79601","","null","","","null","62","","","","","","","","","","","","","","","",""
"","ITI","","html-keyboard-response","417","425372","0.0-1.0-567.0","0","0","79601","","null","","","null","62","","","","","","","","","","","","","","","NaN",""
"","S1","","html-keyboard-response","418","425624","0.0-1.0-569.0","0","0","79601","","null","","","null","63","","","","","","","","","","","","","","","",""
"","ISI","","html-keyboard-response","419","426633","0.0-1.0-570.0","0","0","79601","","null","","","null","63","NaN","","","","","","","","","","","","","","",""
"","S2","","html-keyboard-response","420","426885","0.0-1.0-571.0","0","0","79601","","null","","","null","63","","NaN","","","","","","","","","","","","","",""
"","response","","html-keyboard-response","421","427391","0.0-1.0-572.0-0.0","0","0","79601","","504","","","75","63","","","2","63","training","adjacent","ED","5","4","O.jpg","Q.jpg","1","0","0","",""
"","feedback","","html-keyboard-response","422","428393","0.0-1.0-573.0-0.0","0","0","79601","","null","","","null","63","","","","","","","","","","","","","","","",""
"","time_out","","html-keyboard-response","423","430395","0.0-1.0-575.0-0.0","0","0","79601","","null","","","null","63","","","","","","","","","","","","","","","",""
"","ITI","","html-keyboard-response","424","431398","0.0-1.0-576.0","0","0","79601","","null","","","null","63","","","","","","","","","","","","","","","NaN",""
"","S1","","html-keyboard-response","425","431651","0.0-1.0-578.0","0","0","79601","","null","","","null","64","","","","","","","","","","","","","","","",""
"","ISI","","html-keyboard-response","426","432659","0.0-1.0-579.0","0","0","79601","","null","","","null","64","NaN","","","","","","","","","","","","","","",""
"","S2","","html-keyboard-response","427","432911","0.0-1.0-580.0","0","0","79601","","null","","","null","64","","NaN","","","","","","","","","","","","","",""
"","response","","html-keyboard-response","428","433132","0.0-1.0-581.0-0.0","0","0","79601","","218","","","68","64","","","2","64","training","adjacent","DC","4","3","Q.jpg","L.jpg","0","0","1","",""
"","feedback","","html-keyboard-response","429","434134","0.0-1.0-582.0-0.0","0","0","79601","","null","","","null","64","","","","","","","","","","","","","","","",""
"","ITI","","html-keyboard-response","430","435136","0.0-1.0-585.0","0","0","79601","","null","","","null","64","","","","","","","","","","","","","","","NaN",""
"","S1","","html-keyboard-response","431","435389","0.0-1.0-587.0","0","0","79601","","null","","","null","65","","","","","","","","","","","","","","","",""
"","ISI","","html-keyboard-response","432","436391","0.0-1.0-588.0","0","0","79601","","null","","","null","65","NaN","","","","","","","","","","","","","","",""
"","S2","","html-keyboard-response","433","436644","0.0-1.0-589.0","0","0","79601","","null","","","null","65","","NaN","","","","","","","","","","","","","",""
"","response","","html-keyboard-response","434","437187","0.0-1.0-590.0-0.0","0","0","79601","","541","","","68","65","","","2","65","training","adjacent","DC","4","3","Q.jpg","L.jpg","0","0","1","",""
"","feedback","","html-keyboard-response","435","438189","0.0-1.0-591.0-0.0","0","0","79601","","null","","","null","65","","","","","","","","","","","","","","","",""
"","ITI","","html-keyboard-response","436","439192","0.0-1.0-594.0","0","0","79601","","null","","","null","65","","","","","","","","","","","","","","","NaN",""
"","S1","","html-keyboard-response","437","439444","0.0-1.0-596.0","0","0","79601","","null","","","null","66","","","","","","","","","","","","","","","",""
"","ISI","","html-keyboard-response","438","440446","0.0-1.0-597.0","0","0","79601","","null","","","null","66","NaN","","","","","","","","","","","","","","",""
"","S2","","html-keyboard-response","439","440698","0.0-1.0-598.0","0","0","79601","","null","","","null","66","","NaN","","","","","","","","","","","","","",""
"","response","","html-keyboard-response","440","440967","0.0-1.0-599.0-0.0","0","0","79601","","267","","","68","66","","","2","66","training","adjacent","ED","5","4","O.jpg","Q.jpg","0","0","1","",""
"","feedback","","html-keyboard-response","441","441971","0.0-1.0-600.0-0.0","0","0","79601","","null","","","null","66","","","","","","","","","","","","","","","",""
"","ITI","","html-keyboard-response","442","442973","0.0-1.0-603.0","0","0","79601","","null","","","null","66","","","","","","","","","","","","","","","NaN",""
"","S1","","html-keyboard-response","443","443225","0.0-1.0-605.0","0","0","79601","","null","","","null","67","","","","","","","","","","","","","","","",""
"","ISI","","html-keyboard-response","444","444228","0.0-1.0-606.0","0","0","79601","","null","","","null","67","NaN","","","","","","","","","","","","","","",""
"","S2","","html-keyboard-response","445","444481","0.0-1.0-607.0","0","0","79601","","null","","","null","67","","NaN","","","","","","","","","","","","","",""
"","response","","html-keyboard-response","446","444899","0.0-1.0-608.0-0.0","0","0","79601","","417","","","75","67","","","2","67","training","adjacent","FG","6","7","N.jpg","P.jpg","1","1","1","",""
"","feedback","","html-keyboard-response","447","445903","0.0-1.0-609.0-0.0","0","0","79601","","null","","","null","67","","","","","","","","","","","","","","","",""
"","ITI","","html-keyboard-response","448","446906","0.0-1.0-612.0","0","0","79601","","null","","","null","67","","","","","","","","","","","","","","","NaN",""
"","S1","","html-keyboard-response","449","447158","0.0-1.0-614.0","0","0","79601","","null","","","null","68","","","","","","","","","","","","","","","",""
"","ISI","","html-keyboard-response","450","448161","0.0-1.0-615.0","0","0","79601","","null","","","null","68","NaN","","","","","","","","","","","","","","",""
"","S2","","html-keyboard-response","451","448414","0.0-1.0-616.0","0","0","79601","","null","","","null","68","","NaN","","","","","","","","","","","","","",""
"","response","","html-keyboard-response","452","448881","0.0-1.0-617.0-0.0","0","0","79601","","465","","","75","68","","","2","68","training","adjacent","FE","6","5","N.jpg","O.jpg","1","0","0","",""
"","feedback","","html-keyboard-response","453","449884","0.0-1.0-618.0-0.0","0","0","79601","","null","","","null","68","","","","","","","","","","","","","","","",""
"","time_out","","html-keyboard-response","454","451886","0.0-1.0-620.0-0.0","0","0","79601","","null","","","null","68","","","","","","","","","","","","","","","",""
"","ITI","","html-keyboard-response","455","452889","0.0-1.0-621.0","0","0","79601","","null","","","null","68","","","","","","","","","","","","","","","NaN",""
"","S1","","html-keyboard-response","456","453142","0.0-1.0-623.0","0","0","79601","","null","","","null","69","","","","","","","","","","","","","","","",""
"","ISI","","html-keyboard-response","457","454143","0.0-1.0-624.0","0","0","79601","","null","","","null","69","NaN","","","","","","","","","","","","","","",""
"","S2","","html-keyboard-response","458","454399","0.0-1.0-625.0","0","0","79601","","null","","","null","69","","NaN","","","","","","","","","","","","","",""
"","response","","html-keyboard-response","459","454697","0.0-1.0-626.0-0.0","0","0","79601","","295","","","68","69","","","2","69","training","adjacent","AB","1","2","M.jpg","R.jpg","0","1","0","",""
"","feedback","","html-keyboard-response","460","455699","0.0-1.0-627.0-0.0","0","0","79601","","null","","","null","69","","","","","","","","","","","","","","","",""
"","time_out","","html-keyboard-response","461","457701","0.0-1.0-629.0-0.0","0","0","79601","","null","","","null","69","","","","","","","","","","","","","","","",""
"","ITI","","html-keyboard-response","462","458703","0.0-1.0-630.0","0","0","79601","","null","","","null","69","","","","","","","","","","","","","","","NaN",""
"","S1","","html-keyboard-response","463","458955","0.0-1.0-632.0","0","0","79601","","null","","","null","70","","","","","","","","","","","","","","","",""
"","ISI","","html-keyboard-response","464","459958","0.0-1.0-633.0","0","0","79601","","null","","","null","70","NaN","","","","","","","","","","","","","","",""
"","S2","","html-keyboard-response","465","460210","0.0-1.0-634.0","0","0","79601","","null","","","null","70","","NaN","","","","","","","","","","","","","",""
"","response","","html-keyboard-response","466","460471","0.0-1.0-635.0-0.0","0","0","79601","","259","","","68","70","","","2","70","training","adjacent","BA","2","1","R.jpg","M.jpg","0","0","1","",""
"","feedback","","html-keyboard-response","467","461474","0.0-1.0-636.0-0.0","0","0","79601","","null","","","null","70","","","","","","","","","","","","","","","",""
"","ITI","","html-keyboard-response","468","462477","0.0-1.0-639.0","0","0","79601","","null","","","null","70","","","","","","","","","","","","","","","NaN",""
"","S1","","html-keyboard-response","469","462730","0.0-1.0-641.0","0","0","79601","","null","","","null","71","","","","","","","","","","","","","","","",""
"","ISI","","html-keyboard-response","470","463732","0.0-1.0-642.0","0","0","79601","","null","","","null","71","NaN","","","","","","","","","","","","","","",""
"","S2","","html-keyboard-response","471","463985","0.0-1.0-643.0","0","0","79601","","null","","","null","71","","NaN","","","","","","","","","","","","","",""
"","response","","html-keyboard-response","472","464432","0.0-1.0-644.0-0.0","0","0","79601","","445","","","75","71","","","2","71","training","adjacent","FG","6","7","N.jpg","P.jpg","1","1","1","",""
"","feedback","","html-keyboard-response","473","465435","0.0-1.0-645.0-0.0","0","0","79601","","null","","","null","71","","","","","","","","","","","","","","","",""
"","ITI","","html-keyboard-response","474","466447","0.0-1.0-648.0","0","0","79601","","null","","","null","71","","","","","","","","","","","","","","","NaN",""
"","S1","","html-keyboard-response","475","466699","0.0-1.0-650.0","0","0","79601","","null","","","null","72","","","","","","","","","","","","","","","",""
"","ISI","","html-keyboard-response","476","467701","0.0-1.0-651.0","0","0","79601","","null","","","null","72","NaN","","","","","","","","","","","","","","",""
"","S2","","html-keyboard-response","477","467953","0.0-1.0-652.0","0","0","79601","","null","","","null","72","","NaN","","","","","","","","","","","","","",""
"","response","","html-keyboard-response","478","468442","0.0-1.0-653.0-0.0","0","0","79601","","488","","","68","72","","","2","72","training","adjacent","CD","3","4","L.jpg","Q.jpg","0","1","0","",""
"","feedback","","html-keyboard-response","479","469444","0.0-1.0-654.0-0.0","0","0","79601","","null","","","null","72","","","","","","","","","","","","","","","",""
"","time_out","","html-keyboard-response","480","471447","0.0-1.0-656.0-0.0","0","0","79601","","null","","","null","72","","","","","","","","","","","","","","","",""
"","ITI","","html-keyboard-response","481","472450","0.0-1.0-657.0","0","0","79601","","null","","","null","72","","","","","","","","","","","","","","","NaN",""
"","S1","","html-keyboard-response","482","472702","0.0-1.0-659.0","0","0","79601","","null","","","null","73","","","","","","","","","","","","","","","",""
"","ISI","","html-keyboard-response","483","473703","0.0-1.0-660.0","0","0","79601","","null","","","null","73","NaN","","","","","","","","","","","","","","",""
"","S2","","html-keyboard-response","484","473957","0.0-1.0-661.0","0","0","79601","","null","","","null","73","","NaN","","","","","","","","","","","","","",""
"","response","","html-keyboard-response","485","474024","0.0-1.0-662.0-0.0","0","0","79601","","66","","","75","73","","","2","73","training","adjacent","DE","4","5","Q.jpg","O.jpg","1","1","1","",""
"","feedback","","html-keyboard-response","486","475032","0.0-1.0-663.0-0.0","0","0","79601","","null","","","null","73","","","","","","","","","","","","","","","",""
"","ITI","","html-keyboard-response","487","476035","0.0-1.0-666.0","0","0","79601","","null","","","null","73","","","","","","","","","","","","","","","NaN",""
"","S1","","html-keyboard-response","488","476288","0.0-1.0-668.0","0","0","79601","","null","","","null","74","","","","","","","","","","","","","","","",""
"","ISI","","html-keyboard-response","489","477291","0.0-1.0-669.0","0","0","79601","","null","","","null","74","NaN","","","","","","","","","","","","","","",""
"","S2","","html-keyboard-response","490","477543","0.0-1.0-670.0","0","0","79601","","null","","","null","74","","NaN","","","","","","","","","","","","","",""
"","response","","html-keyboard-response","491","477624","0.0-1.0-671.0-0.0","0","0","79601","","80","","","75","74","","","2","74","training","adjacent","DE","4","5","Q.jpg","O.jpg","1","1","1","",""
"","feedback","","html-keyboard-response","492","478636","0.0-1.0-672.0-0.0","0","0","79601","","null","","","null","74","","","","","","","","","","","","","","","",""
"","ITI","","html-keyboard-response","493","479638","0.0-1.0-675.0","0","0","79601","","null","","","null","74","","","","","","","","","","","","","","","NaN",""
"","S1","","html-keyboard-response","494","479891","0.0-1.0-677.0","0","0","79601","","null","","","null","75","","","","","","","","","","","","","","","",""
"","ISI","","html-keyboard-response","495","480893","0.0-1.0-678.0","0","0","79601","","null","","","null","75","NaN","","","","","","","","","","","","","","",""
"","S2","","html-keyboard-response","496","481146","0.0-1.0-679.0","0","0","79601","","null","","","null","75","","NaN","","","","","","","","","","","","","",""
"","response","","html-keyboard-response","497","481509","0.0-1.0-680.0-0.0","0","0","79601","","362","","","75","75","","","2","75","training","adjacent","AB","1","2","M.jpg","R.jpg","1","1","1","",""
"","feedback","","html-keyboard-response","498","482513","0.0-1.0-681.0-0.0","0","0","79601","","null","","","null","75","","","","","","","","","","","","","","","",""
"","ITI","","html-keyboard-response","499","483515","0.0-1.0-684.0","0","0","79601","","null","","","null","75","","","","","","","","","","","","","","","NaN",""
"","S1","","html-keyboard-response","500","483767","0.0-1.0-686.0","0","0","79601","","null","","","null","76","","","","","","","","","","","","","","","",""
"","ISI","","html-keyboard-response","501","484770","0.0-1.0-687.0","0","0","79601","","null","","","null","76","NaN","","","","","","","","","","","","","","",""
"","S2","","html-keyboard-response","502","485023","0.0-1.0-688.0","0","0","79601","","null","","","null","76","","NaN","","","","","","","","","","","","","",""
"","response","","html-keyboard-response","503","485324","0.0-1.0-689.0-0.0","0","0","79601","","298","","","75","76","","","2","76","training","adjacent","AB","1","2","M.jpg","R.jpg","1","1","1","",""
"","feedback","","html-keyboard-response","504","486326","0.0-1.0-690.0-0.0","0","0","79601","","null","","","null","76","","","","","","","","","","","","","","","",""
"","ITI","","html-keyboard-response","505","487329","0.0-1.0-693.0","0","0","79601","","null","","","null","76","","","","","","","","","","","","","","","NaN",""
"","S1","","html-keyboard-response","506","487581","0.0-1.0-695.0","0","0","79601","","null","","","null","77","","","","","","","","","","","","","","","",""
"","ISI","","html-keyboard-response","507","488584","0.0-1.0-696.0","0","0","79601","","null","","","null","77","NaN","","","","","","","","","","","","","","",""
"","S2","","html-keyboard-response","508","488837","0.0-1.0-697.0","0","0","79601","","null","","","null","77","","NaN","","","","","","","","","","","","","",""
"","response","","html-keyboard-response","509","489339","0.0-1.0-698.0-0.0","0","0","79601","","500","","","75","77","","","2","77","training","adjacent","BC","2","3","R.jpg","L.jpg","1","1","1","",""
"","feedback","","html-keyboard-response","510","490342","0.0-1.0-699.0-0.0","0","0","79601","","null","","","null","77","","","","","","","","","","","","","","","",""
"","ITI","","html-keyboard-response","511","491344","0.0-1.0-702.0","0","0","79601","","null","","","null","77","","","","","","","","","","","","","","","NaN",""
"","S1","","html-keyboard-response","512","491596","0.0-1.0-704.0","0","0","79601","","null","","","null","78","","","","","","","","","","","","","","","",""
"","ISI","","html-keyboard-response","513","492599","0.0-1.0-705.0","0","0","79601","","null","","","null","78","NaN","","","","","","","","","","","","","","",""
"","S2","","html-keyboard-response","514","492852","0.0-1.0-706.0","0","0","79601","","null","","","null","78","","NaN","","","","","","","","","","","","","",""
"","response","","html-keyboard-response","515","493302","0.0-1.0-707.0-0.0","0","0","79601","","449","","","75","78","","","2","78","training","adjacent","FE","6","5","N.jpg","O.jpg","1","0","0","",""
"","feedback","","html-keyboard-response","516","494306","0.0-1.0-708.0-0.0","0","0","79601","","null","","","null","78","","","","","","","","","","","","","","","",""
"","time_out","","html-keyboard-response","517","496311","0.0-1.0-710.0-0.0","0","0","79601","","null","","","null","78","","","","","","","","","","","","","","","",""
"","ITI","","html-keyboard-response","518","497313","0.0-1.0-711.0","0","0","79601","","null","","","null","78","","","","","","","","","","","","","","","NaN",""
"","S1","","html-keyboard-response","519","497565","0.0-1.0-713.0","0","0","79601","","null","","","null","79","","","","","","","","","","","","","","","",""
"","ISI","","html-keyboard-response","520","498568","0.0-1.0-714.0","0","0","79601","","null","","","null","79","NaN","","","","","","","","","","","","","","",""
"","S2","","html-keyboard-response","521","498820","0.0-1.0-715.0","0","0","79601","","null","","","null","79","","NaN","","","","","","","","","","","","","",""
"","response","","html-keyboard-response","522","499226","0.0-1.0-716.0-0.0","0","0","79601","","404","","","75","79","","","2","79","training","adjacent","BC","2","3","R.jpg","L.jpg","1","1","1","",""
"","feedback","","html-keyboard-response","523","500229","0.0-1.0-717.0-0.0","0","0","79601","","null","","","null","79","","","","","","","","","","","","","","","",""
"","ITI","","html-keyboard-response","524","501231","0.0-1.0-720.0","0","0","79601","","null","","","null","79","","","","","","","","","","","","","","","NaN",""
"","S1","","html-keyboard-response","525","501482","0.0-1.0-722.0","0","0","79601","","null","","","null","80","","","","","","","","","","","","","","","",""
"","ISI","","html-keyboard-response","526","502485","0.0-1.0-723.0","0","0","79601","","null","","","null","80","NaN","","","","","","","","","","","","","","",""
"","S2","","html-keyboard-response","527","502737","0.0-1.0-724.0","0","0","79601","","null","","","null","80","","NaN","","","","","","","","","","","","","",""
"","response","","html-keyboard-response","528","503049","0.0-1.0-725.0-0.0","0","0","79601","","310","","","68","80","","","2","80","training","adjacent","EF","5","6","O.jpg","N.jpg","0","1","0","",""
"","feedback","","html-keyboard-response","529","504053","0.0-1.0-726.0-0.0","0","0","79601","","null","","","null","80","","","","","","","","","","","","","","","",""
"","time_out","","html-keyboard-response","530","506056","0.0-1.0-728.0-0.0","0","0","79601","","null","","","null","80","","","","","","","","","","","","","","","",""
"","ITI","","html-keyboard-response","531","507059","0.0-1.0-729.0","0","0","79601","","null","","","null","80","","","","","","","","","","","","","","","NaN",""
"","S1","","html-keyboard-response","532","507311","0.0-1.0-731.0","0","0","79601","","null","","","null","81","","","","","","","","","","","","","","","",""
"","ISI","","html-keyboard-response","533","508327","0.0-1.0-732.0","0","0","79601","","354","","","75","81","k","","","","","","","","","","","","","","",""
"","S2","","html-keyboard-response","534","508580","0.0-1.0-733.0","0","0","79601","","null","","","null","81","","NaN","","","","","","","","","","","","","",""
"","response","","html-keyboard-response","535","508813","0.0-1.0-734.0-0.0","0","0","79601","","231","","","75","81","","","2","81","training","adjacent","EF","5","6","O.jpg","N.jpg","1","1","1","",""
"","feedback","","html-keyboard-response","536","509815","0.0-1.0-735.0-0.0","0","0","79601","","null","","","null","81","","","","","","","","","","","","","","","",""
"","ITI","","html-keyboard-response","537","510819","0.0-1.0-738.0","0","0","79601","","null","","","null","81","","","","","","","","","","","","","","","NaN",""
"","S1","","html-keyboard-response","538","511071","0.0-1.0-740.0","0","0","79601","","null","","","null","82","","","","","","","","","","","","","","","",""
"","ISI","","html-keyboard-response","539","512074","0.0-1.0-741.0","0","0","79601","","null","","","null","82","NaN","","","","","","","","","","","","","","",""
"","S2","","html-keyboard-response","540","512327","0.0-1.0-742.0","0","0","79601","","null","","","null","82","","NaN","","","","","","","","","","","","","",""
"","response","","html-keyboard-response","541","512735","0.0-1.0-743.0-0.0","0","0","79601","","407","","","75","82","","","2","82","training","adjacent","CB","3","2","L.jpg","R.jpg","1","0","0","",""
"","feedback","","html-keyboard-response","542","513753","0.0-1.0-744.0-0.0","0","0","79601","","null","","","null","82","","","","","","","","","","","","","","","",""
"","time_out","","html-keyboard-response","543","515755","0.0-1.0-746.0-0.0","0","0","79601","","null","","","null","82","","","","","","","","","","","","","","","",""
"","ITI","","html-keyboard-response","544","516758","0.0-1.0-747.0","0","0","79601","","null","","","null","82","","","","","","","","","","","","","","","NaN",""
"","S1","","html-keyboard-response","545","517011","0.0-1.0-749.0","0","0","79601","","null","","","null","83","","","","","","","","","","","","","","","",""
"","ISI","","html-keyboard-response","546","518013","0.0-1.0-750.0","0","0","79601","","null","","","null","83","NaN","","","","","","","","","","","","","","",""
"","S2","","html-keyboard-response","547","518273","0.0-1.0-751.0","0","0","79601","","null","","","null","83","","NaN","","","","","","","","","","","","","",""
"","response","","html-keyboard-response","548","518845","0.0-1.0-752.0-0.0","0","0","79601","","571","","","68","83","","","2","83","training","adjacent","BA","2","1","R.jpg","M.jpg","0","0","1","",""
"","feedback","","html-keyboard-response","549","519847","0.0-1.0-753.0-0.0","0","0","79601","","null","","","null","83","","","","","","","","","","","","","","","",""
"","ITI","","html-keyboard-response","550","520849","0.0-1.0-756.0","0","0","79601","","null","","","null","83","","","","","","","","","","","","","","","NaN",""
"","S1","","html-keyboard-response","551","521101","0.0-1.0-758.0","0","0","79601","","null","","","null","84","","","","","","","","","","","","","","","",""
"","ISI","","html-keyboard-response","552","522103","0.0-1.0-759.0","0","0","79601","","null","","","null","84","NaN","","","","","","","","","","","","","","",""
"","S2","","html-keyboard-response","553","522356","0.0-1.0-760.0","0","0","79601","","null","","","null","84","","NaN","","","","","","","","","","","","","",""
"","response","","html-keyboard-response","554","522784","0.0-1.0-761.0-0.0","0","0","79601","","427","","","68","84","","","2","84","training","adjacent","BA","2","1","R.jpg","M.jpg","0","0","1","",""
"","feedback","","html-keyboard-response","555","523787","0.0-1.0-762.0-0.0","0","0","79601","","null","","","null","84","","","","","","","","","","","","","","","",""
"","ITI","","html-keyboard-response","556","524789","0.0-1.0-765.0","0","0","79601","","null","","","null","84","","","","","","","","","","","","","","","NaN",""
"","S1","","html-keyboard-response","557","525042","0.0-1.0-767.0","0","0","79601","","null","","","null","85","","","","","","","","","","","","","","","",""
"","ISI","","html-keyboard-response","558","526044","0.0-1.0-768.0","0","0","79601","","null","","","null","85","NaN","","","","","","","","","","","","","","",""
"","S2","","html-keyboard-response","559","526297","0.0-1.0-769.0","0","0","79601","","null","","","null","85","","NaN","","","","","","","","","","","","","",""
"","response","","html-keyboard-response","560","526616","0.0-1.0-770.0-0.0","0","0","79601","","317","","","68","85","","","2","85","training","adjacent","FG","6","7","N.jpg","P.jpg","0","1","0","",""
"","feedback","","html-keyboard-response","561","527619","0.0-1.0-771.0-0.0","0","0","79601","","null","","","null","85","","","","","","","","","","","","","","","",""
"","time_out","","html-keyboard-response","562","529621","0.0-1.0-773.0-0.0","0","0","79601","","null","","","null","85","","","","","","","","","","","","","","","",""
"","ITI","","html-keyboard-response","563","530623","0.0-1.0-774.0","0","0","79601","","null","","","null","85","","","","","","","","","","","","","","","NaN",""
"","S1","","html-keyboard-response","564","530877","0.0-1.0-776.0","0","0","79601","","null","","","null","86","","","","","","","","","","","","","","","",""
"","ISI","","html-keyboard-response","565","531880","0.0-1.0-777.0","0","0","79601","","null","","","null","86","NaN","","","","","","","","","","","","","","",""
"","S2","","html-keyboard-response","566","532134","0.0-1.0-778.0","0","0","79601","","null","","","null","86","","NaN","","","","","","","","","","","","","",""
"","response","","html-keyboard-response","567","532668","0.0-1.0-779.0-0.0","0","0","79601","","533","","","75","86","","","2","86","training","adjacent","GF","7","6","P.jpg","N.jpg","1","0","0","",""
"","feedback","","html-keyboard-response","568","533670","0.0-1.0-780.0-0.0","0","0","79601","","null","","","null","86","","","","","","","","","","","","","","","",""
"","time_out","","html-keyboard-response","569","535672","0.0-1.0-782.0-0.0","0","0","79601","","null","","","null","86","","","","","","","","","","","","","","","",""
"","ITI","","html-keyboard-response","570","536675","0.0-1.0-783.0","0","0","79601","","null","","","null","86","","","","","","","","","","","","","","","NaN",""
"","S1","","html-keyboard-response","571","536928","0.0-1.0-785.0","0","0","79601","","null","","","null","87","","","","","","","","","","","","","","","",""
"","ISI","","html-keyboard-response","572","537930","0.0-1.0-786.0","0","0","79601","","null","","","null","87","NaN","","","","","","","","","","","","","","",""
"","S2","","html-keyboard-response","573","538182","0.0-1.0-787.0","0","0","79601","","null","","","null","87","","NaN","","","","","","","","","","","","","",""
"","response","","html-keyboard-response","574","538769","0.0-1.0-788.0-0.0","0","0","79601","","585","","","68","87","","","2","87","training","adjacent","EF","5","6","O.jpg","N.jpg","0","1","0","",""
"","feedback","","html-keyboard-response","575","539772","0.0-1.0-789.0-0.0","0","0","79601","","null","","","null","87","","","","","","","","","","","","","","","",""
"","time_out","","html-keyboard-response","576","541775","0.0-1.0-791.0-0.0","0","0","79601","","null","","","null","87","","","","","","","","","","","","","","","",""
"","ITI","","html-keyboard-response","577","542778","0.0-1.0-792.0","0","0","79601","","null","","","null","87","","","","","","","","","","","","","","","NaN",""
"","S1","","html-keyboard-response","578","543031","0.0-1.0-794.0","0","0","79601","","null","","","null","88","","","","","","","","","","","","","","","",""
"","ISI","","html-keyboard-response","579","544034","0.0-1.0-795.0","0","0","79601","","null","","","null","88","NaN","","","","","","","","","","","","","","",""
"","S2","","html-keyboard-response","580","544286","0.0-1.0-796.0","0","0","79601","","null","","","null","88","","NaN","","","","","","","","","","","","","",""
