"success","ttype","start_time","trial_type","trial_index","time_elapsed","internal_node_id","warning","missed_checkup","PID","view_history","rt","responses","repeat_instructions","key_press","index","keypress_isi","keypress_S2","block","trial_num","phase","group_type","pair_type","S1_stim","S2_stim","S1_img","S2_img","S1_chosen","S1_higher","accuracy","keypress_iti","total_bonus_tally"
"true","full_screen","d04142023hr2324","fullscreen","0","41992","0.0-0.0","0","0","30014","","","","","","","","","","","","","","","","","","","","","",""
"","instructions","","instructions","1","147181","0.0-1.0-0.0-0.0","0","0","30014","[{""page_index"":0,""viewing_time"":59888},{""page_index"":1,""viewing_time"":20144},{""page_index"":2,""viewing_time"":11684},{""page_index"":1,""viewing_time"":8687},{""page_index"":2,""viewing_time"":1889},{""page_index"":3,""viewing_time"":2890}]","105183","","","","","","","","","","","","","","","","","","","",""
"","comprehension_check","","survey-multi-choice","2","176917","0.0-1.0-0.0-1.0","0","0","30014","","29723","{""Q0"":""True"",""Q1"":""D"",""Q2"":""Once the second image appears and while the screen 'MAKE A CHOICE' is shown"",""Q3"":""Green mark"",""Q4"":""either D or K""}","0","","","","","","","","","","","","","","","","","",""
"","start_exp","","html-keyboard-response","3","179285","0.0-1.0-1.0","0","0","30014","","2346","","","32","","","","","","","","","","","","","","","","",""
"","S1","","html-keyboard-response","4","179548","0.0-1.0-2.0","0","0","30014","","null","","","null","0","","","","","","","","","","","","","","","",""
"","ISI","","html-keyboard-response","5","180554","0.0-1.0-3.0","0","0","30014","","null","","","null","0","NaN","","","","","","","","","","","","","","",""
"","S2","","html-keyboard-response","6","180810","0.0-1.0-4.0","0","0","30014","","null","","","null","0","","NaN","","","","","","","","","","","","","",""
"","response","","html-keyboard-response","7","182575","0.0-1.0-5.0-0.0","0","0","30014","","null","","","null","0","","","1","0","training","adjacent","DE","4","5","L.jpg","P.jpg","NaN","1","0","",""
"","too_slow_prompt","","html-keyboard-response","8","183585","0.0-1.0-7.0-0.0","1","0","30014","","null","","","null","","","","","","","","","","","","","","","","",""
"","time_out","","html-keyboard-response","9","185593","0.0-1.0-8.0-0.0","0","0","30014","","null","","","null","0","","","","","","","","","","","","","","","",""
"","ITI","","html-keyboard-response","10","186612","0.0-1.0-9.0","0","0","30014","","null","","","null","0","","","","","","","","","","","","","","","NaN",""
"","S1","","html-keyboard-response","11","186874","0.0-1.0-11.0","0","0","30014","","null","","","null","1","","","","","","","","","","","","","","","",""
"","ISI","","html-keyboard-response","12","187885","0.0-1.0-12.0","0","0","30014","","null","","","null","1","NaN","","","","","","","","","","","","","","",""
"","S2","","html-keyboard-response","13","188146","0.0-1.0-13.0","0","0","30014","","null","","","null","1","","NaN","","","","","","","","","","","","","",""
"","response","","html-keyboard-response","14","189335","0.0-1.0-14.0-0.0","0","0","30014","","1185","","","75","1","","","1","1","training","adjacent","ED","5","4","P.jpg","L.jpg","0","0","1","",""
"","feedback","","html-keyboard-response","15","190359","0.0-1.0-15.0-0.0","0","0","30014","","null","","","null","1","","","","","","","","","","","","","","","",""
"","ITI","","html-keyboard-response","16","191380","0.0-1.0-18.0","0","0","30014","","null","","","null","1","","","","","","","","","","","","","","","NaN",""
"","S1","","html-keyboard-response","17","191643","0.0-1.0-20.0","0","0","30014","","null","","","null","2","","","","","","","","","","","","","","","",""
"","ISI","","html-keyboard-response","18","192656","0.0-1.0-21.0","0","0","30014","","null","","","null","2","NaN","","","","","","","","","","","","","","",""
"","S2","","html-keyboard-response","19","192923","0.0-1.0-22.0","0","0","30014","","null","","","null","2","","NaN","","","","","","","","","","","","","",""
"","response","","html-keyboard-response","20","193704","0.0-1.0-23.0-0.0","0","0","30014","","776","","","75","2","","","1","2","training","adjacent","BA","2","1","Q.jpg","M.jpg","0","0","1","",""
"","feedback","","html-keyboard-response","21","194716","0.0-1.0-24.0-0.0","0","0","30014","","null","","","null","2","","","","","","","","","","","","","","","",""
"","ITI","","html-keyboard-response","22","195724","0.0-1.0-27.0","0","0","30014","","null","","","null","2","","","","","","","","","","","","","","","NaN",""
"","S1","","html-keyboard-response","23","195980","0.0-1.0-29.0","0","0","30014","","null","","","null","3","","","","","","","","","","","","","","","",""
"","ISI","","html-keyboard-response","24","196991","0.0-1.0-30.0","0","0","30014","","null","","","null","3","NaN","","","","","","","","","","","","","","",""
"","S2","","html-keyboard-response","25","197250","0.0-1.0-31.0","0","0","30014","","null","","","null","3","","NaN","","","","","","","","","","","","","",""
"","response","","html-keyboard-response","26","198125","0.0-1.0-32.0-0.0","0","0","30014","","870","","","75","3","","","1","3","training","adjacent","GF","7","6","O.jpg","N.jpg","0","0","1","",""
"","feedback","","html-keyboard-response","27","199143","0.0-1.0-33.0-0.0","0","0","30014","","null","","","null","3","","","","","","","","","","","","","","","",""
"","ITI","","html-keyboard-response","28","200169","0.0-1.0-36.0","0","0","30014","","null","","","null","3","","","","","","","","","","","","","","","NaN",""
"","S1","","html-keyboard-response","29","200430","0.0-1.0-38.0","0","0","30014","","null","","","null","4","","","","","","","","","","","","","","","",""
"","ISI","","html-keyboard-response","30","201444","0.0-1.0-39.0","0","0","30014","","null","","","null","4","NaN","","","","","","","","","","","","","","",""
"","S2","","html-keyboard-response","31","201719","0.0-1.0-40.0","0","0","30014","","null","","","null","4","","NaN","","","","","","","","","","","","","",""
"","response","","html-keyboard-response","32","202046","0.0-1.0-41.0-0.0","0","0","30014","","321","","","68","4","","","1","4","training","adjacent","GF","7","6","O.jpg","N.jpg","1","0","0","",""
"","feedback","","html-keyboard-response","33","203058","0.0-1.0-42.0-0.0","0","0","30014","","null","","","null","4","","","","","","","","","","","","","","","",""
"","time_out","","html-keyboard-response","34","205079","0.0-1.0-44.0-0.0","0","0","30014","","null","","","null","4","","","","","","","","","","","","","","","",""
"","ITI","","html-keyboard-response","35","206090","0.0-1.0-45.0","0","0","30014","","null","","","null","4","","","","","","","","","","","","","","","NaN",""
"","S1","","html-keyboard-response","36","206350","0.0-1.0-47.0","0","0","30014","","null","","","null","5","","","","","","","","","","","","","","","",""
"","ISI","","html-keyboard-response","37","207362","0.0-1.0-48.0","0","0","30014","","null","","","null","5","NaN","","","","","","","","","","","","","","",""
"","S2","","html-keyboard-response","38","207622","0.0-1.0-49.0","0","0","30014","","null","","","null","5","","NaN","","","","","","","","","","","","","",""
"","response","","html-keyboard-response","39","207982","0.0-1.0-50.0-0.0","0","0","30014","","354","","","68","5","","","1","5","training","adjacent","AB","1","2","M.jpg","Q.jpg","1","1","1","",""
"","feedback","","html-keyboard-response","40","208993","0.0-1.0-51.0-0.0","0","0","30014","","null","","","null","5","","","","","","","","","","","","","","","",""
"","ITI","","html-keyboard-response","41","210004","0.0-1.0-54.0","0","0","30014","","null","","","null","5","","","","","","","","","","","","","","","NaN",""
"","S1","","html-keyboard-response","42","210259","0.0-1.0-56.0","0","0","30014","","null","","","null","6","","","","","","","","","","","","","","","",""
"","ISI","","html-keyboard-response","43","211268","0.0-1.0-57.0","0","0","30014","","null","","","null","6","NaN","","","","","","","","","","","","","","",""
"","S2","","html-keyboard-response","44","211525","0.0-1.0-58.0","0","0","30014","","null","","","null","6","","NaN","","","","","","","","","","","","","",""
"","response","","html-keyboard-response","45","212063","0.0-1.0-59.0-0.0","0","0","30014","","533","","","75","6","","","1","6","training","adjacent","FE","6","5","N.jpg","P.jpg","0","0","1","",""
"","feedback","","html-keyboard-response","46","213074","0.0-1.0-60.0-0.0","0","0","30014","","null","","","null","6","","","","","","","","","","","","","","","",""
"","ITI","","html-keyboard-response","47","214097","0.0-1.0-63.0","0","0","30014","","null","","","null","6","","","","","","","","","","","","","","","NaN",""
"","S1","","html-keyboard-response","48","214380","0.0-1.0-65.0","0","0","30014","","null","","","null","7","","","","","","","","","","","","","","","",""
"","ISI","","html-keyboard-response","49","215408","0.0-1.0-66.0","0","0","30014","","null","","","null","7","NaN","","","","","","","","","","","","","","",""
"","S2","","html-keyboard-response","50","215665","0.0-1.0-67.0","0","0","30014","","null","","","null","7","","NaN","","","","","","","","","","","","","",""
"","response","","html-keyboard-response","51","216100","0.0-1.0-68.0-0.0","0","0","30014","","431","","","68","7","","","1","7","training","adjacent","EF","5","6","P.jpg","N.jpg","1","1","1","",""
"","feedback","","html-keyboard-response","52","217118","0.0-1.0-69.0-0.0","0","0","30014","","null","","","null","7","","","","","","","","","","","","","","","",""
"","ITI","","html-keyboard-response","53","218168","0.0-1.0-72.0","0","0","30014","","null","","","null","7","","","","","","","","","","","","","","","NaN",""
"","S1","","html-keyboard-response","54","218429","0.0-1.0-74.0","0","0","30014","","null","","","null","8","","","","","","","","","","","","","","","",""
"","ISI","","html-keyboard-response","55","219441","0.0-1.0-75.0","0","0","30014","","null","","","null","8","NaN","","","","","","","","","","","","","","",""
"","S2","","html-keyboard-response","56","219699","0.0-1.0-76.0","0","0","30014","","null","","","null","8","","NaN","","","","","","","","","","","","","",""
"","response","","html-keyboard-response","57","220134","0.0-1.0-77.0-0.0","0","0","30014","","431","","","75","8","","","1","8","training","adjacent","BC","2","3","Q.jpg","R.jpg","0","1","0","",""
"","feedback","","html-keyboard-response","58","221147","0.0-1.0-78.0-0.0","0","0","30014","","null","","","null","8","","","","","","","","","","","","","","","",""
"","time_out","","html-keyboard-response","59","223157","0.0-1.0-80.0-0.0","0","0","30014","","null","","","null","8","","","","","","","","","","","","","","","",""
"","ITI","","html-keyboard-response","60","224165","0.0-1.0-81.0","0","0","30014","","null","","","null","8","","","","","","","","","","","","","","","NaN",""
"","S1","","html-keyboard-response","61","224427","0.0-1.0-83.0","0","0","30014","","null","","","null","9","","","","","","","","","","","","","","","",""
"","ISI","","html-keyboard-response","62","225434","0.0-1.0-84.0","0","0","30014","","null","","","null","9","NaN","","","","","","","","","","","","","","",""
"","S2","","html-keyboard-response","63","225695","0.0-1.0-85.0","0","0","30014","","null","","","null","9","","NaN","","","","","","","","","","","","","",""
"","response","","html-keyboard-response","64","226097","0.0-1.0-86.0-0.0","0","0","30014","","398","","","68","9","","","1","9","training","adjacent","CB","3","2","R.jpg","Q.jpg","1","0","0","",""
"","feedback","","html-keyboard-response","65","227104","0.0-1.0-87.0-0.0","0","0","30014","","null","","","null","9","","","","","","","","","","","","","","","",""
"","time_out","","html-keyboard-response","66","229111","0.0-1.0-89.0-0.0","0","0","30014","","null","","","null","9","","","","","","","","","","","","","","","",""
"","ITI","","html-keyboard-response","67","230119","0.0-1.0-90.0","0","0","30014","","null","","","null","9","","","","","","","","","","","","","","","NaN",""
"","S1","","html-keyboard-response","68","230375","0.0-1.0-92.0","0","0","30014","","null","","","null","10","","","","","","","","","","","","","","","",""
"","ISI","","html-keyboard-response","69","231384","0.0-1.0-93.0","0","0","30014","","null","","","null","10","NaN","","","","","","","","","","","","","","",""
"","S2","","html-keyboard-response","70","231640","0.0-1.0-94.0","0","0","30014","","null","","","null","10","","NaN","","","","","","","","","","","","","",""
"","response","","html-keyboard-response","71","232253","0.0-1.0-95.0-0.0","0","0","30014","","610","","","68","10","","","1","10","training","adjacent","AB","1","2","M.jpg","Q.jpg","1","1","1","",""
"","feedback","","html-keyboard-response","72","233263","0.0-1.0-96.0-0.0","0","0","30014","","null","","","null","10","","","","","","","","","","","","","","","",""
"","ITI","","html-keyboard-response","73","234287","0.0-1.0-99.0","0","0","30014","","null","","","null","10","","","","","","","","","","","","","","","NaN",""
"","S1","","html-keyboard-response","74","234567","0.0-1.0-101.0","0","0","30014","","null","","","null","11","","","","","","","","","","","","","","","",""
"","ISI","","html-keyboard-response","75","235610","0.0-1.0-102.0","0","0","30014","","null","","","null","11","NaN","","","","","","","","","","","","","","",""
"","S2","","html-keyboard-response","76","235875","0.0-1.0-103.0","0","0","30014","","null","","","null","11","","NaN","","","","","","","","","","","","","",""
"","response","","html-keyboard-response","77","236124","0.0-1.0-104.0-0.0","0","0","30014","","244","","","75","11","","","1","11","training","adjacent","BC","2","3","Q.jpg","R.jpg","0","1","0","",""
"","feedback","","html-keyboard-response","78","237150","0.0-1.0-105.0-0.0","0","0","30014","","null","","","null","11","","","","","","","","","","","","","","","",""
"","time_out","","html-keyboard-response","79","239163","0.0-1.0-107.0-0.0","0","0","30014","","null","","","null","11","","","","","","","","","","","","","","","",""
"","ITI","","html-keyboard-response","80","240176","0.0-1.0-108.0","0","0","30014","","null","","","null","11","","","","","","","","","","","","","","","NaN",""
"","S1","","html-keyboard-response","81","240437","0.0-1.0-110.0","0","0","30014","","null","","","null","12","","","","","","","","","","","","","","","",""
"","ISI","","html-keyboard-response","82","241451","0.0-1.0-111.0","0","0","30014","","null","","","null","12","NaN","","","","","","","","","","","","","","",""
"","S2","","html-keyboard-response","83","241723","0.0-1.0-112.0","0","0","30014","","null","","","null","12","","NaN","","","","","","","","","","","","","",""
"","response","","html-keyboard-response","84","242085","0.0-1.0-113.0-0.0","0","0","30014","","357","","","75","12","","","1","12","training","adjacent","GF","7","6","O.jpg","N.jpg","0","0","1","",""
"","feedback","","html-keyboard-response","85","243158","0.0-1.0-114.0-0.0","0","0","30014","","null","","","null","12","","","","","","","","","","","","","","","",""
"","ITI","","html-keyboard-response","86","244168","0.0-1.0-117.0","0","0","30014","","null","","","null","12","","","","","","","","","","","","","","","NaN",""
"","S1","","html-keyboard-response","87","244452","0.0-1.0-119.0","0","0","30014","","null","","","null","13","","","","","","","","","","","","","","","",""
"","ISI","","html-keyboard-response","88","245469","0.0-1.0-120.0","0","0","30014","","null","","","null","13","NaN","","","","","","","","","","","","","","",""
"","S2","","html-keyboard-response","89","245725","0.0-1.0-121.0","0","0","30014","","null","","","null","13","","NaN","","","","","","","","","","","","","",""
"","response","","html-keyboard-response","90","245989","0.0-1.0-122.0-0.0","0","0","30014","","259","","","75","13","","","1","13","training","adjacent","CD","3","4","R.jpg","L.jpg","0","1","0","",""
"","feedback","","html-keyboard-response","91","246997","0.0-1.0-123.0-0.0","0","0","30014","","null","","","null","13","","","","","","","","","","","","","","","",""
"","time_out","","html-keyboard-response","92","249005","0.0-1.0-125.0-0.0","0","0","30014","","null","","","null","13","","","","","","","","","","","","","","","",""
"","ITI","","html-keyboard-response","93","251393","0.0-1.0-126.0","0","0","30014","","null","","","null","13","","","","","","","","","","","","","","","NaN",""
"","S1","","html-keyboard-response","94","251694","0.0-1.0-128.0","0","0","30014","","null","","","null","14","","","","","","","","","","","","","","","",""
"","ISI","","html-keyboard-response","95","253287","0.0-1.0-129.0","0","0","30014","","null","","","null","14","NaN","","","","","","","","","","","","","","",""
"","S2","","html-keyboard-response","96","255572","0.0-1.0-130.0","0","0","30014","","2252","","","68","14","","d","1","14","training","adjacent","ED","5","4","P.jpg","L.jpg","1","0","0","",""
"","feedback","","html-keyboard-response","97","256690","0.0-1.0-132.0-0.0","0","0","30014","","null","","","null","14","","","","","","","","","","","","","","","",""
"","time_out","","html-keyboard-response","98","258702","0.0-1.0-134.0-0.0","0","0","30014","","null","","","null","14","","","","","","","","","","","","","","","",""
"","ITI","","html-keyboard-response","99","259724","0.0-1.0-135.0","0","0","30014","","null","","","null","14","","","","","","","","","","","","","","","NaN",""
"","S1","","html-keyboard-response","100","259990","0.0-1.0-137.0","0","0","30014","","null","","","null","15","","","","","","","","","","","","","","","",""
"","ISI","","html-keyboard-response","101","261000","0.0-1.0-138.0","0","0","30014","","null","","","null","15","NaN","","","","","","","","","","","","","","",""
"","S2","","html-keyboard-response","102","261289","0.0-1.0-139.0","0","0","30014","","null","","","null","15","","NaN","","","","","","","","","","","","","",""
"","response","","html-keyboard-response","103","261973","0.0-1.0-140.0-0.0","0","0","30014","","681","","","75","15","","","1","15","training","adjacent","FG","6","7","N.jpg","O.jpg","0","1","0","",""
"","feedback","","html-keyboard-response","104","263100","0.0-1.0-141.0-0.0","0","0","30014","","null","","","null","15","","","","","","","","","","","","","","","",""
"","time_out","","html-keyboard-response","105","265116","0.0-1.0-143.0-0.0","0","0","30014","","null","","","null","15","","","","","","","","","","","","","","","",""
"","ITI","","html-keyboard-response","106","266145","0.0-1.0-144.0","0","0","30014","","null","","","null","15","","","","","","","","","","","","","","","NaN",""
"","S1","","html-keyboard-response","107","266427","0.0-1.0-146.0","0","0","30014","","null","","","null","16","","","","","","","","","","","","","","","",""
"","ISI","","html-keyboard-response","108","267464","0.0-1.0-147.0","0","0","30014","","null","","","null","16","NaN","","","","","","","","","","","","","","",""
"","S2","","html-keyboard-response","109","267722","0.0-1.0-148.0","0","0","30014","","null","","","null","16","","NaN","","","","","","","","","","","","","",""
"","response","","html-keyboard-response","110","268345","0.0-1.0-149.0-0.0","0","0","30014","","618","","","75","16","","","1","16","training","adjacent","FE","6","5","N.jpg","P.jpg","0","0","1","",""
"","feedback","","html-keyboard-response","111","269355","0.0-1.0-150.0-0.0","0","0","30014","","null","","","null","16","","","","","","","","","","","","","","","",""
"","ITI","","html-keyboard-response","112","270362","0.0-1.0-153.0","0","0","30014","","null","","","null","16","","","","","","","","","","","","","","","NaN",""
"","S1","","html-keyboard-response","113","270632","0.0-1.0-155.0","0","0","30014","","null","","","null","17","","","","","","","","","","","","","","","",""
"","ISI","","html-keyboard-response","114","271643","0.0-1.0-156.0","0","0","30014","","null","","","null","17","NaN","","","","","","","","","","","","","","",""
"","S2","","html-keyboard-response","115","271907","0.0-1.0-157.0","0","0","30014","","null","","","null","17","","NaN","","","","","","","","","","","","","",""
"","response","","html-keyboard-response","116","272572","0.0-1.0-158.0-0.0","0","0","30014","","660","","","75","17","","","1","17","training","adjacent","CD","3","4","R.jpg","L.jpg","0","1","0","",""
"","feedback","","html-keyboard-response","117","273594","0.0-1.0-159.0-0.0","0","0","30014","","null","","","null","17","","","","","","","","","","","","","","","",""
"","time_out","","html-keyboard-response","118","275634","0.0-1.0-161.0-0.0","0","0","30014","","null","","","null","17","","","","","","","","","","","","","","","",""
"","ITI","","html-keyboard-response","119","276644","0.0-1.0-162.0","0","0","30014","","null","","","null","17","","","","","","","","","","","","","","","NaN",""
"","S1","","html-keyboard-response","120","276902","0.0-1.0-164.0","0","0","30014","","null","","","null","18","","","","","","","","","","","","","","","",""
"","ISI","","html-keyboard-response","121","277923","0.0-1.0-165.0","0","0","30014","","null","","","null","18","NaN","","","","","","","","","","","","","","",""
"","S2","","html-keyboard-response","122","278196","0.0-1.0-166.0","0","0","30014","","null","","","null","18","","NaN","","","","","","","","","","","","","",""
"","response","","html-keyboard-response","123","278673","0.0-1.0-167.0-0.0","0","0","30014","","471","","","75","18","","","1","18","training","adjacent","BA","2","1","Q.jpg","M.jpg","0","0","1","",""
"","feedback","","html-keyboard-response","124","279695","0.0-1.0-168.0-0.0","0","0","30014","","null","","","null","18","","","","","","","","","","","","","","","",""
"","ITI","","html-keyboard-response","125","280728","0.0-1.0-171.0","0","0","30014","","null","","","null","18","","","","","","","","","","","","","","","NaN",""
"","S1","","html-keyboard-response","126","281049","0.0-1.0-173.0","0","0","30014","","null","","","null","19","","","","","","","","","","","","","","","",""
"","ISI","","html-keyboard-response","127","282119","0.0-1.0-174.0","0","0","30014","","null","","","null","19","NaN","","","","","","","","","","","","","","",""
"","S2","","html-keyboard-response","128","282427","0.0-1.0-175.0","0","0","30014","","null","","","null","19","","NaN","","","","","","","","","","","","","",""
"","response","","html-keyboard-response","129","283021","0.0-1.0-176.0-0.0","0","0","30014","","588","","","68","19","","","1","19","training","adjacent","EF","5","6","P.jpg","N.jpg","1","1","1","",""
"","feedback","","html-keyboard-response","130","284033","0.0-1.0-177.0-0.0","0","0","30014","","null","","","null","19","","","","","","","","","","","","","","","",""
"","ITI","","html-keyboard-response","131","285042","0.0-1.0-180.0","0","0","30014","","null","","","null","19","","","","","","","","","","","","","","","NaN",""
"","S1","","html-keyboard-response","132","285308","0.0-1.0-182.0","0","0","30014","","null","","","null","20","","","","","","","","","","","","","","","",""
"","ISI","","html-keyboard-response","133","286315","0.0-1.0-183.0","0","0","30014","","null","","","null","20","NaN","","","","","","","","","","","","","","",""
"","S2","","html-keyboard-response","134","286586","0.0-1.0-184.0","0","0","30014","","null","","","null","20","","NaN","","","","","","","","","","","","","",""
"","response","","html-keyboard-response","135","287047","0.0-1.0-185.0-0.0","0","0","30014","","456","","","75","20","","","1","20","training","adjacent","EF","5","6","P.jpg","N.jpg","0","1","0","",""
"","feedback","","html-keyboard-response","136","288055","0.0-1.0-186.0-0.0","0","0","30014","","null","","","null","20","","","","","","","","","","","","","","","",""
"","time_out","","html-keyboard-response","137","290066","0.0-1.0-188.0-0.0","0","0","30014","","null","","","null","20","","","","","","","","","","","","","","","",""
"","ITI","","html-keyboard-response","138","291074","0.0-1.0-189.0","0","0","30014","","null","","","null","20","","","","","","","","","","","","","","","NaN",""
"","S1","","html-keyboard-response","139","291330","0.0-1.0-191.0","0","0","30014","","null","","","null","21","","","","","","","","","","","","","","","",""
"","ISI","","html-keyboard-response","140","292344","0.0-1.0-192.0","0","0","30014","","null","","","null","21","NaN","","","","","","","","","","","","","","",""
"","S2","","html-keyboard-response","141","292612","0.0-1.0-193.0","0","0","30014","","null","","","null","21","","NaN","","","","","","","","","","","","","",""
"","response","","html-keyboard-response","142","292912","0.0-1.0-194.0-0.0","0","0","30014","","296","","","68","21","","","1","21","training","adjacent","EF","5","6","P.jpg","N.jpg","1","1","1","",""
"","feedback","","html-keyboard-response","143","293920","0.0-1.0-195.0-0.0","0","0","30014","","null","","","null","21","","","","","","","","","","","","","","","",""
"","ITI","","html-keyboard-response","144","294937","0.0-1.0-198.0","0","0","30014","","null","","","null","21","","","","","","","","","","","","","","","NaN",""
"","S1","","html-keyboard-response","145","295202","0.0-1.0-200.0","0","0","30014","","null","","","null","22","","","","","","","","","","","","","","","",""
"","ISI","","html-keyboard-response","146","296226","0.0-1.0-201.0","0","0","30014","","null","","","null","22","NaN","","","","","","","","","","","","","","",""
"","S2","","html-keyboard-response","147","296516","0.0-1.0-202.0","0","0","30014","","null","","","null","22","","NaN","","","","","","","","","","","","","",""
"","response","","html-keyboard-response","148","297092","0.0-1.0-203.0-0.0","0","0","30014","","571","","","68","22","","","1","22","training","adjacent","DC","4","3","L.jpg","R.jpg","1","0","0","",""
"","feedback","","html-keyboard-response","149","298102","0.0-1.0-204.0-0.0","0","0","30014","","null","","","null","22","","","","","","","","","","","","","","","",""
"","time_out","","html-keyboard-response","150","300126","0.0-1.0-206.0-0.0","0","0","30014","","null","","","null","22","","","","","","","","","","","","","","","",""
"","ITI","","html-keyboard-response","151","301137","0.0-1.0-207.0","0","0","30014","","null","","","null","22","","","","","","","","","","","","","","","NaN",""
"","S1","","html-keyboard-response","152","301401","0.0-1.0-209.0","0","0","30014","","null","","","null","23","","","","","","","","","","","","","","","",""
"","ISI","","html-keyboard-response","153","302408","0.0-1.0-210.0","0","0","30014","","null","","","null","23","NaN","","","","","","","","","","","","","","",""
"","S2","","html-keyboard-response","154","302665","0.0-1.0-211.0","0","0","30014","","null","","","null","23","","NaN","","","","","","","","","","","","","",""
"","response","","html-keyboard-response","155","302993","0.0-1.0-212.0-0.0","0","0","30014","","323","","","68","23","","","1","23","training","adjacent","ED","5","4","P.jpg","L.jpg","1","0","0","",""
"","feedback","","html-keyboard-response","156","304002","0.0-1.0-213.0-0.0","0","0","30014","","null","","","null","23","","","","","","","","","","","","","","","",""
"","time_out","","html-keyboard-response","157","306013","0.0-1.0-215.0-0.0","0","0","30014","","null","","","null","23","","","","","","","","","","","","","","","",""
"","ITI","","html-keyboard-response","158","307025","0.0-1.0-216.0","0","0","30014","","null","","","null","23","","","","","","","","","","","","","","","NaN",""
"","S1","","html-keyboard-response","159","307281","0.0-1.0-218.0","0","0","30014","","null","","","null","24","","","","","","","","","","","","","","","",""
"","ISI","","html-keyboard-response","160","308289","0.0-1.0-219.0","0","0","30014","","null","","","null","24","NaN","","","","","","","","","","","","","","",""
"","S2","","html-keyboard-response","161","308545","0.0-1.0-220.0","0","0","30014","","null","","","null","24","","NaN","","","","","","","","","","","","","",""
"","response","","html-keyboard-response","162","309056","0.0-1.0-221.0-0.0","0","0","30014","","506","","","75","24","","","1","24","training","adjacent","FG","6","7","N.jpg","O.jpg","0","1","0","",""
"","feedback","","html-keyboard-response","163","310066","0.0-1.0-222.0-0.0","0","0","30014","","null","","","null","24","","","","","","","","","","","","","","","",""
"","time_out","","html-keyboard-response","164","312075","0.0-1.0-224.0-0.0","0","0","30014","","null","","","null","24","","","","","","","","","","","","","","","",""
"","ITI","","html-keyboard-response","165","313089","0.0-1.0-225.0","0","0","30014","","null","","","null","24","","","","","","","","","","","","","","","NaN",""
"","S1","","html-keyboard-response","166","313358","0.0-1.0-227.0","0","0","30014","","null","","","null","25","","","","","","","","","","","","","","","",""
"","ISI","","html-keyboard-response","167","314374","0.0-1.0-228.0","0","0","30014","","null","","","null","25","NaN","","","","","","","","","","","","","","",""
"","S2","","html-keyboard-response","168","314633","0.0-1.0-229.0","0","0","30014","","null","","","null","25","","NaN","","","","","","","","","","","","","",""
"","response","","html-keyboard-response","169","315169","0.0-1.0-230.0-0.0","0","0","30014","","531","","","75","25","","","1","25","training","adjacent","FE","6","5","N.jpg","P.jpg","0","0","1","",""
"","feedback","","html-keyboard-response","170","316212","0.0-1.0-231.0-0.0","0","0","30014","","null","","","null","25","","","","","","","","","","","","","","","",""
"","ITI","","html-keyboard-response","171","317220","0.0-1.0-234.0","0","0","30014","","null","","","null","25","","","","","","","","","","","","","","","NaN",""
"","S1","","html-keyboard-response","172","317478","0.0-1.0-236.0","0","0","30014","","null","","","null","26","","","","","","","","","","","","","","","",""
"","ISI","","html-keyboard-response","173","318490","0.0-1.0-237.0","0","0","30014","","null","","","null","26","NaN","","","","","","","","","","","","","","",""
"","S2","","html-keyboard-response","174","318747","0.0-1.0-238.0","0","0","30014","","null","","","null","26","","NaN","","","","","","","","","","","","","",""
"","response","","html-keyboard-response","175","319385","0.0-1.0-239.0-0.0","0","0","30014","","634","","","75","26","","","1","26","training","adjacent","BC","2","3","Q.jpg","R.jpg","0","1","0","",""
"","feedback","","html-keyboard-response","176","320392","0.0-1.0-240.0-0.0","0","0","30014","","null","","","null","26","","","","","","","","","","","","","","","",""
"","time_out","","html-keyboard-response","177","322422","0.0-1.0-242.0-0.0","0","0","30014","","null","","","null","26","","","","","","","","","","","","","","","",""
"","ITI","","html-keyboard-response","178","323430","0.0-1.0-243.0","0","0","30014","","null","","","null","26","","","","","","","","","","","","","","","NaN",""
"","S1","","html-keyboard-response","179","323689","0.0-1.0-245.0","0","0","30014","","null","","","null","27","","","","","","","","","","","","","","","",""
"","ISI","","html-keyboard-response","180","324695","0.0-1.0-246.0","0","0","30014","","null","","","null","27","NaN","","","","","","","","","","","","","","",""
"","S2","","html-keyboard-response","181","324958","0.0-1.0-247.0","0","0","30014","","null","","","null","27","","NaN","","","","","","","","","","","","","",""
"","response","","html-keyboard-response","182","326113","0.0-1.0-248.0-0.0","0","0","30014","","1150","","","75","27","","","1","27","training","adjacent","CB","3","2","R.jpg","Q.jpg","0","0","1","",""
"","feedback","","html-keyboard-response","183","327126","0.0-1.0-249.0-0.0","0","0","30014","","null","","","null","27","","","","","","","","","","","","","","","",""
"","ITI","","html-keyboard-response","184","328133","0.0-1.0-252.0","0","0","30014","","null","","","null","27","","","","","","","","","","","","","","","NaN",""
"","S1","","html-keyboard-response","185","328396","0.0-1.0-254.0","0","0","30014","","null","","","null","28","","","","","","","","","","","","","","","",""
"","ISI","","html-keyboard-response","186","329408","0.0-1.0-255.0","0","0","30014","","null","","","null","28","NaN","","","","","","","","","","","","","","",""
"","S2","","html-keyboard-response","187","329670","0.0-1.0-256.0","0","0","30014","","null","","","null","28","","NaN","","","","","","","","","","","","","",""
"","response","","html-keyboard-response","188","330585","0.0-1.0-257.0-0.0","0","0","30014","","909","","","75","28","","","1","28","training","adjacent","FE","6","5","N.jpg","P.jpg","0","0","1","",""
"","feedback","","html-keyboard-response","189","331600","0.0-1.0-258.0-0.0","0","0","30014","","null","","","null","28","","","","","","","","","","","","","","","",""
"","ITI","","html-keyboard-response","190","332611","0.0-1.0-261.0","0","0","30014","","null","","","null","28","","","","","","","","","","","","","","","NaN",""
"","S1","","html-keyboard-response","191","332866","0.0-1.0-263.0","0","0","30014","","null","","","null","29","","","","","","","","","","","","","","","",""
"","ISI","","html-keyboard-response","192","333876","0.0-1.0-264.0","0","0","30014","","null","","","null","29","NaN","","","","","","","","","","","","","","",""
"","S2","","html-keyboard-response","193","334139","0.0-1.0-265.0","0","0","30014","","null","","","null","29","","NaN","","","","","","","","","","","","","",""
"","response","","html-keyboard-response","194","334811","0.0-1.0-266.0-0.0","0","0","30014","","666","","","75","29","","","1","29","training","adjacent","BA","2","1","Q.jpg","M.jpg","0","0","1","",""
"","feedback","","html-keyboard-response","195","335821","0.0-1.0-267.0-0.0","0","0","30014","","null","","","null","29","","","","","","","","","","","","","","","",""
"","ITI","","html-keyboard-response","196","336832","0.0-1.0-270.0","0","0","30014","","null","","","null","29","","","","","","","","","","","","","","","NaN",""
"","S1","","html-keyboard-response","197","337095","0.0-1.0-272.0","0","0","30014","","null","","","null","30","","","","","","","","","","","","","","","",""
"","ISI","","html-keyboard-response","198","338105","0.0-1.0-273.0","0","0","30014","","null","","","null","30","NaN","","","","","","","","","","","","","","",""
"","S2","","html-keyboard-response","199","338365","0.0-1.0-274.0","0","0","30014","","null","","","null","30","","NaN","","","","","","","","","","","","","",""
"","response","","html-keyboard-response","200","338768","0.0-1.0-275.0-0.0","0","0","30014","","396","","","68","30","","","1","30","training","adjacent","CB","3","2","R.jpg","Q.jpg","1","0","0","",""
"","feedback","","html-keyboard-response","201","339778","0.0-1.0-276.0-0.0","0","0","30014","","null","","","null","30","","","","","","","","","","","","","","","",""
"","time_out","","html-keyboard-response","202","341788","0.0-1.0-278.0-0.0","0","0","30014","","null","","","null","30","","","","","","","","","","","","","","","",""
"","ITI","","html-keyboard-response","203","342801","0.0-1.0-279.0","0","0","30014","","null","","","null","30","","","","","","","","","","","","","","","NaN",""
"","S1","","html-keyboard-response","204","343062","0.0-1.0-281.0","0","0","30014","","null","","","null","31","","","","","","","","","","","","","","","",""
"","ISI","","html-keyboard-response","205","344072","0.0-1.0-282.0","0","0","30014","","null","","","null","31","NaN","","","","","","","","","","","","","","",""
"","S2","","html-keyboard-response","206","344335","0.0-1.0-283.0","0","0","30014","","null","","","null","31","","NaN","","","","","","","","","","","","","",""
"","response","","html-keyboard-response","207","345154","0.0-1.0-284.0-0.0","0","0","30014","","815","","","68","31","","","1","31","training","adjacent","AB","1","2","M.jpg","Q.jpg","1","1","1","",""
"","feedback","","html-keyboard-response","208","346170","0.0-1.0-285.0-0.0","0","0","30014","","null","","","null","31","","","","","","","","","","","","","","","",""
"","ITI","","html-keyboard-response","209","347183","0.0-1.0-288.0","0","0","30014","","null","","","null","31","","","","","","","","","","","","","","","NaN",""
"","S1","","html-keyboard-response","210","347439","0.0-1.0-290.0","0","0","30014","","null","","","null","32","","","","","","","","","","","","","","","",""
"","ISI","","html-keyboard-response","211","348460","0.0-1.0-291.0","0","0","30014","","null","","","null","32","NaN","","","","","","","","","","","","","","",""
"","S2","","html-keyboard-response","212","348722","0.0-1.0-292.0","0","0","30014","","null","","","null","32","","NaN","","","","","","","","","","","","","",""
"","response","","html-keyboard-response","213","349646","0.0-1.0-293.0-0.0","0","0","30014","","918","","","68","32","","","1","32","training","adjacent","DE","4","5","L.jpg","P.jpg","1","1","1","",""
"","feedback","","html-keyboard-response","214","350654","0.0-1.0-294.0-0.0","0","0","30014","","null","","","null","32","","","","","","","","","","","","","","","",""
"","ITI","","html-keyboard-response","215","351666","0.0-1.0-297.0","0","0","30014","","null","","","null","32","","","","","","","","","","","","","","","NaN",""
"","S1","","html-keyboard-response","216","351928","0.0-1.0-299.0","0","0","30014","","null","","","null","33","","","","","","","","","","","","","","","",""
"","ISI","","html-keyboard-response","217","352941","0.0-1.0-300.0","0","0","30014","","null","","","null","33","NaN","","","","","","","","","","","","","","",""
"","S2","","html-keyboard-response","218","353202","0.0-1.0-301.0","0","0","30014","","null","","","null","33","","NaN","","","","","","","","","","","","","",""
"","response","","html-keyboard-response","219","353756","0.0-1.0-302.0-0.0","0","0","30014","","547","","","68","33","","","1","33","training","adjacent","DC","4","3","L.jpg","R.jpg","1","0","0","",""
"","feedback","","html-keyboard-response","220","354773","0.0-1.0-303.0-0.0","0","0","30014","","null","","","null","33","","","","","","","","","","","","","","","",""
"","time_out","","html-keyboard-response","221","356786","0.0-1.0-305.0-0.0","0","0","30014","","null","","","null","33","","","","","","","","","","","","","","","",""
"","ITI","","html-keyboard-response","222","357800","0.0-1.0-306.0","0","0","30014","","null","","","null","33","","","","","","","","","","","","","","","NaN",""
"","S1","","html-keyboard-response","223","358063","0.0-1.0-308.0","0","0","30014","","null","","","null","34","","","","","","","","","","","","","","","",""
"","ISI","","html-keyboard-response","224","359074","0.0-1.0-309.0","0","0","30014","","null","","","null","34","NaN","","","","","","","","","","","","","","",""
"","S2","","html-keyboard-response","225","359337","0.0-1.0-310.0","0","0","30014","","null","","","null","34","","NaN","","","","","","","","","","","","","",""
"","response","","html-keyboard-response","226","359842","0.0-1.0-311.0-0.0","0","0","30014","","499","","","68","34","","","1","34","training","adjacent","DC","4","3","L.jpg","R.jpg","1","0","0","",""
"","feedback","","html-keyboard-response","227","360853","0.0-1.0-312.0-0.0","0","0","30014","","null","","","null","34","","","","","","","","","","","","","","","",""
"","time_out","","html-keyboard-response","228","362861","0.0-1.0-314.0-0.0","0","0","30014","","null","","","null","34","","","","","","","","","","","","","","","",""
"","ITI","","html-keyboard-response","229","363874","0.0-1.0-315.0","0","0","30014","","null","","","null","34","","","","","","","","","","","","","","","NaN",""
"","S1","","html-keyboard-response","230","364138","0.0-1.0-317.0","0","0","30014","","null","","","null","35","","","","","","","","","","","","","","","",""
"","ISI","","html-keyboard-response","231","365145","0.0-1.0-318.0","0","0","30014","","null","","","null","35","NaN","","","","","","","","","","","","","","",""
"","S2","","html-keyboard-response","232","365407","0.0-1.0-319.0","0","0","30014","","null","","","null","35","","NaN","","","","","","","","","","","","","",""
"","response","","html-keyboard-response","233","365848","0.0-1.0-320.0-0.0","0","0","30014","","435","","","68","35","","","1","35","training","adjacent","ED","5","4","P.jpg","L.jpg","1","0","0","",""
"","feedback","","html-keyboard-response","234","366857","0.0-1.0-321.0-0.0","0","0","30014","","null","","","null","35","","","","","","","","","","","","","","","",""
"","time_out","","html-keyboard-response","235","368872","0.0-1.0-323.0-0.0","0","0","30014","","null","","","null","35","","","","","","","","","","","","","","","",""
"","ITI","","html-keyboard-response","236","369879","0.0-1.0-324.0","0","0","30014","","null","","","null","35","","","","","","","","","","","","","","","NaN",""
"","S1","","html-keyboard-response","237","370142","0.0-1.0-326.0","0","0","30014","","null","","","null","36","","","","","","","","","","","","","","","",""
"","ISI","","html-keyboard-response","238","371156","0.0-1.0-327.0","0","0","30014","","null","","","null","36","NaN","","","","","","","","","","","","","","",""
"","S2","","html-keyboard-response","239","371419","0.0-1.0-328.0","0","0","30014","","null","","","null","36","","NaN","","","","","","","","","","","","","",""
"","response","","html-keyboard-response","240","371706","0.0-1.0-329.0-0.0","0","0","30014","","280","","","75","36","","","1","36","training","adjacent","DC","4","3","L.jpg","R.jpg","0","0","1","",""
"","feedback","","html-keyboard-response","241","372719","0.0-1.0-330.0-0.0","0","0","30014","","null","","","null","36","","","","","","","","","","","","","","","",""
"","ITI","","html-keyboard-response","242","373734","0.0-1.0-333.0","0","0","30014","","null","","","null","36","","","","","","","","","","","","","","","NaN",""
"","S1","","html-keyboard-response","243","373992","0.0-1.0-335.0","0","0","30014","","null","","","null","37","","","","","","","","","","","","","","","",""
"","ISI","","html-keyboard-response","244","375005","0.0-1.0-336.0","0","0","30014","","null","","","null","37","NaN","","","","","","","","","","","","","","",""
"","S2","","html-keyboard-response","245","375267","0.0-1.0-337.0","0","0","30014","","null","","","null","37","","NaN","","","","","","","","","","","","","",""
"","response","","html-keyboard-response","246","375627","0.0-1.0-338.0-0.0","0","0","30014","","354","","","68","37","","","1","37","training","adjacent","CD","3","4","R.jpg","L.jpg","1","1","1","",""
"","feedback","","html-keyboard-response","247","376647","0.0-1.0-339.0-0.0","0","0","30014","","null","","","null","37","","","","","","","","","","","","","","","",""
"","ITI","","html-keyboard-response","248","377662","0.0-1.0-342.0","0","0","30014","","null","","","null","37","","","","","","","","","","","","","","","NaN",""
"","S1","","html-keyboard-response","249","377925","0.0-1.0-344.0","0","0","30014","","null","","","null","38","","","","","","","","","","","","","","","",""
"","ISI","","html-keyboard-response","250","378947","0.0-1.0-345.0","0","0","30014","","null","","","null","38","NaN","","","","","","","","","","","","","","",""
"","S2","","html-keyboard-response","251","379207","0.0-1.0-346.0","0","0","30014","","null","","","null","38","","NaN","","","","","","","","","","","","","",""
"","response","","html-keyboard-response","252","379909","0.0-1.0-347.0-0.0","0","0","30014","","695","","","68","38","","","1","38","training","adjacent","GF","7","6","O.jpg","N.jpg","1","0","0","",""
"","feedback","","html-keyboard-response","253","380928","0.0-1.0-348.0-0.0","0","0","30014","","null","","","null","38","","","","","","","","","","","","","","","",""
"","time_out","","html-keyboard-response","254","382937","0.0-1.0-350.0-0.0","0","0","30014","","null","","","null","38","","","","","","","","","","","","","","","",""
"","ITI","","html-keyboard-response","255","383944","0.0-1.0-351.0","0","0","30014","","null","","","null","38","","","","","","","","","","","","","","","NaN",""
"","S1","","html-keyboard-response","256","384214","0.0-1.0-353.0","0","0","30014","","null","","","null","39","","","","","","","","","","","","","","","",""
"","ISI","","html-keyboard-response","257","385227","0.0-1.0-354.0","0","0","30014","","null","","","null","39","NaN","","","","","","","","","","","","","","",""
"","S2","","html-keyboard-response","258","385490","0.0-1.0-355.0","0","0","30014","","null","","","null","39","","NaN","","","","","","","","","","","","","",""
"","response","","html-keyboard-response","259","386092","0.0-1.0-356.0-0.0","0","0","30014","","595","","","75","39","","","1","39","training","adjacent","DE","4","5","L.jpg","P.jpg","0","1","0","",""
"","feedback","","html-keyboard-response","260","387105","0.0-1.0-357.0-0.0","0","0","30014","","null","","","null","39","","","","","","","","","","","","","","","",""
"","time_out","","html-keyboard-response","261","389120","0.0-1.0-359.0-0.0","0","0","30014","","null","","","null","39","","","","","","","","","","","","","","","",""
"","ITI","","html-keyboard-response","262","390131","0.0-1.0-360.0","0","0","30014","","null","","","null","39","","","","","","","","","","","","","","","NaN",""
"","S1","","html-keyboard-response","263","390396","0.0-1.0-362.0","0","0","30014","","null","","","null","40","","","","","","","","","","","","","","","",""
"","ISI","","html-keyboard-response","264","391410","0.0-1.0-363.0","0","0","30014","","null","","","null","40","NaN","","","","","","","","","","","","","","",""
"","S2","","html-keyboard-response","265","391671","0.0-1.0-364.0","0","0","30014","","null","","","null","40","","NaN","","","","","","","","","","","","","",""
"","response","","html-keyboard-response","266","392074","0.0-1.0-365.0-0.0","0","0","30014","","396","","","75","40","","","1","40","training","adjacent","BC","2","3","Q.jpg","R.jpg","0","1","0","",""
"","feedback","","html-keyboard-response","267","393095","0.0-1.0-366.0-0.0","0","0","30014","","null","","","null","40","","","","","","","","","","","","","","","",""
"","time_out","","html-keyboard-response","268","395110","0.0-1.0-368.0-0.0","0","0","30014","","null","","","null","40","","","","","","","","","","","","","","","",""
"","ITI","","html-keyboard-response","269","396118","0.0-1.0-369.0","0","0","30014","","null","","","null","40","","","","","","","","","","","","","","","NaN",""
"","S1","","html-keyboard-response","270","396381","0.0-1.0-371.0","0","0","30014","","null","","","null","41","","","","","","","","","","","","","","","",""
"","ISI","","html-keyboard-response","271","397388","0.0-1.0-372.0","0","0","30014","","null","","","null","41","NaN","","","","","","","","","","","","","","",""
"","S2","","html-keyboard-response","272","397649","0.0-1.0-373.0","0","0","30014","","null","","","null","41","","NaN","","","","","","","","","","","","","",""
"","response","","html-keyboard-response","273","398089","0.0-1.0-374.0-0.0","0","0","30014","","435","","","75","41","","","1","41","training","adjacent","AB","1","2","M.jpg","Q.jpg","0","1","0","",""
"","feedback","","html-keyboard-response","274","399104","0.0-1.0-375.0-0.0","0","0","30014","","null","","","null","41","","","","","","","","","","","","","","","",""
"","time_out","","html-keyboard-response","275","401112","0.0-1.0-377.0-0.0","0","0","30014","","null","","","null","41","","","","","","","","","","","","","","","",""
"","ITI","","html-keyboard-response","276","402125","0.0-1.0-378.0","0","0","30014","","null","","","null","41","","","","","","","","","","","","","","","NaN",""
"","S1","","html-keyboard-response","277","402387","0.0-1.0-380.0","0","0","30014","","null","","","null","42","","","","","","","","","","","","","","","",""
"","ISI","","html-keyboard-response","278","403399","0.0-1.0-381.0","0","0","30014","","null","","","null","42","NaN","","","","","","","","","","","","","","",""
"","S2","","html-keyboard-response","279","403661","0.0-1.0-382.0","0","0","30014","","null","","","null","42","","NaN","","","","","","","","","","","","","",""
"","response","","html-keyboard-response","280","403991","0.0-1.0-383.0-0.0","0","0","30014","","323","","","68","42","","","1","42","training","adjacent","FG","6","7","N.jpg","O.jpg","1","1","1","",""
"","feedback","","html-keyboard-response","281","405003","0.0-1.0-384.0-0.0","0","0","30014","","null","","","null","42","","","","","","","","","","","","","","","",""
"","ITI","","html-keyboard-response","282","406023","0.0-1.0-387.0","0","0","30014","","null","","","null","42","","","","","","","","","","","","","","","NaN",""
"","S1","","html-keyboard-response","283","406287","0.0-1.0-389.0","0","0","30014","","null","","","null","43","","","","","","","","","","","","","","","",""
"","ISI","","html-keyboard-response","284","407293","0.0-1.0-390.0","0","0","30014","","null","","","null","43","NaN","","","","","","","","","","","","","","",""
"","S2","","html-keyboard-response","285","407552","0.0-1.0-391.0","0","0","30014","","null","","","null","43","","NaN","","","","","","","","","","","","","",""
"","response","","html-keyboard-response","286","408185","0.0-1.0-392.0-0.0","0","0","30014","","629","","","68","43","","","1","43","training","adjacent","CB","3","2","R.jpg","Q.jpg","1","0","0","",""
"","feedback","","html-keyboard-response","287","409190","0.0-1.0-393.0-0.0","0","0","30014","","null","","","null","43","","","","","","","","","","","","","","","",""
"","time_out","","html-keyboard-response","288","411198","0.0-1.0-395.0-0.0","0","0","30014","","null","","","null","43","","","","","","","","","","","","","","","",""
"","ITI","","html-keyboard-response","289","412204","0.0-1.0-396.0","0","0","30014","","null","","","null","43","","","","","","","","","","","","","","","NaN",""
"","S1","","html-keyboard-response","290","412468","0.0-1.0-398.0","0","0","30014","","null","","","null","44","","","","","","","","","","","","","","","",""
"","ISI","","html-keyboard-response","291","413482","0.0-1.0-399.0","0","0","30014","","null","","","null","44","NaN","","","","","","","","","","","","","","",""
"","S2","","html-keyboard-response","292","413745","0.0-1.0-400.0","0","0","30014","","null","","","null","44","","NaN","","","","","","","","","","","","","",""
"","response","","html-keyboard-response","293","414295","0.0-1.0-401.0-0.0","0","0","30014","","544","","","68","44","","","1","44","training","adjacent","DE","4","5","L.jpg","P.jpg","1","1","1","",""
"","feedback","","html-keyboard-response","294","415303","0.0-1.0-402.0-0.0","0","0","30014","","null","","","null","44","","","","","","","","","","","","","","","",""
"","ITI","","html-keyboard-response","295","416311","0.0-1.0-405.0","0","0","30014","","null","","","null","44","","","","","","","","","","","","","","","NaN",""
"","S1","","html-keyboard-response","296","416574","0.0-1.0-407.0","0","0","30014","","null","","","null","45","","","","","","","","","","","","","","","",""
"","ISI","","html-keyboard-response","297","417582","0.0-1.0-408.0","0","0","30014","","null","","","null","45","NaN","","","","","","","","","","","","","","",""
"","S2","","html-keyboard-response","298","417841","0.0-1.0-409.0","0","0","30014","","null","","","null","45","","NaN","","","","","","","","","","","","","",""
"","response","","html-keyboard-response","299","418406","0.0-1.0-410.0-0.0","0","0","30014","","560","","","75","45","","","1","45","training","adjacent","BA","2","1","Q.jpg","M.jpg","0","0","1","",""
"","feedback","","html-keyboard-response","300","419415","0.0-1.0-411.0-0.0","0","0","30014","","null","","","null","45","","","","","","","","","","","","","","","",""
"","ITI","","html-keyboard-response","301","420424","0.0-1.0-414.0","0","0","30014","","null","","","null","45","","","","","","","","","","","","","","","NaN",""
"","S1","","html-keyboard-response","302","420688","0.0-1.0-416.0","0","0","30014","","null","","","null","46","","","","","","","","","","","","","","","",""
"","ISI","","html-keyboard-response","303","421695","0.0-1.0-417.0","0","0","30014","","null","","","null","46","NaN","","","","","","","","","","","","","","",""
"","S2","","html-keyboard-response","304","421959","0.0-1.0-418.0","0","0","30014","","null","","","null","46","","NaN","","","","","","","","","","","","","",""
"","response","","html-keyboard-response","305","422395","0.0-1.0-419.0-0.0","0","0","30014","","431","","","68","46","","","1","46","training","adjacent","CD","3","4","R.jpg","L.jpg","1","1","1","",""
"","feedback","","html-keyboard-response","306","423404","0.0-1.0-420.0-0.0","0","0","30014","","null","","","null","46","","","","","","","","","","","","","","","",""
"","ITI","","html-keyboard-response","307","424416","0.0-1.0-423.0","0","0","30014","","null","","","null","46","","","","","","","","","","","","","","","NaN",""
"","S1","","html-keyboard-response","308","424679","0.0-1.0-425.0","0","0","30014","","null","","","null","47","","","","","","","","","","","","","","","",""
"","ISI","","html-keyboard-response","309","425691","0.0-1.0-426.0","0","0","30014","","null","","","null","47","NaN","","","","","","","","","","","","","","",""
"","S2","","html-keyboard-response","310","425954","0.0-1.0-427.0","0","0","30014","","null","","","null","47","","NaN","","","","","","","","","","","","","",""
"","response","","html-keyboard-response","311","426410","0.0-1.0-428.0-0.0","0","0","30014","","450","","","68","47","","","1","47","training","adjacent","FG","6","7","N.jpg","O.jpg","1","1","1","",""
"","feedback","","html-keyboard-response","312","427421","0.0-1.0-429.0-0.0","0","0","30014","","null","","","null","47","","","","","","","","","","","","","","","",""
"","ITI","","html-keyboard-response","313","428434","0.0-1.0-432.0","0","0","30014","","null","","","null","47","","","","","","","","","","","","","","","NaN",""
"","block_over","","html-keyboard-response","314","438824","0.0-1.0-433.0-0.0","0","0","30014","","10382","","","32","47","","","","","","","","","","","","","","","",""
"","S1","","html-keyboard-response","315","439089","0.0-1.0-434.0","0","0","30014","","null","","","null","48","","","","","","","","","","","","","","","",""
"","ISI","","html-keyboard-response","316","440101","0.0-1.0-435.0","0","0","30014","","null","","","null","48","NaN","","","","","","","","","","","","","","",""
"","S2","","html-keyboard-response","317","440363","0.0-1.0-436.0","0","0","30014","","null","","","null","48","","NaN","","","","","","","","","","","","","",""
"","response","","html-keyboard-response","318","440878","0.0-1.0-437.0-0.0","0","0","30014","","509","","","68","48","","","2","48","training","adjacent","CD","3","4","R.jpg","L.jpg","1","1","1","",""
"","feedback","","html-keyboard-response","319","441893","0.0-1.0-438.0-0.0","0","0","30014","","null","","","null","48","","","","","","","","","","","","","","","",""
"","ITI","","html-keyboard-response","320","442906","0.0-1.0-441.0","0","0","30014","","null","","","null","48","","","","","","","","","","","","","","","NaN",""
"","S1","","html-keyboard-response","321","443169","0.0-1.0-443.0","0","0","30014","","null","","","null","49","","","","","","","","","","","","","","","",""
"","ISI","","html-keyboard-response","322","444179","0.0-1.0-444.0","0","0","30014","","null","","","null","49","NaN","","","","","","","","","","","","","","",""
"","S2","","html-keyboard-response","323","444441","0.0-1.0-445.0","0","0","30014","","null","","","null","49","","NaN","","","","","","","","","","","","","",""
"","response","","html-keyboard-response","324","445007","0.0-1.0-446.0-0.0","0","0","30014","","558","","","68","49","","","2","49","training","adjacent","FG","6","7","N.jpg","O.jpg","1","1","1","",""
"","feedback","","html-keyboard-response","325","446022","0.0-1.0-447.0-0.0","0","0","30014","","null","","","null","49","","","","","","","","","","","","","","","",""
"","ITI","","html-keyboard-response","326","447036","0.0-1.0-450.0","0","0","30014","","null","","","null","49","","","","","","","","","","","","","","","NaN",""
"","S1","","html-keyboard-response","327","447300","0.0-1.0-452.0","0","0","30014","","null","","","null","50","","","","","","","","","","","","","","","",""
"","ISI","","html-keyboard-response","328","448313","0.0-1.0-453.0","0","0","30014","","null","","","null","50","NaN","","","","","","","","","","","","","","",""
"","S2","","html-keyboard-response","329","448574","0.0-1.0-454.0","0","0","30014","","null","","","null","50","","NaN","","","","","","","","","","","","","",""
"","response","","html-keyboard-response","330","449170","0.0-1.0-455.0-0.0","0","0","30014","","589","","","68","50","","","2","50","training","adjacent","ED","5","4","P.jpg","L.jpg","1","0","0","",""
"","feedback","","html-keyboard-response","331","450180","0.0-1.0-456.0-0.0","0","0","30014","","null","","","null","50","","","","","","","","","","","","","","","",""
"","time_out","","html-keyboard-response","332","452192","0.0-1.0-458.0-0.0","0","0","30014","","null","","","null","50","","","","","","","","","","","","","","","",""
"","ITI","","html-keyboard-response","333","453204","0.0-1.0-459.0","0","0","30014","","null","","","null","50","","","","","","","","","","","","","","","NaN",""
"","S1","","html-keyboard-response","334","453464","0.0-1.0-461.0","0","0","30014","","null","","","null","51","","","","","","","","","","","","","","","",""
"","ISI","","html-keyboard-response","335","454473","0.0-1.0-462.0","0","0","30014","","null","","","null","51","NaN","","","","","","","","","","","","","","",""
"","S2","","html-keyboard-response","336","454736","0.0-1.0-463.0","0","0","30014","","null","","","null","51","","NaN","","","","","","","","","","","","","",""
"","response","","html-keyboard-response","337","455193","0.0-1.0-464.0-0.0","0","0","30014","","449","","","68","51","","","2","51","training","adjacent","DE","4","5","L.jpg","P.jpg","1","1","1","",""
"","feedback","","html-keyboard-response","338","456202","0.0-1.0-465.0-0.0","0","0","30014","","null","","","null","51","","","","","","","","","","","","","","","",""
"","ITI","","html-keyboard-response","339","457209","0.0-1.0-468.0","0","0","30014","","null","","","null","51","","","","","","","","","","","","","","","NaN",""
"","S1","","html-keyboard-response","340","457472","0.0-1.0-470.0","0","0","30014","","null","","","null","52","","","","","","","","","","","","","","","",""
"","ISI","","html-keyboard-response","341","458480","0.0-1.0-471.0","0","0","30014","","null","","","null","52","NaN","","","","","","","","","","","","","","",""
"","S2","","html-keyboard-response","342","458737","0.0-1.0-472.0","0","0","30014","","null","","","null","52","","NaN","","","","","","","","","","","","","",""
"","response","","html-keyboard-response","343","459098","0.0-1.0-473.0-0.0","0","0","30014","","355","","","68","52","","","2","52","training","adjacent","FE","6","5","N.jpg","P.jpg","1","0","0","",""
"","feedback","","html-keyboard-response","344","460105","0.0-1.0-474.0-0.0","0","0","30014","","null","","","null","52","","","","","","","","","","","","","","","",""
"","time_out","","html-keyboard-response","345","462112","0.0-1.0-476.0-0.0","0","0","30014","","null","","","null","52","","","","","","","","","","","","","","","",""
"","ITI","","html-keyboard-response","346","463120","0.0-1.0-477.0","0","0","30014","","null","","","null","52","","","","","","","","","","","","","","","NaN",""
"","S1","","html-keyboard-response","347","463383","0.0-1.0-479.0","0","0","30014","","null","","","null","53","","","","","","","","","","","","","","","",""
"","ISI","","html-keyboard-response","348","464395","0.0-1.0-480.0","0","0","30014","","null","","","null","53","NaN","","","","","","","","","","","","","","",""
"","S2","","html-keyboard-response","349","464657","0.0-1.0-481.0","0","0","30014","","null","","","null","53","","NaN","","","","","","","","","","","","","",""
"","response","","html-keyboard-response","350","465076","0.0-1.0-482.0-0.0","0","0","30014","","410","","","68","53","","","2","53","training","adjacent","DE","4","5","L.jpg","P.jpg","1","1","1","",""
"","feedback","","html-keyboard-response","351","466094","0.0-1.0-483.0-0.0","0","0","30014","","null","","","null","53","","","","","","","","","","","","","","","",""
"","ITI","","html-keyboard-response","352","467107","0.0-1.0-486.0","0","0","30014","","null","","","null","53","","","","","","","","","","","","","","","NaN",""
"","S1","","html-keyboard-response","353","467371","0.0-1.0-488.0","0","0","30014","","null","","","null","54","","","","","","","","","","","","","","","",""
"","ISI","","html-keyboard-response","354","468383","0.0-1.0-489.0","0","0","30014","","null","","","null","54","NaN","","","","","","","","","","","","","","",""
"","S2","","html-keyboard-response","355","468646","0.0-1.0-490.0","0","0","30014","","null","","","null","54","","NaN","","","","","","","","","","","","","",""
"","response","","html-keyboard-response","356","469139","0.0-1.0-491.0-0.0","0","0","30014","","486","","","68","54","","","2","54","training","adjacent","CB","3","2","R.jpg","Q.jpg","1","0","0","",""
"","feedback","","html-keyboard-response","357","470147","0.0-1.0-492.0-0.0","0","0","30014","","null","","","null","54","","","","","","","","","","","","","","","",""
"","time_out","","html-keyboard-response","358","472160","0.0-1.0-494.0-0.0","0","0","30014","","null","","","null","54","","","","","","","","","","","","","","","",""
"","ITI","","html-keyboard-response","359","473168","0.0-1.0-495.0","0","0","30014","","null","","","null","54","","","","","","","","","","","","","","","NaN",""
"","S1","","html-keyboard-response","360","473431","0.0-1.0-497.0","0","0","30014","","null","","","null","55","","","","","","","","","","","","","","","",""
"","ISI","","html-keyboard-response","361","474440","0.0-1.0-498.0","0","0","30014","","null","","","null","55","NaN","","","","","","","","","","","","","","",""
"","S2","","html-keyboard-response","362","474703","0.0-1.0-499.0","0","0","30014","","null","","","null","55","","NaN","","","","","","","","","","","","","",""
"","response","","html-keyboard-response","363","475298","0.0-1.0-500.0-0.0","0","0","30014","","588","","","75","55","","","2","55","training","adjacent","BA","2","1","Q.jpg","M.jpg","0","0","1","",""
"","feedback","","html-keyboard-response","364","476308","0.0-1.0-501.0-0.0","0","0","30014","","null","","","null","55","","","","","","","","","","","","","","","",""
"","ITI","","html-keyboard-response","365","477317","0.0-1.0-504.0","0","0","30014","","null","","","null","55","","","","","","","","","","","","","","","NaN",""
"","S1","","html-keyboard-response","366","477580","0.0-1.0-506.0","0","0","30014","","null","","","null","56","","","","","","","","","","","","","","","",""
"","ISI","","html-keyboard-response","367","478586","0.0-1.0-507.0","0","0","30014","","null","","","null","56","NaN","","","","","","","","","","","","","","",""
"","S2","","html-keyboard-response","368","478847","0.0-1.0-508.0","0","0","30014","","null","","","null","56","","NaN","","","","","","","","","","","","","",""
"","response","","html-keyboard-response","369","479585","0.0-1.0-509.0-0.0","0","0","30014","","732","","","75","56","","","2","56","training","adjacent","ED","5","4","P.jpg","L.jpg","0","0","1","",""
"","feedback","","html-keyboard-response","370","480596","0.0-1.0-510.0-0.0","0","0","30014","","null","","","null","56","","","","","","","","","","","","","","","",""
"","ITI","","html-keyboard-response","371","481610","0.0-1.0-513.0","0","0","30014","","null","","","null","56","","","","","","","","","","","","","","","NaN",""
"","S1","","html-keyboard-response","372","481874","0.0-1.0-515.0","0","0","30014","","null","","","null","57","","","","","","","","","","","","","","","",""
"","ISI","","html-keyboard-response","373","482882","0.0-1.0-516.0","0","0","30014","","null","","","null","57","NaN","","","","","","","","","","","","","","",""
"","S2","","html-keyboard-response","374","483144","0.0-1.0-517.0","0","0","30014","","null","","","null","57","","NaN","","","","","","","","","","","","","",""
"","response","","html-keyboard-response","375","483868","0.0-1.0-518.0-0.0","0","0","30014","","718","","","68","57","","","2","57","training","adjacent","CD","3","4","R.jpg","L.jpg","1","1","1","",""
"","feedback","","html-keyboard-response","376","484879","0.0-1.0-519.0-0.0","0","0","30014","","null","","","null","57","","","","","","","","","","","","","","","",""
"","ITI","","html-keyboard-response","377","485895","0.0-1.0-522.0","0","0","30014","","null","","","null","57","","","","","","","","","","","","","","","NaN",""
"","S1","","html-keyboard-response","378","486159","0.0-1.0-524.0","0","0","30014","","null","","","null","58","","","","","","","","","","","","","","","",""
"","ISI","","html-keyboard-response","379","487180","0.0-1.0-525.0","0","0","30014","","null","","","null","58","NaN","","","","","","","","","","","","","","",""
"","S2","","html-keyboard-response","380","487443","0.0-1.0-526.0","0","0","30014","","null","","","null","58","","NaN","","","","","","","","","","","","","",""
"","response","","html-keyboard-response","381","487794","0.0-1.0-527.0-0.0","0","0","30014","","344","","","68","58","","","2","58","training","adjacent","AB","1","2","M.jpg","Q.jpg","1","1","1","",""
"","feedback","","html-keyboard-response","382","488817","0.0-1.0-528.0-0.0","0","0","30014","","null","","","null","58","","","","","","","","","","","","","","","",""
"","ITI","","html-keyboard-response","383","489831","0.0-1.0-531.0","0","0","30014","","null","","","null","58","","","","","","","","","","","","","","","NaN",""
"","S1","","html-keyboard-response","384","490094","0.0-1.0-533.0","0","0","30014","","null","","","null","59","","","","","","","","","","","","","","","",""
"","ISI","","html-keyboard-response","385","491108","0.0-1.0-534.0","0","0","30014","","null","","","null","59","NaN","","","","","","","","","","","","","","",""
"","S2","","html-keyboard-response","386","491371","0.0-1.0-535.0","0","0","30014","","null","","","null","59","","NaN","","","","","","","","","","","","","",""
"","response","","html-keyboard-response","387","491773","0.0-1.0-536.0-0.0","0","0","30014","","395","","","68","59","","","2","59","training","adjacent","EF","5","6","P.jpg","N.jpg","1","1","1","",""
"","feedback","","html-keyboard-response","388","492785","0.0-1.0-537.0-0.0","0","0","30014","","null","","","null","59","","","","","","","","","","","","","","","",""
"","ITI","","html-keyboard-response","389","493796","0.0-1.0-540.0","0","0","30014","","null","","","null","59","","","","","","","","","","","","","","","NaN",""
"","S1","","html-keyboard-response","390","494058","0.0-1.0-542.0","0","0","30014","","null","","","null","60","","","","","","","","","","","","","","","",""
"","ISI","","html-keyboard-response","391","495074","0.0-1.0-543.0","0","0","30014","","null","","","null","60","NaN","","","","","","","","","","","","","","",""
"","S2","","html-keyboard-response","392","495336","0.0-1.0-544.0","0","0","30014","","null","","","null","60","","NaN","","","","","","","","","","","","","",""
"","response","","html-keyboard-response","393","496008","0.0-1.0-545.0-0.0","0","0","30014","","665","","","68","60","","","2","60","training","adjacent","GF","7","6","O.jpg","N.jpg","1","0","0","",""
"","feedback","","html-keyboard-response","394","497024","0.0-1.0-546.0-0.0","0","0","30014","","null","","","null","60","","","","","","","","","","","","","","","",""
"","time_out","","html-keyboard-response","395","499032","0.0-1.0-548.0-0.0","0","0","30014","","null","","","null","60","","","","","","","","","","","","","","","",""
"","ITI","","html-keyboard-response","396","500041","0.0-1.0-549.0","0","0","30014","","null","","","null","60","","","","","","","","","","","","","","","NaN",""
"","S1","","html-keyboard-response","397","500304","0.0-1.0-551.0","0","0","30014","","null","","","null","61","","","","","","","","","","","","","","","",""
"","ISI","","html-keyboard-response","398","501318","0.0-1.0-552.0","0","0","30014","","null","","","null","61","NaN","","","","","","","","","","","","","","",""
"","S2","","html-keyboard-response","399","501579","0.0-1.0-553.0","0","0","30014","","null","","","null","61","","NaN","","","","","","","","","","","","","",""
"","response","","html-keyboard-response","400","501971","0.0-1.0-554.0-0.0","0","0","30014","","386","","","75","61","","","2","61","training","adjacent","ED","5","4","P.jpg","L.jpg","0","0","1","",""
"","feedback","","html-keyboard-response","401","502989","0.0-1.0-555.0-0.0","0","0","30014","","null","","","null","61","","","","","","","","","","","","","","","",""
"","ITI","","html-keyboard-response","402","504004","0.0-1.0-558.0","0","0","30014","","null","","","null","61","","","","","","","","","","","","","","","NaN",""
"","S1","","html-keyboard-response","403","504266","0.0-1.0-560.0","0","0","30014","","null","","","null","62","","","","","","","","","","","","","","","",""
"","ISI","","html-keyboard-response","404","505277","0.0-1.0-561.0","0","0","30014","","null","","","null","62","NaN","","","","","","","","","","","","","","",""
"","S2","","html-keyboard-response","405","505540","0.0-1.0-562.0","0","0","30014","","null","","","null","62","","NaN","","","","","","","","","","","","","",""
"","response","","html-keyboard-response","406","505831","0.0-1.0-563.0-0.0","0","0","30014","","284","","","68","62","","","2","62","training","adjacent","CB","3","2","R.jpg","Q.jpg","1","0","0","",""
"","feedback","","html-keyboard-response","407","506848","0.0-1.0-564.0-0.0","0","0","30014","","null","","","null","62","","","","","","","","","","","","","","","",""
"","time_out","","html-keyboard-response","408","508859","0.0-1.0-566.0-0.0","0","0","30014","","null","","","null","62","","","","","","","","","","","","","","","",""
"","ITI","","html-keyboard-response","409","509875","0.0-1.0-567.0","0","0","30014","","null","","","null","62","","","","","","","","","","","","","","","NaN",""
"","S1","","html-keyboard-response","410","510134","0.0-1.0-569.0","0","0","30014","","null","","","null","63","","","","","","","","","","","","","","","",""
"","ISI","","html-keyboard-response","411","511143","0.0-1.0-570.0","0","0","30014","","null","","","null","63","NaN","","","","","","","","","","","","","","",""
"","S2","","html-keyboard-response","412","511408","0.0-1.0-571.0","0","0","30014","","null","","","null","63","","NaN","","","","","","","","","","","","","",""
"","response","","html-keyboard-response","413","512113","0.0-1.0-572.0-0.0","0","0","30014","","699","","","75","63","","","2","63","training","adjacent","DC","4","3","L.jpg","R.jpg","0","0","1","",""
"","feedback","","html-keyboard-response","414","513131","0.0-1.0-573.0-0.0","0","0","30014","","null","","","null","63","","","","","","","","","","","","","","","",""
"","ITI","","html-keyboard-response","415","514139","0.0-1.0-576.0","0","0","30014","","null","","","null","63","","","","","","","","","","","","","","","NaN",""
"","S1","","html-keyboard-response","416","514403","0.0-1.0-578.0","0","0","30014","","null","","","null","64","","","","","","","","","","","","","","","",""
"","ISI","","html-keyboard-response","417","515411","0.0-1.0-579.0","0","0","30014","","null","","","null","64","NaN","","","","","","","","","","","","","","",""
"","S2","","html-keyboard-response","418","515673","0.0-1.0-580.0","0","0","30014","","null","","","null","64","","NaN","","","","","","","","","","","","","",""
"","response","","html-keyboard-response","419","516287","0.0-1.0-581.0-0.0","0","0","30014","","608","","","68","64","","","2","64","training","adjacent","BC","2","3","Q.jpg","R.jpg","1","1","1","",""
"","feedback","","html-keyboard-response","420","517297","0.0-1.0-582.0-0.0","0","0","30014","","null","","","null","64","","","","","","","","","","","","","","","",""
"","ITI","","html-keyboard-response","421","518311","0.0-1.0-585.0","0","0","30014","","null","","","null","64","","","","","","","","","","","","","","","NaN",""
"","S1","","html-keyboard-response","422","518573","0.0-1.0-587.0","0","0","30014","","null","","","null","65","","","","","","","","","","","","","","","",""
"","ISI","","html-keyboard-response","423","519586","0.0-1.0-588.0","0","0","30014","","null","","","null","65","NaN","","","","","","","","","","","","","","",""
"","S2","","html-keyboard-response","424","519848","0.0-1.0-589.0","0","0","30014","","null","","","null","65","","NaN","","","","","","","","","","","","","",""
"","response","","html-keyboard-response","425","520382","0.0-1.0-590.0-0.0","0","0","30014","","528","","","68","65","","","2","65","training","adjacent","BC","2","3","Q.jpg","R.jpg","1","1","1","",""
"","feedback","","html-keyboard-response","426","521397","0.0-1.0-591.0-0.0","0","0","30014","","null","","","null","65","","","","","","","","","","","","","","","",""
"","ITI","","html-keyboard-response","427","522412","0.0-1.0-594.0","0","0","30014","","null","","","null","65","","","","","","","","","","","","","","","NaN",""
"","S1","","html-keyboard-response","428","522674","0.0-1.0-596.0","0","0","30014","","null","","","null","66","","","","","","","","","","","","","","","",""
"","ISI","","html-keyboard-response","429","523688","0.0-1.0-597.0","0","0","30014","","null","","","null","66","NaN","","","","","","","","","","","","","","",""
"","S2","","html-keyboard-response","430","523951","0.0-1.0-598.0","0","0","30014","","null","","","null","66","","NaN","","","","","","","","","","","","","",""
"","response","","html-keyboard-response","431","524295","0.0-1.0-599.0-0.0","0","0","30014","","337","","","75","66","","","2","66","training","adjacent","GF","7","6","O.jpg","N.jpg","0","0","1","",""
"","feedback","","html-keyboard-response","432","525310","0.0-1.0-600.0-0.0","0","0","30014","","null","","","null","66","","","","","","","","","","","","","","","",""
"","ITI","","html-keyboard-response","433","526324","0.0-1.0-603.0","0","0","30014","","null","","","null","66","","","","","","","","","","","","","","","NaN",""
"","S1","","html-keyboard-response","434","526587","0.0-1.0-605.0","0","0","30014","","null","","","null","67","","","","","","","","","","","","","","","",""
"","ISI","","html-keyboard-response","435","527600","0.0-1.0-606.0","0","0","30014","","null","","","null","67","NaN","","","","","","","","","","","","","","",""
"","S2","","html-keyboard-response","436","527857","0.0-1.0-607.0","0","0","30014","","null","","","null","67","","NaN","","","","","","","","","","","","","",""
"","response","","html-keyboard-response","437","528527","0.0-1.0-608.0-0.0","0","0","30014","","664","","","68","67","","","2","67","training","adjacent","AB","1","2","M.jpg","Q.jpg","1","1","1","",""
"","feedback","","html-keyboard-response","438","529543","0.0-1.0-609.0-0.0","0","0","30014","","null","","","null","67","","","","","","","","","","","","","","","",""
"","ITI","","html-keyboard-response","439","530550","0.0-1.0-612.0","0","0","30014","","null","","","null","67","","","","","","","","","","","","","","","NaN",""
"","S1","","html-keyboard-response","440","530814","0.0-1.0-614.0","0","0","30014","","null","","","null","68","","","","","","","","","","","","","","","",""
"","ISI","","html-keyboard-response","441","531830","0.0-1.0-615.0","0","0","30014","","null","","","null","68","NaN","","","","","","","","","","","","","","",""
"","S2","","html-keyboard-response","442","532093","0.0-1.0-616.0","0","0","30014","","null","","","null","68","","NaN","","","","","","","","","","","","","",""
"","response","","html-keyboard-response","443","532793","0.0-1.0-617.0-0.0","0","0","30014","","694","","","68","68","","","2","68","training","adjacent","DC","4","3","L.jpg","R.jpg","1","0","0","",""
"","feedback","","html-keyboard-response","444","533808","0.0-1.0-618.0-0.0","0","0","30014","","null","","","null","68","","","","","","","","","","","","","","","",""
"","time_out","","html-keyboard-response","445","535818","0.0-1.0-620.0-0.0","0","0","30014","","null","","","null","68","","","","","","","","","","","","","","","",""
"","ITI","","html-keyboard-response","446","536830","0.0-1.0-621.0","0","0","30014","","null","","","null","68","","","","","","","","","","","","","","","NaN",""
"","S1","","html-keyboard-response","447","537100","0.0-1.0-623.0","0","0","30014","","null","","","null","69","","","","","","","","","","","","","","","",""
"","ISI","","html-keyboard-response","448","538106","0.0-1.0-624.0","0","0","30014","","null","","","null","69","NaN","","","","","","","","","","","","","","",""
"","S2","","html-keyboard-response","449","538369","0.0-1.0-625.0","0","0","30014","","null","","","null","69","","NaN","","","","","","","","","","","","","",""
"","response","","html-keyboard-response","450","538965","0.0-1.0-626.0-0.0","0","0","30014","","589","","","68","69","","","2","69","training","adjacent","FE","6","5","N.jpg","P.jpg","1","0","0","",""
"","feedback","","html-keyboard-response","451","539977","0.0-1.0-627.0-0.0","0","0","30014","","null","","","null","69","","","","","","","","","","","","","","","",""
"","time_out","","html-keyboard-response","452","541987","0.0-1.0-629.0-0.0","0","0","30014","","null","","","null","69","","","","","","","","","","","","","","","",""
"","ITI","","html-keyboard-response","453","543004","0.0-1.0-630.0","0","0","30014","","null","","","null","69","","","","","","","","","","","","","","","NaN",""
"","S1","","html-keyboard-response","454","543264","0.0-1.0-632.0","0","0","30014","","null","","","null","70","","","","","","","","","","","","","","","",""
"","ISI","","html-keyboard-response","455","544278","0.0-1.0-633.0","0","0","30014","","null","","","null","70","NaN","","","","","","","","","","","","","","",""
"","S2","","html-keyboard-response","456","544540","0.0-1.0-634.0","0","0","30014","","null","","","null","70","","NaN","","","","","","","","","","","","","",""
"","response","","html-keyboard-response","457","545138","0.0-1.0-635.0-0.0","0","0","30014","","590","","","68","70","","","2","70","training","adjacent","EF","5","6","P.jpg","N.jpg","1","1","1","",""
"","feedback","","html-keyboard-response","458","546150","0.0-1.0-636.0-0.0","0","0","30014","","null","","","null","70","","","","","","","","","","","","","","","",""
"","ITI","","html-keyboard-response","459","547166","0.0-1.0-639.0","0","0","30014","","null","","","null","70","","","","","","","","","","","","","","","NaN",""
"","S1","","html-keyboard-response","460","547428","0.0-1.0-641.0","0","0","30014","","null","","","null","71","","","","","","","","","","","","","","","",""
"","ISI","","html-keyboard-response","461","548441","0.0-1.0-642.0","0","0","30014","","null","","","null","71","NaN","","","","","","","","","","","","","","",""
"","S2","","html-keyboard-response","462","548700","0.0-1.0-643.0","0","0","30014","","null","","","null","71","","NaN","","","","","","","","","","","","","",""
"","response","","html-keyboard-response","463","549237","0.0-1.0-644.0-0.0","0","0","30014","","531","","","68","71","","","2","71","training","adjacent","GF","7","6","O.jpg","N.jpg","1","0","0","",""
"","feedback","","html-keyboard-response","464","550245","0.0-1.0-645.0-0.0","0","0","30014","","null","","","null","71","","","","","","","","","","","","","","","",""
"","time_out","","html-keyboard-response","465","552255","0.0-1.0-647.0-0.0","0","0","30014","","null","","","null","71","","","","","","","","","","","","","","","",""
"","ITI","","html-keyboard-response","466","553262","0.0-1.0-648.0","0","0","30014","","null","","","null","71","","","","","","","","","","","","","","","NaN",""
"","S1","","html-keyboard-response","467","553526","0.0-1.0-650.0","0","0","30014","","null","","","null","72","","","","","","","","","","","","","","","",""
"","ISI","","html-keyboard-response","468","554535","0.0-1.0-651.0","0","0","30014","","null","","","null","72","NaN","","","","","","","","","","","","","","",""
"","S2","","html-keyboard-response","469","554798","0.0-1.0-652.0","0","0","30014","","null","","","null","72","","NaN","","","","","","","","","","","","","",""
"","response","","html-keyboard-response","470","555860","0.0-1.0-653.0-0.0","0","0","30014","","1055","","","68","72","","","2","72","training","adjacent","FG","6","7","N.jpg","O.jpg","1","1","1","",""
"","feedback","","html-keyboard-response","471","556873","0.0-1.0-654.0-0.0","0","0","30014","","null","","","null","72","","","","","","","","","","","","","","","",""
"","ITI","","html-keyboard-response","472","557884","0.0-1.0-657.0","0","0","30014","","null","","","null","72","","","","","","","","","","","","","","","NaN",""
"","S1","","html-keyboard-response","473","558147","0.0-1.0-659.0","0","0","30014","","null","","","null","73","","","","","","","","","","","","","","","",""
"","ISI","","html-keyboard-response","474","559170","0.0-1.0-660.0","0","0","30014","","null","","","null","73","NaN","","","","","","","","","","","","","","",""
"","S2","","html-keyboard-response","475","559432","0.0-1.0-661.0","0","0","30014","","null","","","null","73","","NaN","","","","","","","","","","","","","",""
"","response","","html-keyboard-response","476","559869","0.0-1.0-662.0-0.0","0","0","30014","","432","","","75","73","","","2","73","training","adjacent","CB","3","2","R.jpg","Q.jpg","0","0","1","",""
"","feedback","","html-keyboard-response","477","560882","0.0-1.0-663.0-0.0","0","0","30014","","null","","","null","73","","","","","","","","","","","","","","","",""
"","ITI","","html-keyboard-response","478","561893","0.0-1.0-666.0","0","0","30014","","null","","","null","73","","","","","","","","","","","","","","","NaN",""
"","S1","","html-keyboard-response","479","562156","0.0-1.0-668.0","0","0","30014","","null","","","null","74","","","","","","","","","","","","","","","",""
"","ISI","","html-keyboard-response","480","563169","0.0-1.0-669.0","0","0","30014","","null","","","null","74","NaN","","","","","","","","","","","","","","",""
"","S2","","html-keyboard-response","481","563431","0.0-1.0-670.0","0","0","30014","","null","","","null","74","","NaN","","","","","","","","","","","","","",""
"","response","","html-keyboard-response","482","564106","0.0-1.0-671.0-0.0","0","0","30014","","668","","","68","74","","","2","74","training","adjacent","FG","6","7","N.jpg","O.jpg","1","1","1","",""
"","feedback","","html-keyboard-response","483","565127","0.0-1.0-672.0-0.0","0","0","30014","","null","","","null","74","","","","","","","","","","","","","","","",""
"","ITI","","html-keyboard-response","484","566139","0.0-1.0-675.0","0","0","30014","","null","","","null","74","","","","","","","","","","","","","","","NaN",""
"","S1","","html-keyboard-response","485","566401","0.0-1.0-677.0","0","0","30014","","null","","","null","75","","","","","","","","","","","","","","","",""
"","ISI","","html-keyboard-response","486","567410","0.0-1.0-678.0","0","0","30014","","null","","","null","75","NaN","","","","","","","","","","","","","","",""
"","S2","","html-keyboard-response","487","567673","0.0-1.0-679.0","0","0","30014","","null","","","null","75","","NaN","","","","","","","","","","","","","",""
"","response","","html-keyboard-response","488","568007","0.0-1.0-680.0-0.0","0","0","30014","","327","","","68","75","","","2","75","training","adjacent","AB","1","2","M.jpg","Q.jpg","1","1","1","",""
"","feedback","","html-keyboard-response","489","569017","0.0-1.0-681.0-0.0","0","0","30014","","null","","","null","75","","","","","","","","","","","","","","","",""
"","ITI","","html-keyboard-response","490","570031","0.0-1.0-684.0","0","0","30014","","null","","","null","75","","","","","","","","","","","","","","","NaN",""
"","S1","","html-keyboard-response","491","570292","0.0-1.0-686.0","0","0","30014","","null","","","null","76","","","","","","","","","","","","","","","",""
"","ISI","","html-keyboard-response","492","571309","0.0-1.0-687.0","0","0","30014","","null","","","null","76","NaN","","","","","","","","","","","","","","",""
"","S2","","html-keyboard-response","493","571571","0.0-1.0-688.0","0","0","30014","","null","","","null","76","","NaN","","","","","","","","","","","","","",""
"","response","","html-keyboard-response","494","572244","0.0-1.0-689.0-0.0","0","0","30014","","668","","","75","76","","","2","76","training","adjacent","BA","2","1","Q.jpg","M.jpg","0","0","1","",""
"","feedback","","html-keyboard-response","495","573250","0.0-1.0-690.0-0.0","0","0","30014","","null","","","null","76","","","","","","","","","","","","","","","",""
"","ITI","","html-keyboard-response","496","574258","0.0-1.0-693.0","0","0","30014","","null","","","null","76","","","","","","","","","","","","","","","NaN",""
"","S1","","html-keyboard-response","497","574521","0.0-1.0-695.0","0","0","30014","","null","","","null","77","","","","","","","","","","","","","","","",""
"","ISI","","html-keyboard-response","498","575528","0.0-1.0-696.0","0","0","30014","","null","","","null","77","NaN","","","","","","","","","","","","","","",""
"","S2","","html-keyboard-response","499","575789","0.0-1.0-697.0","0","0","30014","","null","","","null","77","","NaN","","","","","","","","","","","","","",""
"","response","","html-keyboard-response","500","576102","0.0-1.0-698.0-0.0","0","0","30014","","306","","","68","77","","","2","77","training","adjacent","AB","1","2","M.jpg","Q.jpg","1","1","1","",""
"","feedback","","html-keyboard-response","501","577123","0.0-1.0-699.0-0.0","0","0","30014","","null","","","null","77","","","","","","","","","","","","","","","",""
"","ITI","","html-keyboard-response","502","578132","0.0-1.0-702.0","0","0","30014","","null","","","null","77","","","","","","","","","","","","","","","NaN",""
"","S1","","html-keyboard-response","503","578395","0.0-1.0-704.0","0","0","30014","","null","","","null","78","","","","","","","","","","","","","","","",""
"","ISI","","html-keyboard-response","504","579404","0.0-1.0-705.0","0","0","30014","","null","","","null","78","NaN","","","","","","","","","","","","","","",""
"","S2","","html-keyboard-response","505","579668","0.0-1.0-706.0","0","0","30014","","null","","","null","78","","NaN","","","","","","","","","","","","","",""
"","response","","html-keyboard-response","506","580188","0.0-1.0-707.0-0.0","0","0","30014","","513","","","68","78","","","2","78","training","adjacent","CD","3","4","R.jpg","L.jpg","1","1","1","",""
"","feedback","","html-keyboard-response","507","581211","0.0-1.0-708.0-0.0","0","0","30014","","null","","","null","78","","","","","","","","","","","","","","","",""
"","ITI","","html-keyboard-response","508","582222","0.0-1.0-711.0","0","0","30014","","null","","","null","78","","","","","","","","","","","","","","","NaN",""
"","S1","","html-keyboard-response","509","582483","0.0-1.0-713.0","0","0","30014","","null","","","null","79","","","","","","","","","","","","","","","",""
"","ISI","","html-keyboard-response","510","583489","0.0-1.0-714.0","0","0","30014","","null","","","null","79","NaN","","","","","","","","","","","","","","",""
"","S2","","html-keyboard-response","511","583745","0.0-1.0-715.0","0","0","30014","","null","","","null","79","","NaN","","","","","","","","","","","","","",""
"","response","","html-keyboard-response","512","584530","0.0-1.0-716.0-0.0","0","0","30014","","780","","","68","79","","","2","79","training","adjacent","EF","5","6","P.jpg","N.jpg","1","1","1","",""
"","feedback","","html-keyboard-response","513","585540","0.0-1.0-717.0-0.0","0","0","30014","","null","","","null","79","","","","","","","","","","","","","","","",""
"","ITI","","html-keyboard-response","514","586554","0.0-1.0-720.0","0","0","30014","","null","","","null","79","","","","","","","","","","","","","","","NaN",""
"","S1","","html-keyboard-response","515","586816","0.0-1.0-722.0","0","0","30014","","null","","","null","80","","","","","","","","","","","","","","","",""
"","ISI","","html-keyboard-response","516","587824","0.0-1.0-723.0","0","0","30014","","null","","","null","80","NaN","","","","","","","","","","","","","","",""
"","S2","","html-keyboard-response","517","588088","0.0-1.0-724.0","0","0","30014","","null","","","null","80","","NaN","","","","","","","","","","","","","",""
"","response","","html-keyboard-response","518","588398","0.0-1.0-725.0-0.0","0","0","30014","","303","","","68","80","","","2","80","training","adjacent","FE","6","5","N.jpg","P.jpg","1","0","0","",""
"","feedback","","html-keyboard-response","519","589409","0.0-1.0-726.0-0.0","0","0","30014","","null","","","null","80","","","","","","","","","","","","","","","",""
"","time_out","","html-keyboard-response","520","591420","0.0-1.0-728.0-0.0","0","0","30014","","null","","","null","80","","","","","","","","","","","","","","","",""
"","ITI","","html-keyboard-response","521","592430","0.0-1.0-729.0","0","0","30014","","null","","","null","80","","","","","","","","","","","","","","","NaN",""
"","S1","","html-keyboard-response","522","592692","0.0-1.0-731.0","0","0","30014","","null","","","null","81","","","","","","","","","","","","","","","",""
"","ISI","","html-keyboard-response","523","593704","0.0-1.0-732.0","0","0","30014","","null","","","null","81","NaN","","","","","","","","","","","","","","",""
"","S2","","html-keyboard-response","524","593966","0.0-1.0-733.0","0","0","30014","","null","","","null","81","","NaN","","","","","","","","","","","","","",""
"","response","","html-keyboard-response","525","594470","0.0-1.0-734.0-0.0","0","0","30014","","499","","","75","81","","","2","81","training","adjacent","DC","4","3","L.jpg","R.jpg","0","0","1","",""
"","feedback","","html-keyboard-response","526","595485","0.0-1.0-735.0-0.0","0","0","30014","","null","","","null","81","","","","","","","","","","","","","","","",""
"","ITI","","html-keyboard-response","527","596494","0.0-1.0-738.0","0","0","30014","","null","","","null","81","","","","","","","","","","","","","","","NaN",""
"","S1","","html-keyboard-response","528","596760","0.0-1.0-740.0","0","0","30014","","null","","","null","82","","","","","","","","","","","","","","","",""
"","ISI","","html-keyboard-response","529","597767","0.0-1.0-741.0","0","0","30014","","null","","","null","82","NaN","","","","","","","","","","","","","","",""
"","S2","","html-keyboard-response","530","598027","0.0-1.0-742.0","0","0","30014","","null","","","null","82","","NaN","","","","","","","","","","","","","",""
"","response","","html-keyboard-response","531","598350","0.0-1.0-743.0-0.0","0","0","30014","","317","","","68","82","","","2","82","training","adjacent","ED","5","4","P.jpg","L.jpg","1","0","0","",""
"","feedback","","html-keyboard-response","532","599369","0.0-1.0-744.0-0.0","0","0","30014","","null","","","null","82","","","","","","","","","","","","","","","",""
"","time_out","","html-keyboard-response","533","601384","0.0-1.0-746.0-0.0","0","0","30014","","null","","","null","82","","","","","","","","","","","","","","","",""
"","ITI","","html-keyboard-response","534","602402","0.0-1.0-747.0","0","0","30014","","null","","","null","82","","","","","","","","","","","","","","","NaN",""
"","S1","","html-keyboard-response","535","602663","0.0-1.0-749.0","0","0","30014","","null","","","null","83","","","","","","","","","","","","","","","",""
"","ISI","","html-keyboard-response","536","603677","0.0-1.0-750.0","0","0","30014","","null","","","null","83","NaN","","","","","","","","","","","","","","",""
"","S2","","html-keyboard-response","537","603940","0.0-1.0-751.0","0","0","30014","","null","","","null","83","","NaN","","","","","","","","","","","","","",""
"","response","","html-keyboard-response","538","604583","0.0-1.0-752.0-0.0","0","0","30014","","636","","","75","83","","","2","83","training","adjacent","CD","3","4","R.jpg","L.jpg","0","1","0","",""
"","feedback","","html-keyboard-response","539","605598","0.0-1.0-753.0-0.0","0","0","30014","","null","","","null","83","","","","","","","","","","","","","","","",""
"","time_out","","html-keyboard-response","540","607609","0.0-1.0-755.0-0.0","0","0","30014","","null","","","null","83","","","","","","","","","","","","","","","",""
"","ITI","","html-keyboard-response","541","608619","0.0-1.0-756.0","0","0","30014","","null","","","null","83","","","","","","","","","","","","","","","NaN",""
"","S1","","html-keyboard-response","542","608882","0.0-1.0-758.0","0","0","30014","","null","","","null","84","","","","","","","","","","","","","","","",""
"","ISI","","html-keyboard-response","543","609893","0.0-1.0-759.0","0","0","30014","","null","","","null","84","NaN","","","","","","","","","","","","","","",""
"","S2","","html-keyboard-response","544","610154","0.0-1.0-760.0","0","0","30014","","null","","","null","84","","NaN","","","","","","","","","","","","","",""
"","response","","html-keyboard-response","545","610709","0.0-1.0-761.0-0.0","0","0","30014","","548","","","68","84","","","2","84","training","adjacent","DE","4","5","L.jpg","P.jpg","1","1","1","",""
"","feedback","","html-keyboard-response","546","611726","0.0-1.0-762.0-0.0","0","0","30014","","null","","","null","84","","","","","","","","","","","","","","","",""
"","ITI","","html-keyboard-response","547","612740","0.0-1.0-765.0","0","0","30014","","null","","","null","84","","","","","","","","","","","","","","","NaN",""
"","S1","","html-keyboard-response","548","613002","0.0-1.0-767.0","0","0","30014","","null","","","null","85","","","","","","","","","","","","","","","",""
"","ISI","","html-keyboard-response","549","614009","0.0-1.0-768.0","0","0","30014","","null","","","null","85","NaN","","","","","","","","","","","","","","",""
"","S2","","html-keyboard-response","550","614273","0.0-1.0-769.0","0","0","30014","","null","","","null","85","","NaN","","","","","","","","","","","","","",""
"","response","","html-keyboard-response","551","614951","0.0-1.0-770.0-0.0","0","0","30014","","672","","","68","85","","","2","85","training","adjacent","CB","3","2","R.jpg","Q.jpg","1","0","0","",""
"","feedback","","html-keyboard-response","552","615961","0.0-1.0-771.0-0.0","0","0","30014","","null","","","null","85","","","","","","","","","","","","","","","",""
"","time_out","","html-keyboard-response","553","617976","0.0-1.0-773.0-0.0","0","0","30014","","null","","","null","85","","","","","","","","","","","","","","","",""
"","ITI","","html-keyboard-response","554","618985","0.0-1.0-774.0","0","0","30014","","null","","","null","85","","","","","","","","","","","","","","","NaN",""
"","S1","","html-keyboard-response","555","619248","0.0-1.0-776.0","0","0","30014","","null","","","null","86","","","","","","","","","","","","","","","",""
"","ISI","","html-keyboard-response","556","620258","0.0-1.0-777.0","0","0","30014","","null","","","null","86","NaN","","","","","","","","","","","","","","",""
"","S2","","html-keyboard-response","557","620516","0.0-1.0-778.0","0","0","30014","","null","","","null","86","","NaN","","","","","","","","","","","","","",""
"","response","","html-keyboard-response","558","621175","0.0-1.0-779.0-0.0","0","0","30014","","653","","","75","86","","","2","86","training","adjacent","BC","2","3","Q.jpg","R.jpg","0","1","0","",""
"","feedback","","html-keyboard-response","559","622185","0.0-1.0-780.0-0.0","0","0","30014","","null","","","null","86","","","","","","","","","","","","","","","",""
"","time_out","","html-keyboard-response","560","624199","0.0-1.0-782.0-0.0","0","0","30014","","null","","","null","86","","","","","","","","","","","","","","","",""
"","ITI","","html-keyboard-response","561","625213","0.0-1.0-783.0","0","0","30014","","null","","","null","86","","","","","","","","","","","","","","","NaN",""
"","S1","","html-keyboard-response","562","625477","0.0-1.0-785.0","0","0","30014","","null","","","null","87","","","","","","","","","","","","","","","",""
"","ISI","","html-keyboard-response","563","626492","0.0-1.0-786.0","0","0","30014","","null","","","null","87","NaN","","","","","","","","","","","","","","",""
"","S2","","html-keyboard-response","564","626755","0.0-1.0-787.0","0","0","30014","","null","","","null","87","","NaN","","","","","","","","","","","","","",""
"","response","","html-keyboard-response","565","627434","0.0-1.0-788.0-0.0","0","0","30014","","672","","","68","87","","","2","87","training","adjacent","FG","6","7","N.jpg","O.jpg","1","1","1","",""
"","feedback","","html-keyboard-response","566","628447","0.0-1.0-789.0-0.0","0","0","30014","","null","","","null","87","","","","","","","","","","","","","","","",""
"","ITI","","html-keyboard-response","567","629465","0.0-1.0-792.0","0","0","30014","","null","","","null","87","","","","","","","","","","","","","","","NaN",""
"","S1","","html-keyboard-response","568","629728","0.0-1.0-794.0","0","0","30014","","null","","","null","88","","","","","","","","","","","","","","","",""
"","ISI","","html-keyboard-response","569","630739","0.0-1.0-795.0","0","0","30014","","null","","","null","88","NaN","","","","","","","","","","","","","","",""
"","S2","","html-keyboard-response","570","631001","0.0-1.0-796.0","0","0","30014","","null","","","null","88","","NaN","","","","","","","","","","","","","",""
"","response","","html-keyboard-response","571","631564","0.0-1.0-797.0-0.0","0","0","30014","","556","","","75","88","","","2","88","training","adjacent","EF","5","6","P.jpg","N.jpg","0","1","0","",""
"","feedback","","html-keyboard-response","572","632576","0.0-1.0-798.0-0.0","0","0","30014","","null","","","null","88","","","","","","","","","","","","","","","",""
"","time_out","","html-keyboard-response","573","634589","0.0-1.0-800.0-0.0","0","0","30014","","null","","","null","88","","","","","","","","","","","","","","","",""
"","ITI","","html-keyboard-response","574","635598","0.0-1.0-801.0","0","0","30014","","null","","","null","88","","","","","","","","","","","","","","","NaN",""
"","S1","","html-keyboard-response","575","635861","0.0-1.0-803.0","0","0","30014","","null","","","null","89","","","","","","","","","","","","","","","",""
"","ISI","","html-keyboard-response","576","636873","0.0-1.0-804.0","0","0","30014","","null","","","null","89","NaN","","","","","","","","","","","","","","",""
"","S2","","html-keyboard-response","577","637135","0.0-1.0-805.0","0","0","30014","","null","","","null","89","","NaN","","","","","","","","","","","","","",""
"","response","","html-keyboard-response","578","637516","0.0-1.0-806.0-0.0","0","0","30014","","375","","","68","89","","","2","89","training","adjacent","DE","4","5","L.jpg","P.jpg","1","1","1","",""
"","feedback","","html-keyboard-response","579","638523","0.0-1.0-807.0-0.0","0","0","30014","","null","","","null","89","","","","","","","","","","","","","","","",""
"","ITI","","html-keyboard-response","580","639543","0.0-1.0-810.0","0","0","30014","","null","","","null","89","","","","","","","","","","","","","","","NaN",""
"","S1","","html-keyboard-response","581","639805","0.0-1.0-812.0","0","0","30014","","null","","","null","90","","","","","","","","","","","","","","","",""
"","ISI","","html-keyboard-response","582","640818","0.0-1.0-813.0","0","0","30014","","null","","","null","90","NaN","","","","","","","","","","","","","","",""
