"success","ttype","start_time","trial_type","trial_index","time_elapsed","internal_node_id","warning","missed_checkup","PID","view_history","rt","responses","repeat_instructions","key_press","index","keypress_isi","keypress_S2","block","trial_num","phase","group_type","pair_type","S1_stim","S2_stim","S1_img","S2_img","S1_chosen","S1_higher","accuracy","keypress_iti","total_bonus_tally"
"true","full_screen","d08032022hr2059","fullscreen","0","6343","0.0-0.0","0","0","20459","","","","","","","","","","","","","","","","","","","","","",""
"","instructions","","instructions","1","25022","0.0-1.0-0.0-0.0","0","0","20459","[{""page_index"":0,""viewing_time"":3916},{""page_index"":1,""viewing_time"":9847},{""page_index"":2,""viewing_time"":3495},{""page_index"":3,""viewing_time"":1415}]","18674","","","","","","","","","","","","","","","","","","","",""
"","comprehension_check","","survey-multi-choice","2","39467","0.0-1.0-0.0-1.0","0","0","20459","","14437","{""Q0"":""True"",""Q1"":""D"",""Q2"":""Only when the screen 'MAKE A CHOICE' is shown"",""Q3"":""Green mark"",""Q4"":""either D or K""}","1","","","","","","","","","","","","","","","","","",""
"","missed_instruction_checkup","","html-keyboard-response","3","40758","0.0-1.0-0.0-2.0-0.0","0","1","20459","","1286","","","32","","","","","","","","","","","","","","","","",""
"","instructions","","instructions","4","65707","0.0-1.0-0.1-0.1","0","0","20459","[{""page_index"":0,""viewing_time"":1935},{""page_index"":1,""viewing_time"":6260},{""page_index"":2,""viewing_time"":866},{""page_index"":3,""viewing_time"":978},{""page_index"":2,""viewing_time"":546},{""page_index"":1,""viewing_time"":11508},{""page_index"":2,""viewing_time"":1672},{""page_index"":3,""viewing_time"":1181}]","24947","","","","","","","","","","","","","","","","","","","",""
"","comprehension_check","","survey-multi-choice","5","81486","0.0-1.0-0.1-1.1","0","0","20459","","15770","{""Q0"":""True"",""Q1"":""K"",""Q2"":""Once the second image appears and while the screen 'MAKE A CHOICE' is shown"",""Q3"":""Green mark"",""Q4"":""either D or K""}","0","","","","","","","","","","","","","","","","","",""
"","start_exp","","html-keyboard-response","6","82420","0.0-1.0-1.0","0","0","20459","","930","","","32","","","","","","","","","","","","","","","","",""
"","S1","","html-keyboard-response","7","82674","0.0-1.0-2.0","0","0","20459","","null","","","null","0","","","","","","","","","","","","","","","",""
"","ISI","","html-keyboard-response","8","84678","0.0-1.0-3.0","0","0","20459","","null","","","null","0","NaN","","","","","","","","","","","","","","",""
"","S2","","html-keyboard-response","9","84932","0.0-1.0-4.0","0","0","20459","","null","","","null","0","","NaN","","","","","","","","","","","","","",""
"","response","","html-keyboard-response","10","85883","0.0-1.0-5.0-0.0","0","0","20459","","948","","","75","0","","","1","0","training","adjacent","CD","3","4","R.jpg","O.jpg","1","1","1","",""
"","feedback","","html-keyboard-response","11","86887","0.0-1.0-6.0-0.0","0","0","20459","","null","","","null","0","","","","","","","","","","","","","","","",""
"","ITI","","html-keyboard-response","12","87891","0.0-1.0-9.0","0","0","20459","","null","","","null","0","","","","","","","","","","","","","","","NaN",""
"","S1","","html-keyboard-response","13","88145","0.0-1.0-11.0","0","0","20459","","null","","","null","1","","","","","","","","","","","","","","","",""
"","ISI","","html-keyboard-response","14","90147","0.0-1.0-12.0","0","0","20459","","null","","","null","1","NaN","","","","","","","","","","","","","","",""
"","S2","","html-keyboard-response","15","90401","0.0-1.0-13.0","0","0","20459","","null","","","null","1","","NaN","","","","","","","","","","","","","",""
"","response","","html-keyboard-response","16","90794","0.0-1.0-14.0-0.0","0","0","20459","","390","","","75","1","","","1","1","training","adjacent","GF","7","6","Q.jpg","P.jpg","1","0","0","",""
"","feedback","","html-keyboard-response","17","91798","0.0-1.0-15.0-0.0","0","0","20459","","null","","","null","1","","","","","","","","","","","","","","","",""
"","time_out","","html-keyboard-response","18","93801","0.0-1.0-17.0-0.0","0","0","20459","","null","","","null","1","","","","","","","","","","","","","","","",""
"","ITI","","html-keyboard-response","19","94804","0.0-1.0-18.0","0","0","20459","","null","","","null","1","","","","","","","","","","","","","","","NaN",""
"","S1","","html-keyboard-response","20","95057","0.0-1.0-20.0","0","0","20459","","null","","","null","2","","","","","","","","","","","","","","","",""
"","ISI","","html-keyboard-response","21","97059","0.0-1.0-21.0","0","0","20459","","null","","","null","2","NaN","","","","","","","","","","","","","","",""
"","S2","","html-keyboard-response","22","97313","0.0-1.0-22.0","0","0","20459","","null","","","null","2","","NaN","","","","","","","","","","","","","",""
"","response","","html-keyboard-response","23","99066","0.0-1.0-23.0-0.0","0","0","20459","","null","","","null","2","","","1","2","training","adjacent","EF","5","6","M.jpg","P.jpg","NaN","1","0","",""
"","too_slow_prompt","","html-keyboard-response","24","100069","0.0-1.0-25.0-0.0","1","0","20459","","null","","","null","","","","","","","","","","","","","","","","",""
"","time_out","","html-keyboard-response","25","102072","0.0-1.0-26.0-0.0","0","0","20459","","null","","","null","2","","","","","","","","","","","","","","","",""
"","ITI","","html-keyboard-response","26","103075","0.0-1.0-27.0","0","0","20459","","null","","","null","2","","","","","","","","","","","","","","","NaN",""
"","S1","","html-keyboard-response","27","103328","0.0-1.0-29.0","0","0","20459","","null","","","null","3","","","","","","","","","","","","","","","",""
"","ISI","","html-keyboard-response","28","105335","0.0-1.0-30.0","0","0","20459","","null","","","null","3","NaN","","","","","","","","","","","","","","",""
"","S2","","html-keyboard-response","29","105587","0.0-1.0-31.0","0","0","20459","","null","","","null","3","","NaN","","","","","","","","","","","","","",""
"","response","","html-keyboard-response","30","106563","0.0-1.0-32.0-0.0","0","0","20459","","974","","","68","3","","","1","3","training","adjacent","FG","6","7","P.jpg","Q.jpg","0","1","0","",""
"","feedback","","html-keyboard-response","31","107567","0.0-1.0-33.0-0.0","0","0","20459","","null","","","null","3","","","","","","","","","","","","","","","",""
"","time_out","","html-keyboard-response","32","109571","0.0-1.0-35.0-0.0","0","0","20459","","null","","","null","3","","","","","","","","","","","","","","","",""
"","ITI","","html-keyboard-response","33","110573","0.0-1.0-36.0","0","0","20459","","null","","","null","3","","","","","","","","","","","","","","","NaN",""
"","S1","","html-keyboard-response","34","110826","0.0-1.0-38.0","0","0","20459","","null","","","null","4","","","","","","","","","","","","","","","",""
"","ISI","","html-keyboard-response","35","112829","0.0-1.0-39.0","0","0","20459","","null","","","null","4","NaN","","","","","","","","","","","","","","",""
"","S2","","html-keyboard-response","36","113083","0.0-1.0-40.0","0","0","20459","","null","","","null","4","","NaN","","","","","","","","","","","","","",""
"","response","","html-keyboard-response","37","114185","0.0-1.0-41.0-0.0","0","0","20459","","1100","","","68","4","","","1","4","training","adjacent","FG","6","7","P.jpg","Q.jpg","0","1","0","",""
"","feedback","","html-keyboard-response","38","115188","0.0-1.0-42.0-0.0","0","0","20459","","null","","","null","4","","","","","","","","","","","","","","","",""
"","time_out","","html-keyboard-response","39","117191","0.0-1.0-44.0-0.0","0","0","20459","","null","","","null","4","","","","","","","","","","","","","","","",""
"","ITI","","html-keyboard-response","40","118195","0.0-1.0-45.0","0","0","20459","","null","","","null","4","","","","","","","","","","","","","","","NaN",""
"","S1","","html-keyboard-response","41","118455","0.0-1.0-47.0","0","0","20459","","null","","","null","5","","","","","","","","","","","","","","","",""
"","ISI","","html-keyboard-response","42","120458","0.0-1.0-48.0","0","0","20459","","null","","","null","5","NaN","","","","","","","","","","","","","","",""
"","S2","","html-keyboard-response","43","120711","0.0-1.0-49.0","0","0","20459","","null","","","null","5","","NaN","","","","","","","","","","","","","",""
"","response","","html-keyboard-response","44","121822","0.0-1.0-50.0-0.0","0","0","20459","","1108","","","75","5","","","1","5","training","adjacent","CB","3","2","R.jpg","L.jpg","1","0","0","",""
"","feedback","","html-keyboard-response","45","122833","0.0-1.0-51.0-0.0","0","0","20459","","null","","","null","5","","","","","","","","","","","","","","","",""
"","time_out","","html-keyboard-response","46","124836","0.0-1.0-53.0-0.0","0","0","20459","","null","","","null","5","","","","","","","","","","","","","","","",""
"","ITI","","html-keyboard-response","47","125838","0.0-1.0-54.0","0","0","20459","","null","","","null","5","","","","","","","","","","","","","","","NaN",""
"","S1","","html-keyboard-response","48","126092","0.0-1.0-56.0","0","0","20459","","null","","","null","6","","","","","","","","","","","","","","","",""
"","ISI","","html-keyboard-response","49","128094","0.0-1.0-57.0","0","0","20459","","null","","","null","6","NaN","","","","","","","","","","","","","","",""
"","S2","","html-keyboard-response","50","128360","0.0-1.0-58.0","0","0","20459","","null","","","null","6","","NaN","","","","","","","","","","","","","",""
"","response","","html-keyboard-response","51","129055","0.0-1.0-59.0-0.0","0","0","20459","","693","","","75","6","","","1","6","training","adjacent","DC","4","3","O.jpg","R.jpg","1","0","0","",""
"","feedback","","html-keyboard-response","52","130058","0.0-1.0-60.0-0.0","0","0","20459","","null","","","null","6","","","","","","","","","","","","","","","",""
"","time_out","","html-keyboard-response","53","132061","0.0-1.0-62.0-0.0","0","0","20459","","null","","","null","6","","","","","","","","","","","","","","","",""
"","ITI","","html-keyboard-response","54","133064","0.0-1.0-63.0","0","0","20459","","null","","","null","6","","","","","","","","","","","","","","","NaN",""
"","S1","","html-keyboard-response","55","133317","0.0-1.0-65.0","0","0","20459","","null","","","null","7","","","","","","","","","","","","","","","",""
"","ISI","","html-keyboard-response","56","135320","0.0-1.0-66.0","0","0","20459","","null","","","null","7","NaN","","","","","","","","","","","","","","",""
"","S2","","html-keyboard-response","57","135574","0.0-1.0-67.0","0","0","20459","","null","","","null","7","","NaN","","","","","","","","","","","","","",""
"","response","","html-keyboard-response","58","136987","0.0-1.0-68.0-0.0","0","0","20459","","1410","","","68","7","","","1","7","training","adjacent","CB","3","2","R.jpg","L.jpg","0","0","1","",""
"","feedback","","html-keyboard-response","59","137991","0.0-1.0-69.0-0.0","0","0","20459","","null","","","null","7","","","","","","","","","","","","","","","",""
"","ITI","","html-keyboard-response","60","138993","0.0-1.0-72.0","0","0","20459","","null","","","null","7","","","","","","","","","","","","","","","NaN",""
"","S1","","html-keyboard-response","61","139247","0.0-1.0-74.0","0","0","20459","","null","","","null","8","","","","","","","","","","","","","","","",""
"","ISI","","html-keyboard-response","62","141251","0.0-1.0-75.0","0","0","20459","","1043","","","75","8","k","","","","","","","","","","","","","","",""
"","S2","","html-keyboard-response","63","141505","0.0-1.0-76.0","0","0","20459","","null","","","null","8","","NaN","","","","","","","","","","","","","",""
"","response","","html-keyboard-response","64","141837","0.0-1.0-77.0-0.0","0","0","20459","","330","","","75","8","","","1","8","training","adjacent","BC","2","3","L.jpg","R.jpg","1","1","1","",""
"","feedback","","html-keyboard-response","65","142840","0.0-1.0-78.0-0.0","0","0","20459","","null","","","null","8","","","","","","","","","","","","","","","",""
"","ITI","","html-keyboard-response","66","143844","0.0-1.0-81.0","0","0","20459","","null","","","null","8","","","","","","","","","","","","","","","NaN",""
"","S1","","html-keyboard-response","67","144106","0.0-1.0-83.0","0","0","20459","","null","","","null","9","","","","","","","","","","","","","","","",""
"","ISI","","html-keyboard-response","68","146110","0.0-1.0-84.0","0","0","20459","","null","","","null","9","NaN","","","","","","","","","","","","","","",""
"","S2","","html-keyboard-response","69","146364","0.0-1.0-85.0","0","0","20459","","null","","","null","9","","NaN","","","","","","","","","","","","","",""
"","response","","html-keyboard-response","70","147776","0.0-1.0-86.0-0.0","0","0","20459","","1409","","","68","9","","","1","9","training","adjacent","CB","3","2","R.jpg","L.jpg","0","0","1","",""
"","feedback","","html-keyboard-response","71","148780","0.0-1.0-87.0-0.0","0","0","20459","","null","","","null","9","","","","","","","","","","","","","","","",""
"","ITI","","html-keyboard-response","72","149783","0.0-1.0-90.0","0","0","20459","","null","","","null","9","","","","","","","","","","","","","","","NaN",""
"","S1","","html-keyboard-response","73","150036","0.0-1.0-92.0","0","0","20459","","null","","","null","10","","","","","","","","","","","","","","","",""
"","ISI","","html-keyboard-response","74","152039","0.0-1.0-93.0","0","0","20459","","null","","","null","10","NaN","","","","","","","","","","","","","","",""
"","S2","","html-keyboard-response","75","152293","0.0-1.0-94.0","0","0","20459","","null","","","null","10","","NaN","","","","","","","","","","","","","",""
"","response","","html-keyboard-response","76","153695","0.0-1.0-95.0-0.0","0","0","20459","","1400","","","75","10","","","1","10","training","adjacent","DC","4","3","O.jpg","R.jpg","1","0","0","",""
"","feedback","","html-keyboard-response","77","154699","0.0-1.0-96.0-0.0","0","0","20459","","null","","","null","10","","","","","","","","","","","","","","","",""
"","time_out","","html-keyboard-response","78","156702","0.0-1.0-98.0-0.0","0","0","20459","","null","","","null","10","","","","","","","","","","","","","","","",""
"","ITI","","html-keyboard-response","79","157706","0.0-1.0-99.0","0","0","20459","","null","","","null","10","","","","","","","","","","","","","","","NaN",""
"","S1","","html-keyboard-response","80","157959","0.0-1.0-101.0","0","0","20459","","null","","","null","11","","","","","","","","","","","","","","","",""
"","ISI","","html-keyboard-response","81","159961","0.0-1.0-102.0","0","0","20459","","null","","","null","11","NaN","","","","","","","","","","","","","","",""
"","S2","","html-keyboard-response","82","160214","0.0-1.0-103.0","0","0","20459","","null","","","null","11","","NaN","","","","","","","","","","","","","",""
"","response","","html-keyboard-response","83","160536","0.0-1.0-104.0-0.0","0","0","20459","","320","","","75","11","","","1","11","training","adjacent","BC","2","3","L.jpg","R.jpg","1","1","1","",""
"","feedback","","html-keyboard-response","84","161548","0.0-1.0-105.0-0.0","0","0","20459","","null","","","null","11","","","","","","","","","","","","","","","",""
"","ITI","","html-keyboard-response","85","162552","0.0-1.0-108.0","0","0","20459","","null","","","null","11","","","","","","","","","","","","","","","NaN",""
"","S1","","html-keyboard-response","86","162805","0.0-1.0-110.0","0","0","20459","","null","","","null","12","","","","","","","","","","","","","","","",""
"","ISI","","html-keyboard-response","87","164809","0.0-1.0-111.0","0","0","20459","","null","","","null","12","NaN","","","","","","","","","","","","","","",""
"","S2","","html-keyboard-response","88","165062","0.0-1.0-112.0","0","0","20459","","null","","","null","12","","NaN","","","","","","","","","","","","","",""
"","response","","html-keyboard-response","89","166205","0.0-1.0-113.0-0.0","0","0","20459","","1141","","","68","12","","","1","12","training","adjacent","CD","3","4","R.jpg","O.jpg","0","1","0","",""
"","feedback","","html-keyboard-response","90","167208","0.0-1.0-114.0-0.0","0","0","20459","","null","","","null","12","","","","","","","","","","","","","","","",""
"","time_out","","html-keyboard-response","91","169211","0.0-1.0-116.0-0.0","0","0","20459","","null","","","null","12","","","","","","","","","","","","","","","",""
"","ITI","","html-keyboard-response","92","170214","0.0-1.0-117.0","0","0","20459","","null","","","null","12","","","","","","","","","","","","","","","NaN",""
"","S1","","html-keyboard-response","93","170474","0.0-1.0-119.0","0","0","20459","","null","","","null","13","","","","","","","","","","","","","","","",""
"","ISI","","html-keyboard-response","94","172478","0.0-1.0-120.0","0","0","20459","","null","","","null","13","NaN","","","","","","","","","","","","","","",""
"","S2","","html-keyboard-response","95","172731","0.0-1.0-121.0","0","0","20459","","null","","","null","13","","NaN","","","","","","","","","","","","","",""
"","response","","html-keyboard-response","96","173730","0.0-1.0-122.0-0.0","0","0","20459","","998","","","75","13","","","1","13","training","adjacent","ED","5","4","M.jpg","O.jpg","1","0","0","",""
"","feedback","","html-keyboard-response","97","174733","0.0-1.0-123.0-0.0","0","0","20459","","null","","","null","13","","","","","","","","","","","","","","","",""
"","time_out","","html-keyboard-response","98","176737","0.0-1.0-125.0-0.0","0","0","20459","","null","","","null","13","","","","","","","","","","","","","","","",""
"","ITI","","html-keyboard-response","99","177740","0.0-1.0-126.0","0","0","20459","","null","","","null","13","","","","","","","","","","","","","","","NaN",""
"","S1","","html-keyboard-response","100","177993","0.0-1.0-128.0","0","0","20459","","null","","","null","14","","","","","","","","","","","","","","","",""
"","ISI","","html-keyboard-response","101","179996","0.0-1.0-129.0","0","0","20459","","null","","","null","14","NaN","","","","","","","","","","","","","","",""
"","S2","","html-keyboard-response","102","180249","0.0-1.0-130.0","0","0","20459","","null","","","null","14","","NaN","","","","","","","","","","","","","",""
"","response","","html-keyboard-response","103","181224","0.0-1.0-131.0-0.0","0","0","20459","","972","","","68","14","","","1","14","training","adjacent","AB","1","2","N.jpg","L.jpg","0","1","0","",""
"","feedback","","html-keyboard-response","104","182228","0.0-1.0-132.0-0.0","0","0","20459","","null","","","null","14","","","","","","","","","","","","","","","",""
"","time_out","","html-keyboard-response","105","184231","0.0-1.0-134.0-0.0","0","0","20459","","null","","","null","14","","","","","","","","","","","","","","","",""
"","ITI","","html-keyboard-response","106","185239","0.0-1.0-135.0","0","0","20459","","null","","","null","14","","","","","","","","","","","","","","","NaN",""
"","S1","","html-keyboard-response","107","185492","0.0-1.0-137.0","0","0","20459","","null","","","null","15","","","","","","","","","","","","","","","",""
"","ISI","","html-keyboard-response","108","187495","0.0-1.0-138.0","0","0","20459","","null","","","null","15","NaN","","","","","","","","","","","","","","",""
"","S2","","html-keyboard-response","109","187749","0.0-1.0-139.0","0","0","20459","","null","","","null","15","","NaN","","","","","","","","","","","","","",""
"","response","","html-keyboard-response","110","189103","0.0-1.0-140.0-0.0","0","0","20459","","1351","","","75","15","","","1","15","training","adjacent","FG","6","7","P.jpg","Q.jpg","1","1","1","",""
"","feedback","","html-keyboard-response","111","190105","0.0-1.0-141.0-0.0","0","0","20459","","null","","","null","15","","","","","","","","","","","","","","","",""
"","ITI","","html-keyboard-response","112","191109","0.0-1.0-144.0","0","0","20459","","null","","","null","15","","","","","","","","","","","","","","","NaN",""
"","S1","","html-keyboard-response","113","191363","0.0-1.0-146.0","0","0","20459","","null","","","null","16","","","","","","","","","","","","","","","",""
"","ISI","","html-keyboard-response","114","193367","0.0-1.0-147.0","0","0","20459","","null","","","null","16","NaN","","","","","","","","","","","","","","",""
"","S2","","html-keyboard-response","115","193621","0.0-1.0-148.0","0","0","20459","","null","","","null","16","","NaN","","","","","","","","","","","","","",""
"","response","","html-keyboard-response","116","194446","0.0-1.0-149.0-0.0","0","0","20459","","824","","","75","16","","","1","16","training","adjacent","DC","4","3","O.jpg","R.jpg","1","0","0","",""
"","feedback","","html-keyboard-response","117","195450","0.0-1.0-150.0-0.0","0","0","20459","","null","","","null","16","","","","","","","","","","","","","","","",""
"","time_out","","html-keyboard-response","118","197453","0.0-1.0-152.0-0.0","0","0","20459","","null","","","null","16","","","","","","","","","","","","","","","",""
"","ITI","","html-keyboard-response","119","198456","0.0-1.0-153.0","0","0","20459","","null","","","null","16","","","","","","","","","","","","","","","NaN",""
"","S1","","html-keyboard-response","120","198709","0.0-1.0-155.0","0","0","20459","","null","","","null","17","","","","","","","","","","","","","","","",""
"","ISI","","html-keyboard-response","121","200712","0.0-1.0-156.0","0","0","20459","","null","","","null","17","NaN","","","","","","","","","","","","","","",""
"","S2","","html-keyboard-response","122","200965","0.0-1.0-157.0","0","0","20459","","null","","","null","17","","NaN","","","","","","","","","","","","","",""
"","response","","html-keyboard-response","123","201997","0.0-1.0-158.0-0.0","0","0","20459","","1030","","","68","17","","","1","17","training","adjacent","GF","7","6","Q.jpg","P.jpg","0","0","1","",""
"","feedback","","html-keyboard-response","124","203000","0.0-1.0-159.0-0.0","0","0","20459","","null","","","null","17","","","","","","","","","","","","","","","",""
"","ITI","","html-keyboard-response","125","204003","0.0-1.0-162.0","0","0","20459","","null","","","null","17","","","","","","","","","","","","","","","NaN",""
"","S1","","html-keyboard-response","126","204256","0.0-1.0-164.0","0","0","20459","","null","","","null","18","","","","","","","","","","","","","","","",""
"","ISI","","html-keyboard-response","127","206259","0.0-1.0-165.0","0","0","20459","","null","","","null","18","NaN","","","","","","","","","","","","","","",""
"","S2","","html-keyboard-response","128","206513","0.0-1.0-166.0","0","0","20459","","null","","","null","18","","NaN","","","","","","","","","","","","","",""
"","response","","html-keyboard-response","129","207093","0.0-1.0-167.0-0.0","0","0","20459","","579","","","68","18","","","1","18","training","adjacent","CB","3","2","R.jpg","L.jpg","0","0","1","",""
"","feedback","","html-keyboard-response","130","208097","0.0-1.0-168.0-0.0","0","0","20459","","null","","","null","18","","","","","","","","","","","","","","","",""
"","ITI","","html-keyboard-response","131","209108","0.0-1.0-171.0","0","0","20459","","null","","","null","18","","","","","","","","","","","","","","","NaN",""
"","S1","","html-keyboard-response","132","209360","0.0-1.0-173.0","0","0","20459","","null","","","null","19","","","","","","","","","","","","","","","",""
"","ISI","","html-keyboard-response","133","211363","0.0-1.0-174.0","0","0","20459","","null","","","null","19","NaN","","","","","","","","","","","","","","",""
"","S2","","html-keyboard-response","134","211617","0.0-1.0-175.0","0","0","20459","","null","","","null","19","","NaN","","","","","","","","","","","","","",""
"","response","","html-keyboard-response","135","213345","0.0-1.0-176.0-0.0","0","0","20459","","1726","","","75","19","","","1","19","training","adjacent","DE","4","5","O.jpg","M.jpg","1","1","1","",""
"","feedback","","html-keyboard-response","136","214349","0.0-1.0-177.0-0.0","0","0","20459","","null","","","null","19","","","","","","","","","","","","","","","",""
"","ITI","","html-keyboard-response","137","215353","0.0-1.0-180.0","0","0","20459","","null","","","null","19","","","","","","","","","","","","","","","NaN",""
"","S1","","html-keyboard-response","138","215605","0.0-1.0-182.0","0","0","20459","","null","","","null","20","","","","","","","","","","","","","","","",""
"","ISI","","html-keyboard-response","139","217608","0.0-1.0-183.0","0","0","20459","","null","","","null","20","NaN","","","","","","","","","","","","","","",""
"","S2","","html-keyboard-response","140","217861","0.0-1.0-184.0","0","0","20459","","null","","","null","20","","NaN","","","","","","","","","","","","","",""
"","response","","html-keyboard-response","141","218612","0.0-1.0-185.0-0.0","0","0","20459","","749","","","68","20","","","1","20","training","adjacent","DE","4","5","O.jpg","M.jpg","0","1","0","",""
"","feedback","","html-keyboard-response","142","219617","0.0-1.0-186.0-0.0","0","0","20459","","null","","","null","20","","","","","","","","","","","","","","","",""
"","time_out","","html-keyboard-response","143","221620","0.0-1.0-188.0-0.0","0","0","20459","","null","","","null","20","","","","","","","","","","","","","","","",""
"","ITI","","html-keyboard-response","144","222622","0.0-1.0-189.0","0","0","20459","","null","","","null","20","","","","","","","","","","","","","","","NaN",""
"","S1","","html-keyboard-response","145","222876","0.0-1.0-191.0","0","0","20459","","null","","","null","21","","","","","","","","","","","","","","","",""
"","ISI","","html-keyboard-response","146","224879","0.0-1.0-192.0","0","0","20459","","null","","","null","21","NaN","","","","","","","","","","","","","","",""
"","S2","","html-keyboard-response","147","225132","0.0-1.0-193.0","0","0","20459","","null","","","null","21","","NaN","","","","","","","","","","","","","",""
"","response","","html-keyboard-response","148","225991","0.0-1.0-194.0-0.0","0","0","20459","","857","","","75","21","","","1","21","training","adjacent","CD","3","4","R.jpg","O.jpg","1","1","1","",""
"","feedback","","html-keyboard-response","149","226995","0.0-1.0-195.0-0.0","0","0","20459","","null","","","null","21","","","","","","","","","","","","","","","",""
"","ITI","","html-keyboard-response","150","227999","0.0-1.0-198.0","0","0","20459","","null","","","null","21","","","","","","","","","","","","","","","NaN",""
"","S1","","html-keyboard-response","151","228252","0.0-1.0-200.0","0","0","20459","","null","","","null","22","","","","","","","","","","","","","","","",""
"","ISI","","html-keyboard-response","152","230256","0.0-1.0-201.0","0","0","20459","","null","","","null","22","NaN","","","","","","","","","","","","","","",""
"","S2","","html-keyboard-response","153","230509","0.0-1.0-202.0","0","0","20459","","null","","","null","22","","NaN","","","","","","","","","","","","","",""
"","response","","html-keyboard-response","154","231226","0.0-1.0-203.0-0.0","0","0","20459","","716","","","75","22","","","1","22","training","adjacent","DC","4","3","O.jpg","R.jpg","1","0","0","",""
"","feedback","","html-keyboard-response","155","232232","0.0-1.0-204.0-0.0","0","0","20459","","null","","","null","22","","","","","","","","","","","","","","","",""
"","time_out","","html-keyboard-response","156","234235","0.0-1.0-206.0-0.0","0","0","20459","","null","","","null","22","","","","","","","","","","","","","","","",""
"","ITI","","html-keyboard-response","157","235238","0.0-1.0-207.0","0","0","20459","","null","","","null","22","","","","","","","","","","","","","","","NaN",""
"","S1","","html-keyboard-response","158","235491","0.0-1.0-209.0","0","0","20459","","null","","","null","23","","","","","","","","","","","","","","","",""
"","ISI","","html-keyboard-response","159","237494","0.0-1.0-210.0","0","0","20459","","null","","","null","23","NaN","","","","","","","","","","","","","","",""
"","S2","","html-keyboard-response","160","237747","0.0-1.0-211.0","0","0","20459","","null","","","null","23","","NaN","","","","","","","","","","","","","",""
"","response","","html-keyboard-response","161","238616","0.0-1.0-212.0-0.0","0","0","20459","","868","","","68","23","","","1","23","training","adjacent","EF","5","6","M.jpg","P.jpg","0","1","0","",""
"","feedback","","html-keyboard-response","162","239619","0.0-1.0-213.0-0.0","0","0","20459","","null","","","null","23","","","","","","","","","","","","","","","",""
"","time_out","","html-keyboard-response","163","241622","0.0-1.0-215.0-0.0","0","0","20459","","null","","","null","23","","","","","","","","","","","","","","","",""
"","ITI","","html-keyboard-response","164","242625","0.0-1.0-216.0","0","0","20459","","null","","","null","23","","","","","","","","","","","","","","","NaN",""
"","S1","","html-keyboard-response","165","242878","0.0-1.0-218.0","0","0","20459","","null","","","null","24","","","","","","","","","","","","","","","",""
"","ISI","","html-keyboard-response","166","244881","0.0-1.0-219.0","0","0","20459","","null","","","null","24","NaN","","","","","","","","","","","","","","",""
"","S2","","html-keyboard-response","167","245134","0.0-1.0-220.0","0","0","20459","","null","","","null","24","","NaN","","","","","","","","","","","","","",""
"","response","","html-keyboard-response","168","245910","0.0-1.0-221.0-0.0","0","0","20459","","773","","","68","24","","","1","24","training","adjacent","GF","7","6","Q.jpg","P.jpg","0","0","1","",""
"","feedback","","html-keyboard-response","169","246918","0.0-1.0-222.0-0.0","0","0","20459","","null","","","null","24","","","","","","","","","","","","","","","",""
"","ITI","","html-keyboard-response","170","247921","0.0-1.0-225.0","0","0","20459","","null","","","null","24","","","","","","","","","","","","","","","NaN",""
"","S1","","html-keyboard-response","171","248174","0.0-1.0-227.0","0","0","20459","","null","","","null","25","","","","","","","","","","","","","","","",""
"","ISI","","html-keyboard-response","172","250177","0.0-1.0-228.0","0","0","20459","","null","","","null","25","NaN","","","","","","","","","","","","","","",""
"","S2","","html-keyboard-response","173","250430","0.0-1.0-229.0","0","0","20459","","null","","","null","25","","NaN","","","","","","","","","","","","","",""
"","response","","html-keyboard-response","174","251067","0.0-1.0-230.0-0.0","0","0","20459","","635","","","75","25","","","1","25","training","adjacent","BA","2","1","L.jpg","N.jpg","1","0","0","",""
"","feedback","","html-keyboard-response","175","252070","0.0-1.0-231.0-0.0","0","0","20459","","null","","","null","25","","","","","","","","","","","","","","","",""
"","time_out","","html-keyboard-response","176","254073","0.0-1.0-233.0-0.0","0","0","20459","","null","","","null","25","","","","","","","","","","","","","","","",""
"","ITI","","html-keyboard-response","177","255077","0.0-1.0-234.0","0","0","20459","","null","","","null","25","","","","","","","","","","","","","","","NaN",""
"","S1","","html-keyboard-response","178","255332","0.0-1.0-236.0","0","0","20459","","null","","","null","26","","","","","","","","","","","","","","","",""
"","ISI","","html-keyboard-response","179","257334","0.0-1.0-237.0","0","0","20459","","null","","","null","26","NaN","","","","","","","","","","","","","","",""
"","S2","","html-keyboard-response","180","257591","0.0-1.0-238.0","0","0","20459","","null","","","null","26","","NaN","","","","","","","","","","","","","",""
"","response","","html-keyboard-response","181","258460","0.0-1.0-239.0-0.0","0","0","20459","","867","","","68","26","","","1","26","training","adjacent","ED","5","4","M.jpg","O.jpg","0","0","1","",""
"","feedback","","html-keyboard-response","182","259463","0.0-1.0-240.0-0.0","0","0","20459","","null","","","null","26","","","","","","","","","","","","","","","",""
"","ITI","","html-keyboard-response","183","260466","0.0-1.0-243.0","0","0","20459","","null","","","null","26","","","","","","","","","","","","","","","NaN",""
"","S1","","html-keyboard-response","184","260720","0.0-1.0-245.0","0","0","20459","","null","","","null","27","","","","","","","","","","","","","","","",""
"","ISI","","html-keyboard-response","185","262730","0.0-1.0-246.0","0","0","20459","","null","","","null","27","NaN","","","","","","","","","","","","","","",""
"","S2","","html-keyboard-response","186","262983","0.0-1.0-247.0","0","0","20459","","null","","","null","27","","NaN","","","","","","","","","","","","","",""
"","response","","html-keyboard-response","187","263428","0.0-1.0-248.0-0.0","0","0","20459","","443","","","75","27","","","1","27","training","adjacent","FG","6","7","P.jpg","Q.jpg","1","1","1","",""
"","feedback","","html-keyboard-response","188","264431","0.0-1.0-249.0-0.0","0","0","20459","","null","","","null","27","","","","","","","","","","","","","","","",""
"","ITI","","html-keyboard-response","189","265436","0.0-1.0-252.0","0","0","20459","","null","","","null","27","","","","","","","","","","","","","","","NaN",""
"","S1","","html-keyboard-response","190","265689","0.0-1.0-254.0","0","0","20459","","null","","","null","28","","","","","","","","","","","","","","","",""
"","ISI","","html-keyboard-response","191","267691","0.0-1.0-255.0","0","0","20459","","null","","","null","28","NaN","","","","","","","","","","","","","","",""
"","S2","","html-keyboard-response","192","267945","0.0-1.0-256.0","0","0","20459","","null","","","null","28","","NaN","","","","","","","","","","","","","",""
"","response","","html-keyboard-response","193","268301","0.0-1.0-257.0-0.0","0","0","20459","","354","","","68","28","","","1","28","training","adjacent","EF","5","6","M.jpg","P.jpg","0","1","0","",""
"","feedback","","html-keyboard-response","194","269305","0.0-1.0-258.0-0.0","0","0","20459","","null","","","null","28","","","","","","","","","","","","","","","",""
"","time_out","","html-keyboard-response","195","271309","0.0-1.0-260.0-0.0","0","0","20459","","null","","","null","28","","","","","","","","","","","","","","","",""
"","ITI","","html-keyboard-response","196","272312","0.0-1.0-261.0","0","0","20459","","null","","","null","28","","","","","","","","","","","","","","","NaN",""
"","S1","","html-keyboard-response","197","272566","0.0-1.0-263.0","0","0","20459","","null","","","null","29","","","","","","","","","","","","","","","",""
"","ISI","","html-keyboard-response","198","274568","0.0-1.0-264.0","0","0","20459","","null","","","null","29","NaN","","","","","","","","","","","","","","",""
"","S2","","html-keyboard-response","199","274822","0.0-1.0-265.0","0","0","20459","","null","","","null","29","","NaN","","","","","","","","","","","","","",""
"","response","","html-keyboard-response","200","275288","0.0-1.0-266.0-0.0","0","0","20459","","465","","","68","29","","","1","29","training","adjacent","CD","3","4","R.jpg","O.jpg","0","1","0","",""
"","feedback","","html-keyboard-response","201","276292","0.0-1.0-267.0-0.0","0","0","20459","","null","","","null","29","","","","","","","","","","","","","","","",""
"","time_out","","html-keyboard-response","202","278295","0.0-1.0-269.0-0.0","0","0","20459","","null","","","null","29","","","","","","","","","","","","","","","",""
"","ITI","","html-keyboard-response","203","279298","0.0-1.0-270.0","0","0","20459","","null","","","null","29","","","","","","","","","","","","","","","NaN",""
"","S1","","html-keyboard-response","204","279551","0.0-1.0-272.0","0","0","20459","","null","","","null","30","","","","","","","","","","","","","","","",""
"","ISI","","html-keyboard-response","205","281554","0.0-1.0-273.0","0","0","20459","","null","","","null","30","NaN","","","","","","","","","","","","","","",""
"","S2","","html-keyboard-response","206","281818","0.0-1.0-274.0","0","0","20459","","null","","","null","30","","NaN","","","","","","","","","","","","","",""
"","response","","html-keyboard-response","207","282380","0.0-1.0-275.0-0.0","0","0","20459","","560","","","68","30","","","1","30","training","adjacent","EF","5","6","M.jpg","P.jpg","0","1","0","",""
"","feedback","","html-keyboard-response","208","283384","0.0-1.0-276.0-0.0","0","0","20459","","null","","","null","30","","","","","","","","","","","","","","","",""
"","time_out","","html-keyboard-response","209","285387","0.0-1.0-278.0-0.0","0","0","20459","","null","","","null","30","","","","","","","","","","","","","","","",""
"","ITI","","html-keyboard-response","210","286390","0.0-1.0-279.0","0","0","20459","","null","","","null","30","","","","","","","","","","","","","","","NaN",""
"","S1","","html-keyboard-response","211","286643","0.0-1.0-281.0","0","0","20459","","null","","","null","31","","","","","","","","","","","","","","","",""
"","ISI","","html-keyboard-response","212","288645","0.0-1.0-282.0","0","0","20459","","null","","","null","31","NaN","","","","","","","","","","","","","","",""
"","S2","","html-keyboard-response","213","288899","0.0-1.0-283.0","0","0","20459","","null","","","null","31","","NaN","","","","","","","","","","","","","",""
"","response","","html-keyboard-response","214","289437","0.0-1.0-284.0-0.0","0","0","20459","","536","","","68","31","","","1","31","training","adjacent","AB","1","2","N.jpg","L.jpg","0","1","0","",""
"","feedback","","html-keyboard-response","215","290440","0.0-1.0-285.0-0.0","0","0","20459","","null","","","null","31","","","","","","","","","","","","","","","",""
"","time_out","","html-keyboard-response","216","292443","0.0-1.0-287.0-0.0","0","0","20459","","null","","","null","31","","","","","","","","","","","","","","","",""
"","ITI","","html-keyboard-response","217","293448","0.0-1.0-288.0","0","0","20459","","null","","","null","31","","","","","","","","","","","","","","","NaN",""
"","S1","","html-keyboard-response","218","293701","0.0-1.0-290.0","0","0","20459","","null","","","null","32","","","","","","","","","","","","","","","",""
"","ISI","","html-keyboard-response","219","295704","0.0-1.0-291.0","0","0","20459","","null","","","null","32","NaN","","","","","","","","","","","","","","",""
"","S2","","html-keyboard-response","220","295970","0.0-1.0-292.0","0","0","20459","","null","","","null","32","","NaN","","","","","","","","","","","","","",""
"","response","","html-keyboard-response","221","296062","0.0-1.0-293.0-0.0","0","0","20459","","89","","","75","32","","","1","32","training","adjacent","BA","2","1","L.jpg","N.jpg","1","0","0","",""
"","feedback","","html-keyboard-response","222","297066","0.0-1.0-294.0-0.0","0","0","20459","","null","","","null","32","","","","","","","","","","","","","","","",""
"","time_out","","html-keyboard-response","223","299070","0.0-1.0-296.0-0.0","0","0","20459","","null","","","null","32","","","","","","","","","","","","","","","",""
"","ITI","","html-keyboard-response","224","300072","0.0-1.0-297.0","0","0","20459","","null","","","null","32","","","","","","","","","","","","","","","NaN",""
"","S1","","html-keyboard-response","225","300325","0.0-1.0-299.0","0","0","20459","","null","","","null","33","","","","","","","","","","","","","","","",""
"","ISI","","html-keyboard-response","226","302329","0.0-1.0-300.0","0","0","20459","","null","","","null","33","NaN","","","","","","","","","","","","","","",""
"","S2","","html-keyboard-response","227","302582","0.0-1.0-301.0","0","0","20459","","null","","","null","33","","NaN","","","","","","","","","","","","","",""
"","response","","html-keyboard-response","228","302689","0.0-1.0-302.0-0.0","0","0","20459","","105","","","68","33","","","1","33","training","adjacent","BA","2","1","L.jpg","N.jpg","0","0","1","",""
"","feedback","","html-keyboard-response","229","303693","0.0-1.0-303.0-0.0","0","0","20459","","null","","","null","33","","","","","","","","","","","","","","","",""
"","ITI","","html-keyboard-response","230","304696","0.0-1.0-306.0","0","0","20459","","null","","","null","33","","","","","","","","","","","","","","","NaN",""
"","S1","","html-keyboard-response","231","304949","0.0-1.0-308.0","0","0","20459","","null","","","null","34","","","","","","","","","","","","","","","",""
"","ISI","","html-keyboard-response","232","306967","0.0-1.0-309.0","0","0","20459","","null","","","null","34","NaN","","","","","","","","","","","","","","",""
"","S2","","html-keyboard-response","233","307219","0.0-1.0-310.0","0","0","20459","","null","","","null","34","","NaN","","","","","","","","","","","","","",""
"","response","","html-keyboard-response","234","307424","0.0-1.0-311.0-0.0","0","0","20459","","202","","","75","34","","","1","34","training","adjacent","AB","1","2","N.jpg","L.jpg","1","1","1","",""
"","feedback","","html-keyboard-response","235","308428","0.0-1.0-312.0-0.0","0","0","20459","","null","","","null","34","","","","","","","","","","","","","","","",""
"","ITI","","html-keyboard-response","236","309431","0.0-1.0-315.0","0","0","20459","","null","","","null","34","","","","","","","","","","","","","","","NaN",""
"","S1","","html-keyboard-response","237","309684","0.0-1.0-317.0","0","0","20459","","null","","","null","35","","","","","","","","","","","","","","","",""
"","ISI","","html-keyboard-response","238","311687","0.0-1.0-318.0","0","0","20459","","null","","","null","35","NaN","","","","","","","","","","","","","","",""
"","S2","","html-keyboard-response","239","311941","0.0-1.0-319.0","0","0","20459","","null","","","null","35","","NaN","","","","","","","","","","","","","",""
"","response","","html-keyboard-response","240","312286","0.0-1.0-320.0-0.0","0","0","20459","","343","","","68","35","","","1","35","training","adjacent","BC","2","3","L.jpg","R.jpg","0","1","0","",""
"","feedback","","html-keyboard-response","241","313290","0.0-1.0-321.0-0.0","0","0","20459","","null","","","null","35","","","","","","","","","","","","","","","",""
"","time_out","","html-keyboard-response","242","315292","0.0-1.0-323.0-0.0","0","0","20459","","null","","","null","35","","","","","","","","","","","","","","","",""
"","ITI","","html-keyboard-response","243","316296","0.0-1.0-324.0","0","0","20459","","null","","","null","35","","","","","","","","","","","","","","","NaN",""
"","S1","","html-keyboard-response","244","316549","0.0-1.0-326.0","0","0","20459","","null","","","null","36","","","","","","","","","","","","","","","",""
"","ISI","","html-keyboard-response","245","318551","0.0-1.0-327.0","0","0","20459","","null","","","null","36","NaN","","","","","","","","","","","","","","",""
"","S2","","html-keyboard-response","246","318804","0.0-1.0-328.0","0","0","20459","","null","","","null","36","","NaN","","","","","","","","","","","","","",""
"","response","","html-keyboard-response","247","320216","0.0-1.0-329.0-0.0","0","0","20459","","1409","","","68","36","","","1","36","training","adjacent","BA","2","1","L.jpg","N.jpg","0","0","1","",""
"","feedback","","html-keyboard-response","248","321221","0.0-1.0-330.0-0.0","0","0","20459","","null","","","null","36","","","","","","","","","","","","","","","",""
"","ITI","","html-keyboard-response","249","322224","0.0-1.0-333.0","0","0","20459","","null","","","null","36","","","","","","","","","","","","","","","NaN",""
"","S1","","html-keyboard-response","250","322478","0.0-1.0-335.0","0","0","20459","","null","","","null","37","","","","","","","","","","","","","","","",""
"","ISI","","html-keyboard-response","251","324481","0.0-1.0-336.0","0","0","20459","","null","","","null","37","NaN","","","","","","","","","","","","","","",""
"","S2","","html-keyboard-response","252","324734","0.0-1.0-337.0","0","0","20459","","null","","","null","37","","NaN","","","","","","","","","","","","","",""
"","response","","html-keyboard-response","253","326487","0.0-1.0-338.0-0.0","0","0","20459","","null","","","null","37","","","1","37","training","adjacent","DE","4","5","O.jpg","M.jpg","NaN","1","0","",""
"","too_slow_prompt","","html-keyboard-response","254","327490","0.0-1.0-340.0-0.0","1","0","20459","","null","","","null","","","","","","","","","","","","","","","","",""
"","time_out","","html-keyboard-response","255","329493","0.0-1.0-341.0-0.0","0","0","20459","","null","","","null","37","","","","","","","","","","","","","","","",""
"","ITI","","html-keyboard-response","256","330496","0.0-1.0-342.0","0","0","20459","","null","","","null","37","","","","","","","","","","","","","","","NaN",""
"","S1","","html-keyboard-response","257","330749","0.0-1.0-344.0","0","0","20459","","null","","","null","38","","","","","","","","","","","","","","","",""
"","ISI","","html-keyboard-response","258","332758","0.0-1.0-345.0","0","0","20459","","null","","","null","38","NaN","","","","","","","","","","","","","","",""
"","S2","","html-keyboard-response","259","333011","0.0-1.0-346.0","0","0","20459","","null","","","null","38","","NaN","","","","","","","","","","","","","",""
"","response","","html-keyboard-response","260","333267","0.0-1.0-347.0-0.0","0","0","20459","","253","","","75","38","","","1","38","training","adjacent","FE","6","5","P.jpg","M.jpg","1","0","0","",""
"","feedback","","html-keyboard-response","261","334270","0.0-1.0-348.0-0.0","0","0","20459","","null","","","null","38","","","","","","","","","","","","","","","",""
"","time_out","","html-keyboard-response","262","336274","0.0-1.0-350.0-0.0","0","0","20459","","null","","","null","38","","","","","","","","","","","","","","","",""
"","ITI","","html-keyboard-response","263","337277","0.0-1.0-351.0","0","0","20459","","null","","","null","38","","","","","","","","","","","","","","","NaN",""
"","S1","","html-keyboard-response","264","337530","0.0-1.0-353.0","0","0","20459","","null","","","null","39","","","","","","","","","","","","","","","",""
"","ISI","","html-keyboard-response","265","339532","0.0-1.0-354.0","0","0","20459","","null","","","null","39","NaN","","","","","","","","","","","","","","",""
"","S2","","html-keyboard-response","266","339786","0.0-1.0-355.0","0","0","20459","","null","","","null","39","","NaN","","","","","","","","","","","","","",""
"","response","","html-keyboard-response","267","341163","0.0-1.0-356.0-0.0","0","0","20459","","1374","","","75","39","","","1","39","training","adjacent","BC","2","3","L.jpg","R.jpg","1","1","1","",""
"","feedback","","html-keyboard-response","268","342167","0.0-1.0-357.0-0.0","0","0","20459","","null","","","null","39","","","","","","","","","","","","","","","",""
"","ITI","","html-keyboard-response","269","343170","0.0-1.0-360.0","0","0","20459","","null","","","null","39","","","","","","","","","","","","","","","NaN",""
"","S1","","html-keyboard-response","270","343423","0.0-1.0-362.0","0","0","20459","","null","","","null","40","","","","","","","","","","","","","","","",""
"","ISI","","html-keyboard-response","271","345425","0.0-1.0-363.0","0","0","20459","","null","","","null","40","NaN","","","","","","","","","","","","","","",""
"","S2","","html-keyboard-response","272","345679","0.0-1.0-364.0","0","0","20459","","null","","","null","40","","NaN","","","","","","","","","","","","","",""
"","response","","html-keyboard-response","273","346189","0.0-1.0-365.0-0.0","0","0","20459","","508","","","68","40","","","1","40","training","adjacent","AB","1","2","N.jpg","L.jpg","0","1","0","",""
"","feedback","","html-keyboard-response","274","347193","0.0-1.0-366.0-0.0","0","0","20459","","null","","","null","40","","","","","","","","","","","","","","","",""
"","time_out","","html-keyboard-response","275","349195","0.0-1.0-368.0-0.0","0","0","20459","","null","","","null","40","","","","","","","","","","","","","","","",""
"","ITI","","html-keyboard-response","276","350198","0.0-1.0-369.0","0","0","20459","","null","","","null","40","","","","","","","","","","","","","","","NaN",""
"","S1","","html-keyboard-response","277","350451","0.0-1.0-371.0","0","0","20459","","null","","","null","41","","","","","","","","","","","","","","","",""
"","ISI","","html-keyboard-response","278","352454","0.0-1.0-372.0","0","0","20459","","null","","","null","41","NaN","","","","","","","","","","","","","","",""
"","S2","","html-keyboard-response","279","352707","0.0-1.0-373.0","0","0","20459","","null","","","null","41","","NaN","","","","","","","","","","","","","",""
"","response","","html-keyboard-response","280","354181","0.0-1.0-374.0-0.0","0","0","20459","","1472","","","68","41","","","1","41","training","adjacent","DE","4","5","O.jpg","M.jpg","0","1","0","",""
"","feedback","","html-keyboard-response","281","355185","0.0-1.0-375.0-0.0","0","0","20459","","null","","","null","41","","","","","","","","","","","","","","","",""
"","time_out","","html-keyboard-response","282","357189","0.0-1.0-377.0-0.0","0","0","20459","","null","","","null","41","","","","","","","","","","","","","","","",""
"","ITI","","html-keyboard-response","283","358193","0.0-1.0-378.0","0","0","20459","","null","","","null","41","","","","","","","","","","","","","","","NaN",""
"","S1","","html-keyboard-response","284","358446","0.0-1.0-380.0","0","0","20459","","null","","","null","42","","","","","","","","","","","","","","","",""
"","ISI","","html-keyboard-response","285","360449","0.0-1.0-381.0","0","0","20459","","null","","","null","42","NaN","","","","","","","","","","","","","","",""
"","S2","","html-keyboard-response","286","360701","0.0-1.0-382.0","0","0","20459","","null","","","null","42","","NaN","","","","","","","","","","","","","",""
"","response","","html-keyboard-response","287","361362","0.0-1.0-383.0-0.0","0","0","20459","","659","","","75","42","","","1","42","training","adjacent","ED","5","4","M.jpg","O.jpg","1","0","0","",""
"","feedback","","html-keyboard-response","288","362366","0.0-1.0-384.0-0.0","0","0","20459","","null","","","null","42","","","","","","","","","","","","","","","",""
"","time_out","","html-keyboard-response","289","364369","0.0-1.0-386.0-0.0","0","0","20459","","null","","","null","42","","","","","","","","","","","","","","","",""
"","ITI","","html-keyboard-response","290","365372","0.0-1.0-387.0","0","0","20459","","null","","","null","42","","","","","","","","","","","","","","","NaN",""
"","S1","","html-keyboard-response","291","365625","0.0-1.0-389.0","0","0","20459","","null","","","null","43","","","","","","","","","","","","","","","",""
"","ISI","","html-keyboard-response","292","367628","0.0-1.0-390.0","0","0","20459","","null","","","null","43","NaN","","","","","","","","","","","","","","",""
"","S2","","html-keyboard-response","293","367881","0.0-1.0-391.0","0","0","20459","","null","","","null","43","","NaN","","","","","","","","","","","","","",""
"","response","","html-keyboard-response","294","368742","0.0-1.0-392.0-0.0","0","0","20459","","858","","","68","43","","","1","43","training","adjacent","ED","5","4","M.jpg","O.jpg","0","0","1","",""
"","feedback","","html-keyboard-response","295","369745","0.0-1.0-393.0-0.0","0","0","20459","","null","","","null","43","","","","","","","","","","","","","","","",""
"","ITI","","html-keyboard-response","296","370749","0.0-1.0-396.0","0","0","20459","","null","","","null","43","","","","","","","","","","","","","","","NaN",""
"","S1","","html-keyboard-response","297","371002","0.0-1.0-398.0","0","0","20459","","null","","","null","44","","","","","","","","","","","","","","","",""
"","ISI","","html-keyboard-response","298","373005","0.0-1.0-399.0","0","0","20459","","null","","","null","44","NaN","","","","","","","","","","","","","","",""
"","S2","","html-keyboard-response","299","373259","0.0-1.0-400.0","0","0","20459","","null","","","null","44","","NaN","","","","","","","","","","","","","",""
"","response","","html-keyboard-response","300","373926","0.0-1.0-401.0-0.0","0","0","20459","","666","","","68","44","","","1","44","training","adjacent","GF","7","6","Q.jpg","P.jpg","0","0","1","",""
"","feedback","","html-keyboard-response","301","374930","0.0-1.0-402.0-0.0","0","0","20459","","null","","","null","44","","","","","","","","","","","","","","","",""
"","ITI","","html-keyboard-response","302","375933","0.0-1.0-405.0","0","0","20459","","null","","","null","44","","","","","","","","","","","","","","","NaN",""
"","S1","","html-keyboard-response","303","376187","0.0-1.0-407.0","0","0","20459","","null","","","null","45","","","","","","","","","","","","","","","",""
"","ISI","","html-keyboard-response","304","378190","0.0-1.0-408.0","0","0","20459","","null","","","null","45","NaN","","","","","","","","","","","","","","",""
"","S2","","html-keyboard-response","305","378443","0.0-1.0-409.0","0","0","20459","","null","","","null","45","","NaN","","","","","","","","","","","","","",""
"","response","","html-keyboard-response","306","379734","0.0-1.0-410.0-0.0","0","0","20459","","1289","","","68","45","","","1","45","training","adjacent","FE","6","5","P.jpg","M.jpg","0","0","1","",""
"","feedback","","html-keyboard-response","307","380738","0.0-1.0-411.0-0.0","0","0","20459","","null","","","null","45","","","","","","","","","","","","","","","",""
"","ITI","","html-keyboard-response","308","381749","0.0-1.0-414.0","0","0","20459","","null","","","null","45","","","","","","","","","","","","","","","NaN",""
"","S1","","html-keyboard-response","309","382003","0.0-1.0-416.0","0","0","20459","","null","","","null","46","","","","","","","","","","","","","","","",""
"","ISI","","html-keyboard-response","310","384006","0.0-1.0-417.0","0","0","20459","","null","","","null","46","NaN","","","","","","","","","","","","","","",""
"","S2","","html-keyboard-response","311","384260","0.0-1.0-418.0","0","0","20459","","null","","","null","46","","NaN","","","","","","","","","","","","","",""
"","response","","html-keyboard-response","312","385787","0.0-1.0-419.0-0.0","0","0","20459","","1525","","","75","46","","","1","46","training","adjacent","FE","6","5","P.jpg","M.jpg","1","0","0","",""
"","feedback","","html-keyboard-response","313","386790","0.0-1.0-420.0-0.0","0","0","20459","","null","","","null","46","","","","","","","","","","","","","","","",""
"","time_out","","html-keyboard-response","314","388794","0.0-1.0-422.0-0.0","0","0","20459","","null","","","null","46","","","","","","","","","","","","","","","",""
"","ITI","","html-keyboard-response","315","389810","0.0-1.0-423.0","0","0","20459","","null","","","null","46","","","","","","","","","","","","","","","NaN",""
"","S1","","html-keyboard-response","316","390063","0.0-1.0-425.0","0","0","20459","","null","","","null","47","","","","","","","","","","","","","","","",""
"","ISI","","html-keyboard-response","317","392066","0.0-1.0-426.0","0","0","20459","","null","","","null","47","NaN","","","","","","","","","","","","","","",""
"","S2","","html-keyboard-response","318","392320","0.0-1.0-427.0","0","0","20459","","null","","","null","47","","NaN","","","","","","","","","","","","","",""
"","response","","html-keyboard-response","319","393220","0.0-1.0-428.0-0.0","0","0","20459","","898","","","75","47","","","1","47","training","adjacent","FE","6","5","P.jpg","M.jpg","1","0","0","",""
"","feedback","","html-keyboard-response","320","394224","0.0-1.0-429.0-0.0","0","0","20459","","null","","","null","47","","","","","","","","","","","","","","","",""
"","time_out","","html-keyboard-response","321","396227","0.0-1.0-431.0-0.0","0","0","20459","","null","","","null","47","","","","","","","","","","","","","","","",""
"","ITI","","html-keyboard-response","322","397229","0.0-1.0-432.0","0","0","20459","","null","","","null","47","","","","","","","","","","","","","","","NaN",""
"","block_over","","html-keyboard-response","323","401596","0.0-1.0-433.0-0.0","0","0","20459","","4363","","","32","47","","","","","","","","","","","","","","","",""
"","S1","","html-keyboard-response","324","401849","0.0-1.0-434.0","0","0","20459","","null","","","null","48","","","","","","","","","","","","","","","",""
"","ISI","","html-keyboard-response","325","403852","0.0-1.0-435.0","0","0","20459","","null","","","null","48","NaN","","","","","","","","","","","","","","",""
"","S2","","html-keyboard-response","326","404106","0.0-1.0-436.0","0","0","20459","","null","","","null","48","","NaN","","","","","","","","","","","","","",""
"","response","","html-keyboard-response","327","405304","0.0-1.0-437.0-0.0","0","0","20459","","1197","","","75","48","","","2","48","training","adjacent","DE","4","5","O.jpg","M.jpg","1","1","1","",""
"","feedback","","html-keyboard-response","328","406308","0.0-1.0-438.0-0.0","0","0","20459","","null","","","null","48","","","","","","","","","","","","","","","",""
"","ITI","","html-keyboard-response","329","407317","0.0-1.0-441.0","0","0","20459","","null","","","null","48","","","","","","","","","","","","","","","NaN",""
"","S1","","html-keyboard-response","330","407570","0.0-1.0-443.0","0","0","20459","","null","","","null","49","","","","","","","","","","","","","","","",""
"","ISI","","html-keyboard-response","331","409574","0.0-1.0-444.0","0","0","20459","","null","","","null","49","NaN","","","","","","","","","","","","","","",""
"","S2","","html-keyboard-response","332","409828","0.0-1.0-445.0","0","0","20459","","null","","","null","49","","NaN","","","","","","","","","","","","","",""
"","response","","html-keyboard-response","333","410813","0.0-1.0-446.0-0.0","0","0","20459","","983","","","75","49","","","2","49","training","adjacent","ED","5","4","M.jpg","O.jpg","1","0","0","",""
"","feedback","","html-keyboard-response","334","411816","0.0-1.0-447.0-0.0","0","0","20459","","null","","","null","49","","","","","","","","","","","","","","","",""
"","time_out","","html-keyboard-response","335","413819","0.0-1.0-449.0-0.0","0","0","20459","","null","","","null","49","","","","","","","","","","","","","","","",""
"","ITI","","html-keyboard-response","336","414822","0.0-1.0-450.0","0","0","20459","","null","","","null","49","","","","","","","","","","","","","","","NaN",""
"","S1","","html-keyboard-response","337","415076","0.0-1.0-452.0","0","0","20459","","null","","","null","50","","","","","","","","","","","","","","","",""
"","ISI","","html-keyboard-response","338","417080","0.0-1.0-453.0","0","0","20459","","null","","","null","50","NaN","","","","","","","","","","","","","","",""
"","S2","","html-keyboard-response","339","417334","0.0-1.0-454.0","0","0","20459","","null","","","null","50","","NaN","","","","","","","","","","","","","",""
"","response","","html-keyboard-response","340","418243","0.0-1.0-455.0-0.0","0","0","20459","","907","","","68","50","","","2","50","training","adjacent","CD","3","4","R.jpg","O.jpg","0","1","0","",""
"","feedback","","html-keyboard-response","341","419251","0.0-1.0-456.0-0.0","0","0","20459","","null","","","null","50","","","","","","","","","","","","","","","",""
"","time_out","","html-keyboard-response","342","421267","0.0-1.0-458.0-0.0","0","0","20459","","null","","","null","50","","","","","","","","","","","","","","","",""
"","ITI","","html-keyboard-response","343","422271","0.0-1.0-459.0","0","0","20459","","null","","","null","50","","","","","","","","","","","","","","","NaN",""
"","S1","","html-keyboard-response","344","422524","0.0-1.0-461.0","0","0","20459","","null","","","null","51","","","","","","","","","","","","","","","",""
"","ISI","","html-keyboard-response","345","424529","0.0-1.0-462.0","0","0","20459","","null","","","null","51","NaN","","","","","","","","","","","","","","",""
"","S2","","html-keyboard-response","346","424783","0.0-1.0-463.0","0","0","20459","","null","","","null","51","","NaN","","","","","","","","","","","","","",""
"","response","","html-keyboard-response","347","426210","0.0-1.0-464.0-0.0","0","0","20459","","1424","","","68","51","","","2","51","training","adjacent","GF","7","6","Q.jpg","P.jpg","0","0","1","",""
"","feedback","","html-keyboard-response","348","427213","0.0-1.0-465.0-0.0","0","0","20459","","null","","","null","51","","","","","","","","","","","","","","","",""
"","ITI","","html-keyboard-response","349","428217","0.0-1.0-468.0","0","0","20459","","null","","","null","51","","","","","","","","","","","","","","","NaN",""
"","S1","","html-keyboard-response","350","428470","0.0-1.0-470.0","0","0","20459","","null","","","null","52","","","","","","","","","","","","","","","",""
"","ISI","","html-keyboard-response","351","430473","0.0-1.0-471.0","0","0","20459","","null","","","null","52","NaN","","","","","","","","","","","","","","",""
"","S2","","html-keyboard-response","352","430740","0.0-1.0-472.0","0","0","20459","","null","","","null","52","","NaN","","","","","","","","","","","","","",""
"","response","","html-keyboard-response","353","431733","0.0-1.0-473.0-0.0","0","0","20459","","991","","","68","52","","","2","52","training","adjacent","DC","4","3","O.jpg","R.jpg","0","0","1","",""
"","feedback","","html-keyboard-response","354","432738","0.0-1.0-474.0-0.0","0","0","20459","","null","","","null","52","","","","","","","","","","","","","","","",""
"","ITI","","html-keyboard-response","355","433741","0.0-1.0-477.0","0","0","20459","","null","","","null","52","","","","","","","","","","","","","","","NaN",""
"","S1","","html-keyboard-response","356","433994","0.0-1.0-479.0","0","0","20459","","null","","","null","53","","","","","","","","","","","","","","","",""
"","ISI","","html-keyboard-response","357","435997","0.0-1.0-480.0","0","0","20459","","null","","","null","53","NaN","","","","","","","","","","","","","","",""
"","S2","","html-keyboard-response","358","436251","0.0-1.0-481.0","0","0","20459","","null","","","null","53","","NaN","","","","","","","","","","","","","",""
"","response","","html-keyboard-response","359","437261","0.0-1.0-482.0-0.0","0","0","20459","","1008","","","75","53","","","2","53","training","adjacent","FG","6","7","P.jpg","Q.jpg","1","1","1","",""
"","feedback","","html-keyboard-response","360","438266","0.0-1.0-483.0-0.0","0","0","20459","","null","","","null","53","","","","","","","","","","","","","","","",""
"","ITI","","html-keyboard-response","361","439270","0.0-1.0-486.0","0","0","20459","","null","","","null","53","","","","","","","","","","","","","","","NaN",""
"","S1","","html-keyboard-response","362","439524","0.0-1.0-488.0","0","0","20459","","null","","","null","54","","","","","","","","","","","","","","","",""
"","ISI","","html-keyboard-response","363","441526","0.0-1.0-489.0","0","0","20459","","null","","","null","54","NaN","","","","","","","","","","","","","","",""
"","S2","","html-keyboard-response","364","441780","0.0-1.0-490.0","0","0","20459","","null","","","null","54","","NaN","","","","","","","","","","","","","",""
"","response","","html-keyboard-response","365","442291","0.0-1.0-491.0-0.0","0","0","20459","","508","","","75","54","","","2","54","training","adjacent","AB","1","2","N.jpg","L.jpg","1","1","1","",""
"","feedback","","html-keyboard-response","366","443293","0.0-1.0-492.0-0.0","0","0","20459","","null","","","null","54","","","","","","","","","","","","","","","",""
"","ITI","","html-keyboard-response","367","444296","0.0-1.0-495.0","0","0","20459","","null","","","null","54","","","","","","","","","","","","","","","NaN",""
"","S1","","html-keyboard-response","368","444550","0.0-1.0-497.0","0","0","20459","","null","","","null","55","","","","","","","","","","","","","","","",""
"","ISI","","html-keyboard-response","369","446553","0.0-1.0-498.0","0","0","20459","","null","","","null","55","NaN","","","","","","","","","","","","","","",""
"","S2","","html-keyboard-response","370","446806","0.0-1.0-499.0","0","0","20459","","null","","","null","55","","NaN","","","","","","","","","","","","","",""
"","response","","html-keyboard-response","371","447863","0.0-1.0-500.0-0.0","0","0","20459","","1054","","","75","55","","","2","55","training","adjacent","FE","6","5","P.jpg","M.jpg","1","0","0","",""
"","feedback","","html-keyboard-response","372","448866","0.0-1.0-501.0-0.0","0","0","20459","","null","","","null","55","","","","","","","","","","","","","","","",""
"","time_out","","html-keyboard-response","373","450870","0.0-1.0-503.0-0.0","0","0","20459","","null","","","null","55","","","","","","","","","","","","","","","",""
"","ITI","","html-keyboard-response","374","451873","0.0-1.0-504.0","0","0","20459","","null","","","null","55","","","","","","","","","","","","","","","NaN",""
"","S1","","html-keyboard-response","375","452126","0.0-1.0-506.0","0","0","20459","","null","","","null","56","","","","","","","","","","","","","","","",""
"","ISI","","html-keyboard-response","376","454129","0.0-1.0-507.0","0","0","20459","","null","","","null","56","NaN","","","","","","","","","","","","","","",""
"","S2","","html-keyboard-response","377","454383","0.0-1.0-508.0","0","0","20459","","null","","","null","56","","NaN","","","","","","","","","","","","","",""
"","response","","html-keyboard-response","378","454788","0.0-1.0-509.0-0.0","0","0","20459","","403","","","68","56","","","2","56","training","adjacent","GF","7","6","Q.jpg","P.jpg","0","0","1","",""
"","feedback","","html-keyboard-response","379","455791","0.0-1.0-510.0-0.0","0","0","20459","","null","","","null","56","","","","","","","","","","","","","","","",""
"","ITI","","html-keyboard-response","380","456794","0.0-1.0-513.0","0","0","20459","","null","","","null","56","","","","","","","","","","","","","","","NaN",""
"","S1","","html-keyboard-response","381","457048","0.0-1.0-515.0","0","0","20459","","null","","","null","57","","","","","","","","","","","","","","","",""
"","ISI","","html-keyboard-response","382","459052","0.0-1.0-516.0","0","0","20459","","null","","","null","57","NaN","","","","","","","","","","","","","","",""
"","S2","","html-keyboard-response","383","459305","0.0-1.0-517.0","0","0","20459","","null","","","null","57","","NaN","","","","","","","","","","","","","",""
"","response","","html-keyboard-response","384","460733","0.0-1.0-518.0-0.0","0","0","20459","","1426","","","75","57","","","2","57","training","adjacent","EF","5","6","M.jpg","P.jpg","1","1","1","",""
"","feedback","","html-keyboard-response","385","461736","0.0-1.0-519.0-0.0","0","0","20459","","null","","","null","57","","","","","","","","","","","","","","","",""
"","ITI","","html-keyboard-response","386","462740","0.0-1.0-522.0","0","0","20459","","null","","","null","57","","","","","","","","","","","","","","","NaN",""
"","S1","","html-keyboard-response","387","462993","0.0-1.0-524.0","0","0","20459","","null","","","null","58","","","","","","","","","","","","","","","",""
"","ISI","","html-keyboard-response","388","464996","0.0-1.0-525.0","0","0","20459","","null","","","null","58","NaN","","","","","","","","","","","","","","",""
"","S2","","html-keyboard-response","389","465249","0.0-1.0-526.0","0","0","20459","","null","","","null","58","","NaN","","","","","","","","","","","","","",""
"","response","","html-keyboard-response","390","466526","0.0-1.0-527.0-0.0","0","0","20459","","1274","","","75","58","","","2","58","training","adjacent","CB","3","2","R.jpg","L.jpg","1","0","0","",""
"","feedback","","html-keyboard-response","391","467530","0.0-1.0-528.0-0.0","0","0","20459","","null","","","null","58","","","","","","","","","","","","","","","",""
"","time_out","","html-keyboard-response","392","469534","0.0-1.0-530.0-0.0","0","0","20459","","null","","","null","58","","","","","","","","","","","","","","","",""
"","ITI","","html-keyboard-response","393","470536","0.0-1.0-531.0","0","0","20459","","null","","","null","58","","","","","","","","","","","","","","","NaN",""
"","S1","","html-keyboard-response","394","470789","0.0-1.0-533.0","0","0","20459","","null","","","null","59","","","","","","","","","","","","","","","",""
"","ISI","","html-keyboard-response","395","472793","0.0-1.0-534.0","0","0","20459","","null","","","null","59","NaN","","","","","","","","","","","","","","",""
"","S2","","html-keyboard-response","396","473046","0.0-1.0-535.0","0","0","20459","","null","","","null","59","","NaN","","","","","","","","","","","","","",""
"","response","","html-keyboard-response","397","473883","0.0-1.0-536.0-0.0","0","0","20459","","835","","","75","59","","","2","59","training","adjacent","EF","5","6","M.jpg","P.jpg","1","1","1","",""
"","feedback","","html-keyboard-response","398","474886","0.0-1.0-537.0-0.0","0","0","20459","","null","","","null","59","","","","","","","","","","","","","","","",""
"","ITI","","html-keyboard-response","399","475890","0.0-1.0-540.0","0","0","20459","","null","","","null","59","","","","","","","","","","","","","","","NaN",""
"","S1","","html-keyboard-response","400","476143","0.0-1.0-542.0","0","0","20459","","null","","","null","60","","","","","","","","","","","","","","","",""
"","ISI","","html-keyboard-response","401","478146","0.0-1.0-543.0","0","0","20459","","null","","","null","60","NaN","","","","","","","","","","","","","","",""
"","S2","","html-keyboard-response","402","478399","0.0-1.0-544.0","0","0","20459","","null","","","null","60","","NaN","","","","","","","","","","","","","",""
"","response","","html-keyboard-response","403","479218","0.0-1.0-545.0-0.0","0","0","20459","","816","","","68","60","","","2","60","training","adjacent","BA","2","1","L.jpg","N.jpg","0","0","1","",""
"","feedback","","html-keyboard-response","404","480222","0.0-1.0-546.0-0.0","0","0","20459","","null","","","null","60","","","","","","","","","","","","","","","",""
"","ITI","","html-keyboard-response","405","481225","0.0-1.0-549.0","0","0","20459","","null","","","null","60","","","","","","","","","","","","","","","NaN",""
"","S1","","html-keyboard-response","406","481479","0.0-1.0-551.0","0","0","20459","","null","","","null","61","","","","","","","","","","","","","","","",""
"","ISI","","html-keyboard-response","407","483482","0.0-1.0-552.0","0","0","20459","","null","","","null","61","NaN","","","","","","","","","","","","","","",""
"","S2","","html-keyboard-response","408","483735","0.0-1.0-553.0","0","0","20459","","null","","","null","61","","NaN","","","","","","","","","","","","","",""
"","response","","html-keyboard-response","409","484618","0.0-1.0-554.0-0.0","0","0","20459","","880","","","75","61","","","2","61","training","adjacent","GF","7","6","Q.jpg","P.jpg","1","0","0","",""
"","feedback","","html-keyboard-response","410","485621","0.0-1.0-555.0-0.0","0","0","20459","","null","","","null","61","","","","","","","","","","","","","","","",""
"","time_out","","html-keyboard-response","411","487625","0.0-1.0-557.0-0.0","0","0","20459","","null","","","null","61","","","","","","","","","","","","","","","",""
"","ITI","","html-keyboard-response","412","488628","0.0-1.0-558.0","0","0","20459","","null","","","null","61","","","","","","","","","","","","","","","NaN",""
"","S1","","html-keyboard-response","413","488881","0.0-1.0-560.0","0","0","20459","","null","","","null","62","","","","","","","","","","","","","","","",""
"","ISI","","html-keyboard-response","414","490884","0.0-1.0-561.0","0","0","20459","","null","","","null","62","NaN","","","","","","","","","","","","","","",""
"","S2","","html-keyboard-response","415","491146","0.0-1.0-562.0","0","0","20459","","null","","","null","62","","NaN","","","","","","","","","","","","","",""
"","response","","html-keyboard-response","416","492053","0.0-1.0-563.0-0.0","0","0","20459","","904","","","68","62","","","2","62","training","adjacent","BC","2","3","L.jpg","R.jpg","0","1","0","",""
"","feedback","","html-keyboard-response","417","493057","0.0-1.0-564.0-0.0","0","0","20459","","null","","","null","62","","","","","","","","","","","","","","","",""
"","time_out","","html-keyboard-response","418","495059","0.0-1.0-566.0-0.0","0","0","20459","","null","","","null","62","","","","","","","","","","","","","","","",""
"","ITI","","html-keyboard-response","419","496063","0.0-1.0-567.0","0","0","20459","","null","","","null","62","","","","","","","","","","","","","","","NaN",""
"","S1","","html-keyboard-response","420","496316","0.0-1.0-569.0","0","0","20459","","null","","","null","63","","","","","","","","","","","","","","","",""
"","ISI","","html-keyboard-response","421","498319","0.0-1.0-570.0","0","0","20459","","null","","","null","63","NaN","","","","","","","","","","","","","","",""
"","S2","","html-keyboard-response","422","498573","0.0-1.0-571.0","0","0","20459","","null","","","null","63","","NaN","","","","","","","","","","","","","",""
"","response","","html-keyboard-response","423","499231","0.0-1.0-572.0-0.0","0","0","20459","","656","","","75","63","","","2","63","training","adjacent","AB","1","2","N.jpg","L.jpg","1","1","1","",""
"","feedback","","html-keyboard-response","424","500235","0.0-1.0-573.0-0.0","0","0","20459","","null","","","null","63","","","","","","","","","","","","","","","",""
"","ITI","","html-keyboard-response","425","501240","0.0-1.0-576.0","0","0","20459","","null","","","null","63","","","","","","","","","","","","","","","NaN",""
"","S1","","html-keyboard-response","426","501493","0.0-1.0-578.0","0","0","20459","","null","","","null","64","","","","","","","","","","","","","","","",""
"","ISI","","html-keyboard-response","427","503496","0.0-1.0-579.0","0","0","20459","","null","","","null","64","NaN","","","","","","","","","","","","","","",""
"","S2","","html-keyboard-response","428","503750","0.0-1.0-580.0","0","0","20459","","null","","","null","64","","NaN","","","","","","","","","","","","","",""
"","response","","html-keyboard-response","429","504312","0.0-1.0-581.0-0.0","0","0","20459","","561","","","68","64","","","2","64","training","adjacent","BA","2","1","L.jpg","N.jpg","0","0","1","",""
"","feedback","","html-keyboard-response","430","505316","0.0-1.0-582.0-0.0","0","0","20459","","null","","","null","64","","","","","","","","","","","","","","","",""
"","ITI","","html-keyboard-response","431","506320","0.0-1.0-585.0","0","0","20459","","null","","","null","64","","","","","","","","","","","","","","","NaN",""
"","S1","","html-keyboard-response","432","506574","0.0-1.0-587.0","0","0","20459","","null","","","null","65","","","","","","","","","","","","","","","",""
"","ISI","","html-keyboard-response","433","508578","0.0-1.0-588.0","0","0","20459","","null","","","null","65","NaN","","","","","","","","","","","","","","",""
"","S2","","html-keyboard-response","434","508830","0.0-1.0-589.0","0","0","20459","","null","","","null","65","","NaN","","","","","","","","","","","","","",""
"","response","","html-keyboard-response","435","509270","0.0-1.0-590.0-0.0","0","0","20459","","437","","","75","65","","","2","65","training","adjacent","AB","1","2","N.jpg","L.jpg","1","1","1","",""
"","feedback","","html-keyboard-response","436","510274","0.0-1.0-591.0-0.0","0","0","20459","","null","","","null","65","","","","","","","","","","","","","","","",""
"","ITI","","html-keyboard-response","437","511277","0.0-1.0-594.0","0","0","20459","","null","","","null","65","","","","","","","","","","","","","","","NaN",""
"","S1","","html-keyboard-response","438","511531","0.0-1.0-596.0","0","0","20459","","null","","","null","66","","","","","","","","","","","","","","","",""
"","ISI","","html-keyboard-response","439","513534","0.0-1.0-597.0","0","0","20459","","null","","","null","66","NaN","","","","","","","","","","","","","","",""
"","S2","","html-keyboard-response","440","513788","0.0-1.0-598.0","0","0","20459","","null","","","null","66","","NaN","","","","","","","","","","","","","",""
"","response","","html-keyboard-response","441","515541","0.0-1.0-599.0-0.0","0","0","20459","","null","","","null","66","","","2","66","training","adjacent","DE","4","5","O.jpg","M.jpg","NaN","1","0","",""
"","too_slow_prompt","","html-keyboard-response","442","516549","0.0-1.0-601.0-0.0","1","0","20459","","null","","","null","","","","","","","","","","","","","","","","",""
"","time_out","","html-keyboard-response","443","518553","0.0-1.0-602.0-0.0","0","0","20459","","null","","","null","66","","","","","","","","","","","","","","","",""
"","ITI","","html-keyboard-response","444","519557","0.0-1.0-603.0","0","0","20459","","null","","","null","66","","","","","","","","","","","","","","","NaN",""
"","S1","","html-keyboard-response","445","519811","0.0-1.0-605.0","0","0","20459","","null","","","null","67","","","","","","","","","","","","","","","",""
"","ISI","","html-keyboard-response","446","521813","0.0-1.0-606.0","0","0","20459","","null","","","null","67","NaN","","","","","","","","","","","","","","",""
"","S2","","html-keyboard-response","447","522067","0.0-1.0-607.0","0","0","20459","","null","","","null","67","","NaN","","","","","","","","","","","","","",""
"","response","","html-keyboard-response","448","522920","0.0-1.0-608.0-0.0","0","0","20459","","851","","","75","67","","","2","67","training","adjacent","CD","3","4","R.jpg","O.jpg","1","1","1","",""
"","feedback","","html-keyboard-response","449","523924","0.0-1.0-609.0-0.0","0","0","20459","","null","","","null","67","","","","","","","","","","","","","","","",""
"","ITI","","html-keyboard-response","450","524926","0.0-1.0-612.0","0","0","20459","","null","","","null","67","","","","","","","","","","","","","","","NaN",""
"","S1","","html-keyboard-response","451","525180","0.0-1.0-614.0","0","0","20459","","null","","","null","68","","","","","","","","","","","","","","","",""
"","ISI","","html-keyboard-response","452","527182","0.0-1.0-615.0","0","0","20459","","null","","","null","68","NaN","","","","","","","","","","","","","","",""
"","S2","","html-keyboard-response","453","527437","0.0-1.0-616.0","0","0","20459","","null","","","null","68","","NaN","","","","","","","","","","","","","",""
"","response","","html-keyboard-response","454","528130","0.0-1.0-617.0-0.0","0","0","20459","","690","","","75","68","","","2","68","training","adjacent","CB","3","2","R.jpg","L.jpg","1","0","0","",""
"","feedback","","html-keyboard-response","455","529134","0.0-1.0-618.0-0.0","0","0","20459","","null","","","null","68","","","","","","","","","","","","","","","",""
"","time_out","","html-keyboard-response","456","531138","0.0-1.0-620.0-0.0","0","0","20459","","null","","","null","68","","","","","","","","","","","","","","","",""
"","ITI","","html-keyboard-response","457","532141","0.0-1.0-621.0","0","0","20459","","null","","","null","68","","","","","","","","","","","","","","","NaN",""
"","S1","","html-keyboard-response","458","532395","0.0-1.0-623.0","0","0","20459","","null","","","null","69","","","","","","","","","","","","","","","",""
"","ISI","","html-keyboard-response","459","534399","0.0-1.0-624.0","0","0","20459","","null","","","null","69","NaN","","","","","","","","","","","","","","",""
"","S2","","html-keyboard-response","460","534654","0.0-1.0-625.0","0","0","20459","","null","","","null","69","","NaN","","","","","","","","","","","","","",""
"","response","","html-keyboard-response","461","535547","0.0-1.0-626.0-0.0","0","0","20459","","890","","","75","69","","","2","69","training","adjacent","CD","3","4","R.jpg","O.jpg","1","1","1","",""
"","feedback","","html-keyboard-response","462","536551","0.0-1.0-627.0-0.0","0","0","20459","","null","","","null","69","","","","","","","","","","","","","","","",""
"","ITI","","html-keyboard-response","463","537554","0.0-1.0-630.0","0","0","20459","","null","","","null","69","","","","","","","","","","","","","","","NaN",""
"","S1","","html-keyboard-response","464","537816","0.0-1.0-632.0","0","0","20459","","null","","","null","70","","","","","","","","","","","","","","","",""
"","ISI","","html-keyboard-response","465","539819","0.0-1.0-633.0","0","0","20459","","null","","","null","70","NaN","","","","","","","","","","","","","","",""
"","S2","","html-keyboard-response","466","540071","0.0-1.0-634.0","0","0","20459","","null","","","null","70","","NaN","","","","","","","","","","","","","",""
"","response","","html-keyboard-response","467","540907","0.0-1.0-635.0-0.0","0","0","20459","","834","","","68","70","","","2","70","training","adjacent","EF","5","6","M.jpg","P.jpg","0","1","0","",""
"","feedback","","html-keyboard-response","468","541911","0.0-1.0-636.0-0.0","0","0","20459","","null","","","null","70","","","","","","","","","","","","","","","",""
"","time_out","","html-keyboard-response","469","543914","0.0-1.0-638.0-0.0","0","0","20459","","null","","","null","70","","","","","","","","","","","","","","","",""
"","ITI","","html-keyboard-response","470","544918","0.0-1.0-639.0","0","0","20459","","null","","","null","70","","","","","","","","","","","","","","","NaN",""
"","S1","","html-keyboard-response","471","545172","0.0-1.0-641.0","0","0","20459","","null","","","null","71","","","","","","","","","","","","","","","",""
"","ISI","","html-keyboard-response","472","547175","0.0-1.0-642.0","0","0","20459","","null","","","null","71","NaN","","","","","","","","","","","","","","",""
"","S2","","html-keyboard-response","473","547428","0.0-1.0-643.0","0","0","20459","","null","","","null","71","","NaN","","","","","","","","","","","","","",""
"","response","","html-keyboard-response","474","548348","0.0-1.0-644.0-0.0","0","0","20459","","918","","","68","71","","","2","71","training","adjacent","ED","5","4","M.jpg","O.jpg","0","0","1","",""
"","feedback","","html-keyboard-response","475","549352","0.0-1.0-645.0-0.0","0","0","20459","","null","","","null","71","","","","","","","","","","","","","","","",""
"","ITI","","html-keyboard-response","476","550356","0.0-1.0-648.0","0","0","20459","","null","","","null","71","","","","","","","","","","","","","","","NaN",""
"","S1","","html-keyboard-response","477","550610","0.0-1.0-650.0","0","0","20459","","null","","","null","72","","","","","","","","","","","","","","","",""
"","ISI","","html-keyboard-response","478","552612","0.0-1.0-651.0","0","0","20459","","null","","","null","72","NaN","","","","","","","","","","","","","","",""
"","S2","","html-keyboard-response","479","552866","0.0-1.0-652.0","0","0","20459","","null","","","null","72","","NaN","","","","","","","","","","","","","",""
"","response","","html-keyboard-response","480","553485","0.0-1.0-653.0-0.0","0","0","20459","","618","","","75","72","","","2","72","training","adjacent","FG","6","7","P.jpg","Q.jpg","1","1","1","",""
"","feedback","","html-keyboard-response","481","554490","0.0-1.0-654.0-0.0","0","0","20459","","null","","","null","72","","","","","","","","","","","","","","","",""
"","ITI","","html-keyboard-response","482","555494","0.0-1.0-657.0","0","0","20459","","null","","","null","72","","","","","","","","","","","","","","","NaN",""
"","S1","","html-keyboard-response","483","555749","0.0-1.0-659.0","0","0","20459","","null","","","null","73","","","","","","","","","","","","","","","",""
"","ISI","","html-keyboard-response","484","557752","0.0-1.0-660.0","0","0","20459","","null","","","null","73","NaN","","","","","","","","","","","","","","",""
"","S2","","html-keyboard-response","485","558006","0.0-1.0-661.0","0","0","20459","","null","","","null","73","","NaN","","","","","","","","","","","","","",""
"","response","","html-keyboard-response","486","559244","0.0-1.0-662.0-0.0","0","0","20459","","1236","","","75","73","","","2","73","training","adjacent","DC","4","3","O.jpg","R.jpg","1","0","0","",""
"","feedback","","html-keyboard-response","487","560247","0.0-1.0-663.0-0.0","0","0","20459","","null","","","null","73","","","","","","","","","","","","","","","",""
"","time_out","","html-keyboard-response","488","562251","0.0-1.0-665.0-0.0","0","0","20459","","null","","","null","73","","","","","","","","","","","","","","","",""
"","ITI","","html-keyboard-response","489","563253","0.0-1.0-666.0","0","0","20459","","null","","","null","73","","","","","","","","","","","","","","","NaN",""
"","S1","","html-keyboard-response","490","563507","0.0-1.0-668.0","0","0","20459","","null","","","null","74","","","","","","","","","","","","","","","",""
"","ISI","","html-keyboard-response","491","565510","0.0-1.0-669.0","0","0","20459","","null","","","null","74","NaN","","","","","","","","","","","","","","",""
"","S2","","html-keyboard-response","492","565763","0.0-1.0-670.0","0","0","20459","","null","","","null","74","","NaN","","","","","","","","","","","","","",""
"","response","","html-keyboard-response","493","567247","0.0-1.0-671.0-0.0","0","0","20459","","1482","","","75","74","","","2","74","training","adjacent","EF","5","6","M.jpg","P.jpg","1","1","1","",""
"","feedback","","html-keyboard-response","494","568251","0.0-1.0-672.0-0.0","0","0","20459","","null","","","null","74","","","","","","","","","","","","","","","",""
"","ITI","","html-keyboard-response","495","569265","0.0-1.0-675.0","0","0","20459","","null","","","null","74","","","","","","","","","","","","","","","NaN",""
"","S1","","html-keyboard-response","496","569528","0.0-1.0-677.0","0","0","20459","","null","","","null","75","","","","","","","","","","","","","","","",""
"","ISI","","html-keyboard-response","497","571531","0.0-1.0-678.0","0","0","20459","","null","","","null","75","NaN","","","","","","","","","","","","","","",""
"","S2","","html-keyboard-response","498","571785","0.0-1.0-679.0","0","0","20459","","null","","","null","75","","NaN","","","","","","","","","","","","","",""
"","response","","html-keyboard-response","499","572404","0.0-1.0-680.0-0.0","0","0","20459","","617","","","75","75","","","2","75","training","adjacent","CB","3","2","R.jpg","L.jpg","1","0","0","",""
"","feedback","","html-keyboard-response","500","573408","0.0-1.0-681.0-0.0","0","0","20459","","null","","","null","75","","","","","","","","","","","","","","","",""
"","time_out","","html-keyboard-response","501","575411","0.0-1.0-683.0-0.0","0","0","20459","","null","","","null","75","","","","","","","","","","","","","","","",""
"","ITI","","html-keyboard-response","502","576414","0.0-1.0-684.0","0","0","20459","","null","","","null","75","","","","","","","","","","","","","","","NaN",""
"","S1","","html-keyboard-response","503","576668","0.0-1.0-686.0","0","0","20459","","null","","","null","76","","","","","","","","","","","","","","","",""
"","ISI","","html-keyboard-response","504","578671","0.0-1.0-687.0","0","0","20459","","null","","","null","76","NaN","","","","","","","","","","","","","","",""
"","S2","","html-keyboard-response","505","578924","0.0-1.0-688.0","0","0","20459","","null","","","null","76","","NaN","","","","","","","","","","","","","",""
"","response","","html-keyboard-response","506","579691","0.0-1.0-689.0-0.0","0","0","20459","","764","","","75","76","","","2","76","training","adjacent","FG","6","7","P.jpg","Q.jpg","1","1","1","",""
"","feedback","","html-keyboard-response","507","580696","0.0-1.0-690.0-0.0","0","0","20459","","null","","","null","76","","","","","","","","","","","","","","","",""
"","ITI","","html-keyboard-response","508","581699","0.0-1.0-693.0","0","0","20459","","null","","","null","76","","","","","","","","","","","","","","","NaN",""
"","S1","","html-keyboard-response","509","581952","0.0-1.0-695.0","0","0","20459","","null","","","null","77","","","","","","","","","","","","","","","",""
"","ISI","","html-keyboard-response","510","583954","0.0-1.0-696.0","0","0","20459","","null","","","null","77","NaN","","","","","","","","","","","","","","",""
"","S2","","html-keyboard-response","511","584208","0.0-1.0-697.0","0","0","20459","","null","","","null","77","","NaN","","","","","","","","","","","","","",""
"","response","","html-keyboard-response","512","585200","0.0-1.0-698.0-0.0","0","0","20459","","990","","","68","77","","","2","77","training","adjacent","BC","2","3","L.jpg","R.jpg","0","1","0","",""
"","feedback","","html-keyboard-response","513","586204","0.0-1.0-699.0-0.0","0","0","20459","","null","","","null","77","","","","","","","","","","","","","","","",""
"","time_out","","html-keyboard-response","514","588207","0.0-1.0-701.0-0.0","0","0","20459","","null","","","null","77","","","","","","","","","","","","","","","",""
"","ITI","","html-keyboard-response","515","589210","0.0-1.0-702.0","0","0","20459","","null","","","null","77","","","","","","","","","","","","","","","NaN",""
"","S1","","html-keyboard-response","516","589464","0.0-1.0-704.0","0","0","20459","","null","","","null","78","","","","","","","","","","","","","","","",""
"","ISI","","html-keyboard-response","517","591468","0.0-1.0-705.0","0","0","20459","","null","","","null","78","NaN","","","","","","","","","","","","","","",""
"","S2","","html-keyboard-response","518","591721","0.0-1.0-706.0","0","0","20459","","null","","","null","78","","NaN","","","","","","","","","","","","","",""
"","response","","html-keyboard-response","519","592475","0.0-1.0-707.0-0.0","0","0","20459","","752","","","75","78","","","2","78","training","adjacent","ED","5","4","M.jpg","O.jpg","1","0","0","",""
"","feedback","","html-keyboard-response","520","593478","0.0-1.0-708.0-0.0","0","0","20459","","null","","","null","78","","","","","","","","","","","","","","","",""
"","time_out","","html-keyboard-response","521","595482","0.0-1.0-710.0-0.0","0","0","20459","","null","","","null","78","","","","","","","","","","","","","","","",""
"","ITI","","html-keyboard-response","522","596486","0.0-1.0-711.0","0","0","20459","","null","","","null","78","","","","","","","","","","","","","","","NaN",""
"","S1","","html-keyboard-response","523","596739","0.0-1.0-713.0","0","0","20459","","null","","","null","79","","","","","","","","","","","","","","","",""
"","ISI","","html-keyboard-response","524","598742","0.0-1.0-714.0","0","0","20459","","null","","","null","79","NaN","","","","","","","","","","","","","","",""
"","S2","","html-keyboard-response","525","598995","0.0-1.0-715.0","0","0","20459","","null","","","null","79","","NaN","","","","","","","","","","","","","",""
"","response","","html-keyboard-response","526","599693","0.0-1.0-716.0-0.0","0","0","20459","","696","","","75","79","","","2","79","training","adjacent","DC","4","3","O.jpg","R.jpg","1","0","0","",""
"","feedback","","html-keyboard-response","527","600698","0.0-1.0-717.0-0.0","0","0","20459","","null","","","null","79","","","","","","","","","","","","","","","",""
"","time_out","","html-keyboard-response","528","602701","0.0-1.0-719.0-0.0","0","0","20459","","null","","","null","79","","","","","","","","","","","","","","","",""
"","ITI","","html-keyboard-response","529","603704","0.0-1.0-720.0","0","0","20459","","null","","","null","79","","","","","","","","","","","","","","","NaN",""
"","S1","","html-keyboard-response","530","603971","0.0-1.0-722.0","0","0","20459","","null","","","null","80","","","","","","","","","","","","","","","",""
"","ISI","","html-keyboard-response","531","605974","0.0-1.0-723.0","0","0","20459","","null","","","null","80","NaN","","","","","","","","","","","","","","",""
"","S2","","html-keyboard-response","532","606226","0.0-1.0-724.0","0","0","20459","","null","","","null","80","","NaN","","","","","","","","","","","","","",""
"","response","","html-keyboard-response","533","607039","0.0-1.0-725.0-0.0","0","0","20459","","811","","","75","80","","","2","80","training","adjacent","BC","2","3","L.jpg","R.jpg","1","1","1","",""
"","feedback","","html-keyboard-response","534","608043","0.0-1.0-726.0-0.0","0","0","20459","","null","","","null","80","","","","","","","","","","","","","","","",""
"","ITI","","html-keyboard-response","535","609046","0.0-1.0-729.0","0","0","20459","","null","","","null","80","","","","","","","","","","","","","","","NaN",""
"","S1","","html-keyboard-response","536","609300","0.0-1.0-731.0","0","0","20459","","null","","","null","81","","","","","","","","","","","","","","","",""
"","ISI","","html-keyboard-response","537","611303","0.0-1.0-732.0","0","0","20459","","null","","","null","81","NaN","","","","","","","","","","","","","","",""
"","S2","","html-keyboard-response","538","611556","0.0-1.0-733.0","0","0","20459","","null","","","null","81","","NaN","","","","","","","","","","","","","",""
"","response","","html-keyboard-response","539","612541","0.0-1.0-734.0-0.0","0","0","20459","","982","","","75","81","","","2","81","training","adjacent","BC","2","3","L.jpg","R.jpg","1","1","1","",""
"","feedback","","html-keyboard-response","540","613545","0.0-1.0-735.0-0.0","0","0","20459","","null","","","null","81","","","","","","","","","","","","","","","",""
"","ITI","","html-keyboard-response","541","614549","0.0-1.0-738.0","0","0","20459","","null","","","null","81","","","","","","","","","","","","","","","NaN",""
"","S1","","html-keyboard-response","542","614802","0.0-1.0-740.0","0","0","20459","","null","","","null","82","","","","","","","","","","","","","","","",""
"","ISI","","html-keyboard-response","543","616805","0.0-1.0-741.0","0","0","20459","","null","","","null","82","NaN","","","","","","","","","","","","","","",""
"","S2","","html-keyboard-response","544","617059","0.0-1.0-742.0","0","0","20459","","null","","","null","82","","NaN","","","","","","","","","","","","","",""
"","response","","html-keyboard-response","545","617551","0.0-1.0-743.0-0.0","0","0","20459","","489","","","68","82","","","2","82","training","adjacent","FE","6","5","P.jpg","M.jpg","0","0","1","",""
"","feedback","","html-keyboard-response","546","618554","0.0-1.0-744.0-0.0","0","0","20459","","null","","","null","82","","","","","","","","","","","","","","","",""
"","ITI","","html-keyboard-response","547","619558","0.0-1.0-747.0","0","0","20459","","null","","","null","82","","","","","","","","","","","","","","","NaN",""
"","S1","","html-keyboard-response","548","619812","0.0-1.0-749.0","0","0","20459","","null","","","null","83","","","","","","","","","","","","","","","",""
"","ISI","","html-keyboard-response","549","621815","0.0-1.0-750.0","0","0","20459","","null","","","null","83","NaN","","","","","","","","","","","","","","",""
"","S2","","html-keyboard-response","550","622068","0.0-1.0-751.0","0","0","20459","","null","","","null","83","","NaN","","","","","","","","","","","","","",""
"","response","","html-keyboard-response","551","622743","0.0-1.0-752.0-0.0","0","0","20459","","673","","","75","83","","","2","83","training","adjacent","GF","7","6","Q.jpg","P.jpg","1","0","0","",""
"","feedback","","html-keyboard-response","552","623747","0.0-1.0-753.0-0.0","0","0","20459","","null","","","null","83","","","","","","","","","","","","","","","",""
"","time_out","","html-keyboard-response","553","625750","0.0-1.0-755.0-0.0","0","0","20459","","null","","","null","83","","","","","","","","","","","","","","","",""
"","ITI","","html-keyboard-response","554","626753","0.0-1.0-756.0","0","0","20459","","null","","","null","83","","","","","","","","","","","","","","","NaN",""
"","S1","","html-keyboard-response","555","627006","0.0-1.0-758.0","0","0","20459","","null","","","null","84","","","","","","","","","","","","","","","",""
"","ISI","","html-keyboard-response","556","629010","0.0-1.0-759.0","0","0","20459","","null","","","null","84","NaN","","","","","","","","","","","","","","",""
"","S2","","html-keyboard-response","557","629263","0.0-1.0-760.0","0","0","20459","","null","","","null","84","","NaN","","","","","","","","","","","","","",""
"","response","","html-keyboard-response","558","630287","0.0-1.0-761.0-0.0","0","0","20459","","1021","","","75","84","","","2","84","training","adjacent","DE","4","5","O.jpg","M.jpg","1","1","1","",""
"","feedback","","html-keyboard-response","559","631291","0.0-1.0-762.0-0.0","0","0","20459","","null","","","null","84","","","","","","","","","","","","","","","",""
"","ITI","","html-keyboard-response","560","632294","0.0-1.0-765.0","0","0","20459","","null","","","null","84","","","","","","","","","","","","","","","NaN",""
"","S1","","html-keyboard-response","561","632548","0.0-1.0-767.0","0","0","20459","","null","","","null","85","","","","","","","","","","","","","","","",""
"","ISI","","html-keyboard-response","562","634551","0.0-1.0-768.0","0","0","20459","","null","","","null","85","NaN","","","","","","","","","","","","","","",""
"","S2","","html-keyboard-response","563","634806","0.0-1.0-769.0","0","0","20459","","null","","","null","85","","NaN","","","","","","","","","","","","","",""
"","response","","html-keyboard-response","564","635166","0.0-1.0-770.0-0.0","0","0","20459","","358","","","68","85","","","2","85","training","adjacent","FE","6","5","P.jpg","M.jpg","0","0","1","",""
"","feedback","","html-keyboard-response","565","636170","0.0-1.0-771.0-0.0","0","0","20459","","null","","","null","85","","","","","","","","","","","","","","","",""
"","ITI","","html-keyboard-response","566","637173","0.0-1.0-774.0","0","0","20459","","null","","","null","85","","","","","","","","","","","","","","","NaN",""
"","S1","","html-keyboard-response","567","637428","0.0-1.0-776.0","0","0","20459","","null","","","null","86","","","","","","","","","","","","","","","",""
"","ISI","","html-keyboard-response","568","639431","0.0-1.0-777.0","0","0","20459","","null","","","null","86","NaN","","","","","","","","","","","","","","",""
"","S2","","html-keyboard-response","569","639684","0.0-1.0-778.0","0","0","20459","","null","","","null","86","","NaN","","","","","","","","","","","","","",""
"","response","","html-keyboard-response","570","640346","0.0-1.0-779.0-0.0","0","0","20459","","660","","","68","86","","","2","86","training","adjacent","BA","2","1","L.jpg","N.jpg","0","0","1","",""
"","feedback","","html-keyboard-response","571","641350","0.0-1.0-780.0-0.0","0","0","20459","","null","","","null","86","","","","","","","","","","","","","","","",""
"","ITI","","html-keyboard-response","572","642353","0.0-1.0-783.0","0","0","20459","","null","","","null","86","","","","","","","","","","","","","","","NaN",""
"","S1","","html-keyboard-response","573","642607","0.0-1.0-785.0","0","0","20459","","null","","","null","87","","","","","","","","","","","","","","","",""
"","ISI","","html-keyboard-response","574","644611","0.0-1.0-786.0","0","0","20459","","null","","","null","87","NaN","","","","","","","","","","","","","","",""
"","S2","","html-keyboard-response","575","644864","0.0-1.0-787.0","0","0","20459","","null","","","null","87","","NaN","","","","","","","","","","","","","",""
"","response","","html-keyboard-response","576","645454","0.0-1.0-788.0-0.0","0","0","20459","","587","","","68","87","","","2","87","training","adjacent","BA","2","1","L.jpg","N.jpg","0","0","1","",""
"","feedback","","html-keyboard-response","577","646458","0.0-1.0-789.0-0.0","0","0","20459","","null","","","null","87","","","","","","","","","","","","","","","",""
"","ITI","","html-keyboard-response","578","647461","0.0-1.0-792.0","0","0","20459","","null","","","null","87","","","","","","","","","","","","","","","NaN",""
"","S1","","html-keyboard-response","579","647715","0.0-1.0-794.0","0","0","20459","","null","","","null","88","","","","","","","","","","","","","","","",""
