"success","ttype","start_time","trial_type","trial_index","time_elapsed","internal_node_id","warning","missed_checkup","PID","view_history","rt","responses","repeat_instructions","key_press","index","keypress_isi","keypress_S2","block","trial_num","phase","group_type","pair_type","S1_stim","S2_stim","S1_img","S2_img","S1_chosen","S1_higher","accuracy","keypress_iti","total_bonus_tally"
"true","full_screen","d04132023hr1655","fullscreen","0","57801","0.0-0.0","0","0","21851","","","","","","","","","","","","","","","","","","","","","",""
"","instructions","","instructions","1","177443","0.0-1.0-0.0-0.0","0","0","21851","[{""page_index"":0,""viewing_time"":6430},{""page_index"":1,""viewing_time"":77414},{""page_index"":2,""viewing_time"":32970},{""page_index"":3,""viewing_time"":2824}]","119639","","","","","","","","","","","","","","","","","","","",""
"","comprehension_check","","survey-multi-choice","2","256154","0.0-1.0-0.0-1.0","0","0","21851","","78699","{""Q0"":""True"",""Q1"":""K"",""Q2"":""Once the second image appears and while the screen 'MAKE A CHOICE' is shown"",""Q3"":""Green mark"",""Q4"":""either D or K""}","0","","","","","","","","","","","","","","","","","",""
"","start_exp","","html-keyboard-response","3","259710","0.0-1.0-1.0","0","0","21851","","3553","","","32","","","","","","","","","","","","","","","","",""
"","S1","","html-keyboard-response","4","259970","0.0-1.0-2.0","0","0","21851","","null","","","null","0","","","","","","","","","","","","","","","",""
"","ISI","","html-keyboard-response","5","260977","0.0-1.0-3.0","0","0","21851","","null","","","null","0","NaN","","","","","","","","","","","","","","",""
"","S2","","html-keyboard-response","6","261234","0.0-1.0-4.0","0","0","21851","","null","","","null","0","","NaN","","","","","","","","","","","","","",""
"","response","","html-keyboard-response","7","262783","0.0-1.0-5.0-0.0","0","0","21851","","1547","","","75","0","","","1","0","training","adjacent","BA","2","1","Q.jpg","O.jpg","1","0","0","",""
"","feedback","","html-keyboard-response","8","263793","0.0-1.0-6.0-0.0","0","0","21851","","null","","","null","0","","","","","","","","","","","","","","","",""
"","time_out","","html-keyboard-response","9","265801","0.0-1.0-8.0-0.0","0","0","21851","","null","","","null","0","","","","","","","","","","","","","","","",""
"","ITI","","html-keyboard-response","10","266810","0.0-1.0-9.0","0","0","21851","","null","","","null","0","","","","","","","","","","","","","","","NaN",""
"","S1","","html-keyboard-response","11","267065","0.0-1.0-11.0","0","0","21851","","null","","","null","1","","","","","","","","","","","","","","","",""
"","ISI","","html-keyboard-response","12","268074","0.0-1.0-12.0","0","0","21851","","null","","","null","1","NaN","","","","","","","","","","","","","","",""
"","S2","","html-keyboard-response","13","268330","0.0-1.0-13.0","0","0","21851","","null","","","null","1","","NaN","","","","","","","","","","","","","",""
"","response","","html-keyboard-response","14","269520","0.0-1.0-14.0-0.0","0","0","21851","","1187","","","68","1","","","1","1","training","adjacent","FE","6","5","P.jpg","R.jpg","0","0","1","",""
"","feedback","","html-keyboard-response","15","270529","0.0-1.0-15.0-0.0","0","0","21851","","null","","","null","1","","","","","","","","","","","","","","","",""
"","ITI","","html-keyboard-response","16","271538","0.0-1.0-18.0","0","0","21851","","null","","","null","1","","","","","","","","","","","","","","","NaN",""
"","S1","","html-keyboard-response","17","271793","0.0-1.0-20.0","0","0","21851","","null","","","null","2","","","","","","","","","","","","","","","",""
"","ISI","","html-keyboard-response","18","272801","0.0-1.0-21.0","0","0","21851","","null","","","null","2","NaN","","","","","","","","","","","","","","",""
"","S2","","html-keyboard-response","19","273057","0.0-1.0-22.0","0","0","21851","","null","","","null","2","","NaN","","","","","","","","","","","","","",""
"","response","","html-keyboard-response","20","274810","0.0-1.0-23.0-0.0","0","0","21851","","null","","","null","2","","","1","2","training","adjacent","EF","5","6","R.jpg","P.jpg","NaN","1","0","",""
"","too_slow_prompt","","html-keyboard-response","21","275817","0.0-1.0-25.0-0.0","1","0","21851","","null","","","null","","","","","","","","","","","","","","","","",""
"","time_out","","html-keyboard-response","22","277826","0.0-1.0-26.0-0.0","0","0","21851","","null","","","null","2","","","","","","","","","","","","","","","",""
"","ITI","","html-keyboard-response","23","278833","0.0-1.0-27.0","0","0","21851","","null","","","null","2","","","","","","","","","","","","","","","NaN",""
"","S1","","html-keyboard-response","24","279090","0.0-1.0-29.0","0","0","21851","","null","","","null","3","","","","","","","","","","","","","","","",""
"","ISI","","html-keyboard-response","25","280097","0.0-1.0-30.0","0","0","21851","","null","","","null","3","NaN","","","","","","","","","","","","","","",""
"","S2","","html-keyboard-response","26","280353","0.0-1.0-31.0","0","0","21851","","null","","","null","3","","NaN","","","","","","","","","","","","","",""
"","response","","html-keyboard-response","27","280999","0.0-1.0-32.0-0.0","0","0","21851","","645","","","75","3","","","1","3","training","adjacent","EF","5","6","R.jpg","P.jpg","1","1","1","",""
"","feedback","","html-keyboard-response","28","282001","0.0-1.0-33.0-0.0","0","0","21851","","null","","","null","3","","","","","","","","","","","","","","","",""
"","ITI","","html-keyboard-response","29","283010","0.0-1.0-36.0","0","0","21851","","null","","","null","3","","","","","","","","","","","","","","","NaN",""
"","S1","","html-keyboard-response","30","283266","0.0-1.0-38.0","0","0","21851","","null","","","null","4","","","","","","","","","","","","","","","",""
"","ISI","","html-keyboard-response","31","284274","0.0-1.0-39.0","0","0","21851","","null","","","null","4","NaN","","","","","","","","","","","","","","",""
"","S2","","html-keyboard-response","32","284530","0.0-1.0-40.0","0","0","21851","","null","","","null","4","","NaN","","","","","","","","","","","","","",""
"","response","","html-keyboard-response","33","285632","0.0-1.0-41.0-0.0","0","0","21851","","1099","","","75","4","","","1","4","training","adjacent","FG","6","7","P.jpg","M.jpg","1","1","1","",""
"","feedback","","html-keyboard-response","34","286642","0.0-1.0-42.0-0.0","0","0","21851","","null","","","null","4","","","","","","","","","","","","","","","",""
"","ITI","","html-keyboard-response","35","287649","0.0-1.0-45.0","0","0","21851","","null","","","null","4","","","","","","","","","","","","","","","NaN",""
"","S1","","html-keyboard-response","36","287906","0.0-1.0-47.0","0","0","21851","","null","","","null","5","","","","","","","","","","","","","","","",""
"","ISI","","html-keyboard-response","37","288914","0.0-1.0-48.0","0","0","21851","","null","","","null","5","NaN","","","","","","","","","","","","","","",""
"","S2","","html-keyboard-response","38","289169","0.0-1.0-49.0","0","0","21851","","null","","","null","5","","NaN","","","","","","","","","","","","","",""
"","response","","html-keyboard-response","39","290249","0.0-1.0-50.0-0.0","0","0","21851","","1079","","","75","5","","","1","5","training","adjacent","FG","6","7","P.jpg","M.jpg","1","1","1","",""
"","feedback","","html-keyboard-response","40","291257","0.0-1.0-51.0-0.0","0","0","21851","","null","","","null","5","","","","","","","","","","","","","","","",""
"","ITI","","html-keyboard-response","41","292266","0.0-1.0-54.0","0","0","21851","","null","","","null","5","","","","","","","","","","","","","","","NaN",""
"","S1","","html-keyboard-response","42","292521","0.0-1.0-56.0","0","0","21851","","null","","","null","6","","","","","","","","","","","","","","","",""
"","ISI","","html-keyboard-response","43","293530","0.0-1.0-57.0","0","0","21851","","null","","","null","6","NaN","","","","","","","","","","","","","","",""
"","S2","","html-keyboard-response","44","293787","0.0-1.0-58.0","0","0","21851","","null","","","null","6","","NaN","","","","","","","","","","","","","",""
"","response","","html-keyboard-response","45","294832","0.0-1.0-59.0-0.0","0","0","21851","","1045","","","75","6","","","1","6","training","adjacent","DE","4","5","N.jpg","R.jpg","1","1","1","",""
"","feedback","","html-keyboard-response","46","295842","0.0-1.0-60.0-0.0","0","0","21851","","null","","","null","6","","","","","","","","","","","","","","","",""
"","ITI","","html-keyboard-response","47","296850","0.0-1.0-63.0","0","0","21851","","null","","","null","6","","","","","","","","","","","","","","","NaN",""
"","S1","","html-keyboard-response","48","297106","0.0-1.0-65.0","0","0","21851","","null","","","null","7","","","","","","","","","","","","","","","",""
"","ISI","","html-keyboard-response","49","298113","0.0-1.0-66.0","0","0","21851","","null","","","null","7","NaN","","","","","","","","","","","","","","",""
"","S2","","html-keyboard-response","50","298370","0.0-1.0-67.0","0","0","21851","","null","","","null","7","","NaN","","","","","","","","","","","","","",""
"","response","","html-keyboard-response","51","298985","0.0-1.0-68.0-0.0","0","0","21851","","613","","","75","7","","","1","7","training","adjacent","CD","3","4","L.jpg","N.jpg","1","1","1","",""
"","feedback","","html-keyboard-response","52","299994","0.0-1.0-69.0-0.0","0","0","21851","","null","","","null","7","","","","","","","","","","","","","","","",""
"","ITI","","html-keyboard-response","53","301001","0.0-1.0-72.0","0","0","21851","","null","","","null","7","","","","","","","","","","","","","","","NaN",""
"","S1","","html-keyboard-response","54","301257","0.0-1.0-74.0","0","0","21851","","null","","","null","8","","","","","","","","","","","","","","","",""
"","ISI","","html-keyboard-response","55","302266","0.0-1.0-75.0","0","0","21851","","null","","","null","8","NaN","","","","","","","","","","","","","","",""
"","S2","","html-keyboard-response","56","302521","0.0-1.0-76.0","0","0","21851","","null","","","null","8","","NaN","","","","","","","","","","","","","",""
"","response","","html-keyboard-response","57","303106","0.0-1.0-77.0-0.0","0","0","21851","","582","","","75","8","","","1","8","training","adjacent","GF","7","6","M.jpg","P.jpg","1","0","0","",""
"","feedback","","html-keyboard-response","58","304114","0.0-1.0-78.0-0.0","0","0","21851","","null","","","null","8","","","","","","","","","","","","","","","",""
"","time_out","","html-keyboard-response","59","306122","0.0-1.0-80.0-0.0","0","0","21851","","null","","","null","8","","","","","","","","","","","","","","","",""
"","ITI","","html-keyboard-response","60","307129","0.0-1.0-81.0","0","0","21851","","null","","","null","8","","","","","","","","","","","","","","","NaN",""
"","S1","","html-keyboard-response","61","307385","0.0-1.0-83.0","0","0","21851","","null","","","null","9","","","","","","","","","","","","","","","",""
"","ISI","","html-keyboard-response","62","308393","0.0-1.0-84.0","0","0","21851","","null","","","null","9","NaN","","","","","","","","","","","","","","",""
"","S2","","html-keyboard-response","63","308650","0.0-1.0-85.0","0","0","21851","","null","","","null","9","","NaN","","","","","","","","","","","","","",""
"","response","","html-keyboard-response","64","309402","0.0-1.0-86.0-0.0","0","0","21851","","750","","","75","9","","","1","9","training","adjacent","FG","6","7","P.jpg","M.jpg","1","1","1","",""
"","feedback","","html-keyboard-response","65","310410","0.0-1.0-87.0-0.0","0","0","21851","","null","","","null","9","","","","","","","","","","","","","","","",""
"","ITI","","html-keyboard-response","66","311417","0.0-1.0-90.0","0","0","21851","","null","","","null","9","","","","","","","","","","","","","","","NaN",""
"","S1","","html-keyboard-response","67","311673","0.0-1.0-92.0","0","0","21851","","null","","","null","10","","","","","","","","","","","","","","","",""
"","ISI","","html-keyboard-response","68","312681","0.0-1.0-93.0","0","0","21851","","null","","","null","10","NaN","","","","","","","","","","","","","","",""
"","S2","","html-keyboard-response","69","312937","0.0-1.0-94.0","0","0","21851","","null","","","null","10","","NaN","","","","","","","","","","","","","",""
"","response","","html-keyboard-response","70","313939","0.0-1.0-95.0-0.0","0","0","21851","","999","","","68","10","","","1","10","training","adjacent","AB","1","2","O.jpg","Q.jpg","0","1","0","",""
"","feedback","","html-keyboard-response","71","314946","0.0-1.0-96.0-0.0","0","0","21851","","null","","","null","10","","","","","","","","","","","","","","","",""
"","time_out","","html-keyboard-response","72","316954","0.0-1.0-98.0-0.0","0","0","21851","","null","","","null","10","","","","","","","","","","","","","","","",""
"","ITI","","html-keyboard-response","73","317961","0.0-1.0-99.0","0","0","21851","","null","","","null","10","","","","","","","","","","","","","","","NaN",""
"","S1","","html-keyboard-response","74","318218","0.0-1.0-101.0","0","0","21851","","null","","","null","11","","","","","","","","","","","","","","","",""
"","ISI","","html-keyboard-response","75","319226","0.0-1.0-102.0","0","0","21851","","null","","","null","11","NaN","","","","","","","","","","","","","","",""
"","S2","","html-keyboard-response","76","319481","0.0-1.0-103.0","0","0","21851","","null","","","null","11","","NaN","","","","","","","","","","","","","",""
"","response","","html-keyboard-response","77","319995","0.0-1.0-104.0-0.0","0","0","21851","","512","","","75","11","","","1","11","training","adjacent","BC","2","3","Q.jpg","L.jpg","1","1","1","",""
"","feedback","","html-keyboard-response","78","321001","0.0-1.0-105.0-0.0","0","0","21851","","null","","","null","11","","","","","","","","","","","","","","","",""
"","ITI","","html-keyboard-response","79","322010","0.0-1.0-108.0","0","0","21851","","null","","","null","11","","","","","","","","","","","","","","","NaN",""
"","S1","","html-keyboard-response","80","322266","0.0-1.0-110.0","0","0","21851","","null","","","null","12","","","","","","","","","","","","","","","",""
"","ISI","","html-keyboard-response","81","323273","0.0-1.0-111.0","0","0","21851","","null","","","null","12","NaN","","","","","","","","","","","","","","",""
"","S2","","html-keyboard-response","82","323529","0.0-1.0-112.0","0","0","21851","","null","","","null","12","","NaN","","","","","","","","","","","","","",""
"","response","","html-keyboard-response","83","323979","0.0-1.0-113.0-0.0","0","0","21851","","448","","","75","12","","","1","12","training","adjacent","CD","3","4","L.jpg","N.jpg","1","1","1","",""
"","feedback","","html-keyboard-response","84","324986","0.0-1.0-114.0-0.0","0","0","21851","","null","","","null","12","","","","","","","","","","","","","","","",""
"","ITI","","html-keyboard-response","85","325994","0.0-1.0-117.0","0","0","21851","","null","","","null","12","","","","","","","","","","","","","","","NaN",""
"","S1","","html-keyboard-response","86","326249","0.0-1.0-119.0","0","0","21851","","null","","","null","13","","","","","","","","","","","","","","","",""
"","ISI","","html-keyboard-response","87","327257","0.0-1.0-120.0","0","0","21851","","null","","","null","13","NaN","","","","","","","","","","","","","","",""
"","S2","","html-keyboard-response","88","327513","0.0-1.0-121.0","0","0","21851","","null","","","null","13","","NaN","","","","","","","","","","","","","",""
"","response","","html-keyboard-response","89","328492","0.0-1.0-122.0-0.0","0","0","21851","","976","","","68","13","","","1","13","training","adjacent","CD","3","4","L.jpg","N.jpg","0","1","0","",""
"","feedback","","html-keyboard-response","90","329498","0.0-1.0-123.0-0.0","0","0","21851","","null","","","null","13","","","","","","","","","","","","","","","",""
"","time_out","","html-keyboard-response","91","331505","0.0-1.0-125.0-0.0","0","0","21851","","null","","","null","13","","","","","","","","","","","","","","","",""
"","ITI","","html-keyboard-response","92","332513","0.0-1.0-126.0","0","0","21851","","null","","","null","13","","","","","","","","","","","","","","","NaN",""
"","S1","","html-keyboard-response","93","332769","0.0-1.0-128.0","0","0","21851","","null","","","null","14","","","","","","","","","","","","","","","",""
"","ISI","","html-keyboard-response","94","333778","0.0-1.0-129.0","0","0","21851","","null","","","null","14","NaN","","","","","","","","","","","","","","",""
"","S2","","html-keyboard-response","95","334034","0.0-1.0-130.0","0","0","21851","","null","","","null","14","","NaN","","","","","","","","","","","","","",""
"","response","","html-keyboard-response","96","334452","0.0-1.0-131.0-0.0","0","0","21851","","416","","","75","14","","","1","14","training","adjacent","BC","2","3","Q.jpg","L.jpg","1","1","1","",""
"","feedback","","html-keyboard-response","97","335457","0.0-1.0-132.0-0.0","0","0","21851","","null","","","null","14","","","","","","","","","","","","","","","",""
"","ITI","","html-keyboard-response","98","336465","0.0-1.0-135.0","0","0","21851","","null","","","null","14","","","","","","","","","","","","","","","NaN",""
"","S1","","html-keyboard-response","99","336721","0.0-1.0-137.0","0","0","21851","","null","","","null","15","","","","","","","","","","","","","","","",""
"","ISI","","html-keyboard-response","100","337730","0.0-1.0-138.0","0","0","21851","","null","","","null","15","NaN","","","","","","","","","","","","","","",""
"","S2","","html-keyboard-response","101","337986","0.0-1.0-139.0","0","0","21851","","null","","","null","15","","NaN","","","","","","","","","","","","","",""
"","response","","html-keyboard-response","102","338373","0.0-1.0-140.0-0.0","0","0","21851","","384","","","75","15","","","1","15","training","adjacent","CB","3","2","L.jpg","Q.jpg","1","0","0","",""
"","feedback","","html-keyboard-response","103","339374","0.0-1.0-141.0-0.0","0","0","21851","","null","","","null","15","","","","","","","","","","","","","","","",""
"","time_out","","html-keyboard-response","104","341377","0.0-1.0-143.0-0.0","0","0","21851","","null","","","null","15","","","","","","","","","","","","","","","",""
"","ITI","","html-keyboard-response","105","342386","0.0-1.0-144.0","0","0","21851","","null","","","null","15","","","","","","","","","","","","","","","NaN",""
"","S1","","html-keyboard-response","106","342642","0.0-1.0-146.0","0","0","21851","","null","","","null","16","","","","","","","","","","","","","","","",""
"","ISI","","html-keyboard-response","107","343649","0.0-1.0-147.0","0","0","21851","","null","","","null","16","NaN","","","","","","","","","","","","","","",""
"","S2","","html-keyboard-response","108","343907","0.0-1.0-148.0","0","0","21851","","null","","","null","16","","NaN","","","","","","","","","","","","","",""
"","response","","html-keyboard-response","109","344180","0.0-1.0-149.0-0.0","0","0","21851","","272","","","75","16","","","1","16","training","adjacent","FG","6","7","P.jpg","M.jpg","1","1","1","",""
"","feedback","","html-keyboard-response","110","345186","0.0-1.0-150.0-0.0","0","0","21851","","null","","","null","16","","","","","","","","","","","","","","","",""
"","ITI","","html-keyboard-response","111","346194","0.0-1.0-153.0","0","0","21851","","null","","","null","16","","","","","","","","","","","","","","","NaN",""
"","S1","","html-keyboard-response","112","346450","0.0-1.0-155.0","0","0","21851","","null","","","null","17","","","","","","","","","","","","","","","",""
"","ISI","","html-keyboard-response","113","347457","0.0-1.0-156.0","0","0","21851","","null","","","null","17","NaN","","","","","","","","","","","","","","",""
"","S2","","html-keyboard-response","114","347713","0.0-1.0-157.0","0","0","21851","","null","","","null","17","","NaN","","","","","","","","","","","","","",""
"","response","","html-keyboard-response","115","348365","0.0-1.0-158.0-0.0","0","0","21851","","650","","","75","17","","","1","17","training","adjacent","GF","7","6","M.jpg","P.jpg","1","0","0","",""
"","feedback","","html-keyboard-response","116","349370","0.0-1.0-159.0-0.0","0","0","21851","","null","","","null","17","","","","","","","","","","","","","","","",""
"","time_out","","html-keyboard-response","117","351377","0.0-1.0-161.0-0.0","0","0","21851","","null","","","null","17","","","","","","","","","","","","","","","",""
"","ITI","","html-keyboard-response","118","352385","0.0-1.0-162.0","0","0","21851","","null","","","null","17","","","","","","","","","","","","","","","NaN",""
"","S1","","html-keyboard-response","119","352639","0.0-1.0-164.0","0","0","21851","","null","","","null","18","","","","","","","","","","","","","","","",""
"","ISI","","html-keyboard-response","120","353642","0.0-1.0-165.0","0","0","21851","","null","","","null","18","NaN","","","","","","","","","","","","","","",""
"","S2","","html-keyboard-response","121","353897","0.0-1.0-166.0","0","0","21851","","null","","","null","18","","NaN","","","","","","","","","","","","","",""
"","response","","html-keyboard-response","122","355469","0.0-1.0-167.0-0.0","0","0","21851","","1570","","","75","18","","","1","18","training","adjacent","ED","5","4","R.jpg","N.jpg","1","0","0","",""
"","feedback","","html-keyboard-response","123","356474","0.0-1.0-168.0-0.0","0","0","21851","","null","","","null","18","","","","","","","","","","","","","","","",""
"","time_out","","html-keyboard-response","124","358481","0.0-1.0-170.0-0.0","0","0","21851","","null","","","null","18","","","","","","","","","","","","","","","",""
"","ITI","","html-keyboard-response","125","359489","0.0-1.0-171.0","0","0","21851","","null","","","null","18","","","","","","","","","","","","","","","NaN",""
"","S1","","html-keyboard-response","126","359746","0.0-1.0-173.0","0","0","21851","","null","","","null","19","","","","","","","","","","","","","","","",""
"","ISI","","html-keyboard-response","127","360753","0.0-1.0-174.0","0","0","21851","","null","","","null","19","NaN","","","","","","","","","","","","","","",""
"","S2","","html-keyboard-response","128","361009","0.0-1.0-175.0","0","0","21851","","null","","","null","19","","NaN","","","","","","","","","","","","","",""
"","response","","html-keyboard-response","129","361878","0.0-1.0-176.0-0.0","0","0","21851","","866","","","75","19","","","1","19","training","adjacent","AB","1","2","O.jpg","Q.jpg","1","1","1","",""
"","feedback","","html-keyboard-response","130","362881","0.0-1.0-177.0-0.0","0","0","21851","","null","","","null","19","","","","","","","","","","","","","","","",""
"","ITI","","html-keyboard-response","131","363889","0.0-1.0-180.0","0","0","21851","","null","","","null","19","","","","","","","","","","","","","","","NaN",""
"","S1","","html-keyboard-response","132","364145","0.0-1.0-182.0","0","0","21851","","null","","","null","20","","","","","","","","","","","","","","","",""
"","ISI","","html-keyboard-response","133","365154","0.0-1.0-183.0","0","0","21851","","null","","","null","20","NaN","","","","","","","","","","","","","","",""
"","S2","","html-keyboard-response","134","365410","0.0-1.0-184.0","0","0","21851","","null","","","null","20","","NaN","","","","","","","","","","","","","",""
"","response","","html-keyboard-response","135","365703","0.0-1.0-185.0-0.0","0","0","21851","","290","","","75","20","","","1","20","training","adjacent","AB","1","2","O.jpg","Q.jpg","1","1","1","",""
"","feedback","","html-keyboard-response","136","366706","0.0-1.0-186.0-0.0","0","0","21851","","null","","","null","20","","","","","","","","","","","","","","","",""
"","ITI","","html-keyboard-response","137","367713","0.0-1.0-189.0","0","0","21851","","null","","","null","20","","","","","","","","","","","","","","","NaN",""
"","S1","","html-keyboard-response","138","367969","0.0-1.0-191.0","0","0","21851","","null","","","null","21","","","","","","","","","","","","","","","",""
"","ISI","","html-keyboard-response","139","368977","0.0-1.0-192.0","0","0","21851","","null","","","null","21","NaN","","","","","","","","","","","","","","",""
"","S2","","html-keyboard-response","140","369233","0.0-1.0-193.0","0","0","21851","","null","","","null","21","","NaN","","","","","","","","","","","","","",""
"","response","","html-keyboard-response","141","369831","0.0-1.0-194.0-0.0","0","0","21851","","595","","","75","21","","","1","21","training","adjacent","DC","4","3","N.jpg","L.jpg","1","0","0","",""
"","feedback","","html-keyboard-response","142","370833","0.0-1.0-195.0-0.0","0","0","21851","","null","","","null","21","","","","","","","","","","","","","","","",""
"","time_out","","html-keyboard-response","143","372841","0.0-1.0-197.0-0.0","0","0","21851","","null","","","null","21","","","","","","","","","","","","","","","",""
"","ITI","","html-keyboard-response","144","373850","0.0-1.0-198.0","0","0","21851","","null","","","null","21","","","","","","","","","","","","","","","NaN",""
"","S1","","html-keyboard-response","145","374106","0.0-1.0-200.0","0","0","21851","","null","","","null","22","","","","","","","","","","","","","","","",""
"","ISI","","html-keyboard-response","146","375114","0.0-1.0-201.0","0","0","21851","","null","","","null","22","NaN","","","","","","","","","","","","","","",""
"","S2","","html-keyboard-response","147","375370","0.0-1.0-202.0","0","0","21851","","null","","","null","22","","NaN","","","","","","","","","","","","","",""
"","response","","html-keyboard-response","148","376263","0.0-1.0-203.0-0.0","0","0","21851","","891","","","68","22","","","1","22","training","adjacent","DE","4","5","N.jpg","R.jpg","0","1","0","",""
"","feedback","","html-keyboard-response","149","377266","0.0-1.0-204.0-0.0","0","0","21851","","null","","","null","22","","","","","","","","","","","","","","","",""
"","time_out","","html-keyboard-response","150","379274","0.0-1.0-206.0-0.0","0","0","21851","","null","","","null","22","","","","","","","","","","","","","","","",""
"","ITI","","html-keyboard-response","151","380282","0.0-1.0-207.0","0","0","21851","","null","","","null","22","","","","","","","","","","","","","","","NaN",""
"","S1","","html-keyboard-response","152","380538","0.0-1.0-209.0","0","0","21851","","null","","","null","23","","","","","","","","","","","","","","","",""
"","ISI","","html-keyboard-response","153","381545","0.0-1.0-210.0","0","0","21851","","null","","","null","23","NaN","","","","","","","","","","","","","","",""
"","S2","","html-keyboard-response","154","381801","0.0-1.0-211.0","0","0","21851","","null","","","null","23","","NaN","","","","","","","","","","","","","",""
"","response","","html-keyboard-response","155","382175","0.0-1.0-212.0-0.0","0","0","21851","","372","","","75","23","","","1","23","training","adjacent","ED","5","4","R.jpg","N.jpg","1","0","0","",""
"","feedback","","html-keyboard-response","156","383178","0.0-1.0-213.0-0.0","0","0","21851","","null","","","null","23","","","","","","","","","","","","","","","",""
"","time_out","","html-keyboard-response","157","385186","0.0-1.0-215.0-0.0","0","0","21851","","null","","","null","23","","","","","","","","","","","","","","","",""
"","ITI","","html-keyboard-response","158","386194","0.0-1.0-216.0","0","0","21851","","null","","","null","23","","","","","","","","","","","","","","","NaN",""
"","S1","","html-keyboard-response","159","386450","0.0-1.0-218.0","0","0","21851","","null","","","null","24","","","","","","","","","","","","","","","",""
"","ISI","","html-keyboard-response","160","387457","0.0-1.0-219.0","0","0","21851","","null","","","null","24","NaN","","","","","","","","","","","","","","",""
"","S2","","html-keyboard-response","161","387713","0.0-1.0-220.0","0","0","21851","","null","","","null","24","","NaN","","","","","","","","","","","","","",""
"","response","","html-keyboard-response","162","388464","0.0-1.0-221.0-0.0","0","0","21851","","748","","","75","24","","","1","24","training","adjacent","FE","6","5","P.jpg","R.jpg","1","0","0","",""
"","feedback","","html-keyboard-response","163","389474","0.0-1.0-222.0-0.0","0","0","21851","","null","","","null","24","","","","","","","","","","","","","","","",""
"","time_out","","html-keyboard-response","164","391481","0.0-1.0-224.0-0.0","0","0","21851","","null","","","null","24","","","","","","","","","","","","","","","",""
"","ITI","","html-keyboard-response","165","392489","0.0-1.0-225.0","0","0","21851","","null","","","null","24","","","","","","","","","","","","","","","NaN",""
"","S1","","html-keyboard-response","166","392746","0.0-1.0-227.0","0","0","21851","","null","","","null","25","","","","","","","","","","","","","","","",""
"","ISI","","html-keyboard-response","167","393754","0.0-1.0-228.0","0","0","21851","","null","","","null","25","NaN","","","","","","","","","","","","","","",""
"","S2","","html-keyboard-response","168","394010","0.0-1.0-229.0","0","0","21851","","null","","","null","25","","NaN","","","","","","","","","","","","","",""
"","response","","html-keyboard-response","169","395769","0.0-1.0-230.0-0.0","0","0","21851","","null","","","null","25","","","1","25","training","adjacent","ED","5","4","R.jpg","N.jpg","NaN","0","0","",""
"","too_slow_prompt","","html-keyboard-response","170","396778","0.0-1.0-232.0-0.0","1","0","21851","","null","","","null","","","","","","","","","","","","","","","","",""
"","time_out","","html-keyboard-response","171","398786","0.0-1.0-233.0-0.0","0","0","21851","","null","","","null","25","","","","","","","","","","","","","","","",""
"","ITI","","html-keyboard-response","172","399793","0.0-1.0-234.0","0","0","21851","","null","","","null","25","","","","","","","","","","","","","","","NaN",""
"","S1","","html-keyboard-response","173","400050","0.0-1.0-236.0","0","0","21851","","null","","","null","26","","","","","","","","","","","","","","","",""
"","ISI","","html-keyboard-response","174","401058","0.0-1.0-237.0","0","0","21851","","null","","","null","26","NaN","","","","","","","","","","","","","","",""
"","S2","","html-keyboard-response","175","401313","0.0-1.0-238.0","0","0","21851","","null","","","null","26","","NaN","","","","","","","","","","","","","",""
"","response","","html-keyboard-response","176","401874","0.0-1.0-239.0-0.0","0","0","21851","","558","","","68","26","","","1","26","training","adjacent","FE","6","5","P.jpg","R.jpg","0","0","1","",""
"","feedback","","html-keyboard-response","177","402881","0.0-1.0-240.0-0.0","0","0","21851","","null","","","null","26","","","","","","","","","","","","","","","",""
"","ITI","","html-keyboard-response","178","403889","0.0-1.0-243.0","0","0","21851","","null","","","null","26","","","","","","","","","","","","","","","NaN",""
"","S1","","html-keyboard-response","179","404145","0.0-1.0-245.0","0","0","21851","","null","","","null","27","","","","","","","","","","","","","","","",""
"","ISI","","html-keyboard-response","180","405154","0.0-1.0-246.0","0","0","21851","","null","","","null","27","NaN","","","","","","","","","","","","","","",""
"","S2","","html-keyboard-response","181","405410","0.0-1.0-247.0","0","0","21851","","null","","","null","27","","NaN","","","","","","","","","","","","","",""
"","response","","html-keyboard-response","182","406153","0.0-1.0-248.0-0.0","0","0","21851","","741","","","75","27","","","1","27","training","adjacent","DE","4","5","N.jpg","R.jpg","1","1","1","",""
"","feedback","","html-keyboard-response","183","407162","0.0-1.0-249.0-0.0","0","0","21851","","null","","","null","27","","","","","","","","","","","","","","","",""
"","ITI","","html-keyboard-response","184","408170","0.0-1.0-252.0","0","0","21851","","null","","","null","27","","","","","","","","","","","","","","","NaN",""
"","S1","","html-keyboard-response","185","408426","0.0-1.0-254.0","0","0","21851","","null","","","null","28","","","","","","","","","","","","","","","",""
"","ISI","","html-keyboard-response","186","409434","0.0-1.0-255.0","0","0","21851","","null","","","null","28","NaN","","","","","","","","","","","","","","",""
"","S2","","html-keyboard-response","187","409690","0.0-1.0-256.0","0","0","21851","","null","","","null","28","","NaN","","","","","","","","","","","","","",""
"","response","","html-keyboard-response","188","410481","0.0-1.0-257.0-0.0","0","0","21851","","789","","","75","28","","","1","28","training","adjacent","BA","2","1","Q.jpg","O.jpg","1","0","0","",""
"","feedback","","html-keyboard-response","189","411489","0.0-1.0-258.0-0.0","0","0","21851","","null","","","null","28","","","","","","","","","","","","","","","",""
"","time_out","","html-keyboard-response","190","413498","0.0-1.0-260.0-0.0","0","0","21851","","null","","","null","28","","","","","","","","","","","","","","","",""
"","ITI","","html-keyboard-response","191","414506","0.0-1.0-261.0","0","0","21851","","null","","","null","28","","","","","","","","","","","","","","","NaN",""
"","S1","","html-keyboard-response","192","414761","0.0-1.0-263.0","0","0","21851","","null","","","null","29","","","","","","","","","","","","","","","",""
"","ISI","","html-keyboard-response","193","415769","0.0-1.0-264.0","0","0","21851","","null","","","null","29","NaN","","","","","","","","","","","","","","",""
"","S2","","html-keyboard-response","194","416026","0.0-1.0-265.0","0","0","21851","","null","","","null","29","","NaN","","","","","","","","","","","","","",""
"","response","","html-keyboard-response","195","416411","0.0-1.0-266.0-0.0","0","0","21851","","382","","","68","29","","","1","29","training","adjacent","CB","3","2","L.jpg","Q.jpg","0","0","1","",""
"","feedback","","html-keyboard-response","196","417417","0.0-1.0-267.0-0.0","0","0","21851","","null","","","null","29","","","","","","","","","","","","","","","",""
"","ITI","","html-keyboard-response","197","418426","0.0-1.0-270.0","0","0","21851","","null","","","null","29","","","","","","","","","","","","","","","NaN",""
"","S1","","html-keyboard-response","198","418681","0.0-1.0-272.0","0","0","21851","","null","","","null","30","","","","","","","","","","","","","","","",""
"","ISI","","html-keyboard-response","199","419690","0.0-1.0-273.0","0","0","21851","","null","","","null","30","NaN","","","","","","","","","","","","","","",""
"","S2","","html-keyboard-response","200","419946","0.0-1.0-274.0","0","0","21851","","null","","","null","30","","NaN","","","","","","","","","","","","","",""
"","response","","html-keyboard-response","201","420762","0.0-1.0-275.0-0.0","0","0","21851","","814","","","68","30","","","1","30","training","adjacent","AB","1","2","O.jpg","Q.jpg","0","1","0","",""
"","feedback","","html-keyboard-response","202","421769","0.0-1.0-276.0-0.0","0","0","21851","","null","","","null","30","","","","","","","","","","","","","","","",""
"","time_out","","html-keyboard-response","203","423777","0.0-1.0-278.0-0.0","0","0","21851","","null","","","null","30","","","","","","","","","","","","","","","",""
"","ITI","","html-keyboard-response","204","424786","0.0-1.0-279.0","0","0","21851","","null","","","null","30","","","","","","","","","","","","","","","NaN",""
"","S1","","html-keyboard-response","205","425041","0.0-1.0-281.0","0","0","21851","","null","","","null","31","","","","","","","","","","","","","","","",""
"","ISI","","html-keyboard-response","206","426049","0.0-1.0-282.0","0","0","21851","","null","","","null","31","NaN","","","","","","","","","","","","","","",""
"","S2","","html-keyboard-response","207","426302","0.0-1.0-283.0","0","0","21851","","null","","","null","31","","NaN","","","","","","","","","","","","","",""
"","response","","html-keyboard-response","208","426755","0.0-1.0-284.0-0.0","0","0","21851","","450","","","75","31","","","1","31","training","adjacent","DC","4","3","N.jpg","L.jpg","1","0","0","",""
"","feedback","","html-keyboard-response","209","427761","0.0-1.0-285.0-0.0","0","0","21851","","null","","","null","31","","","","","","","","","","","","","","","",""
"","time_out","","html-keyboard-response","210","429769","0.0-1.0-287.0-0.0","0","0","21851","","null","","","null","31","","","","","","","","","","","","","","","",""
"","ITI","","html-keyboard-response","211","430777","0.0-1.0-288.0","0","0","21851","","null","","","null","31","","","","","","","","","","","","","","","NaN",""
"","S1","","html-keyboard-response","212","431033","0.0-1.0-290.0","0","0","21851","","null","","","null","32","","","","","","","","","","","","","","","",""
"","ISI","","html-keyboard-response","213","432040","0.0-1.0-291.0","0","0","21851","","null","","","null","32","NaN","","","","","","","","","","","","","","",""
"","S2","","html-keyboard-response","214","432296","0.0-1.0-292.0","0","0","21851","","null","","","null","32","","NaN","","","","","","","","","","","","","",""
"","response","","html-keyboard-response","215","433514","0.0-1.0-293.0-0.0","0","0","21851","","1215","","","75","32","","","1","32","training","adjacent","DC","4","3","N.jpg","L.jpg","1","0","0","",""
"","feedback","","html-keyboard-response","216","434521","0.0-1.0-294.0-0.0","0","0","21851","","null","","","null","32","","","","","","","","","","","","","","","",""
"","time_out","","html-keyboard-response","217","436530","0.0-1.0-296.0-0.0","0","0","21851","","null","","","null","32","","","","","","","","","","","","","","","",""
"","ITI","","html-keyboard-response","218","437537","0.0-1.0-297.0","0","0","21851","","null","","","null","32","","","","","","","","","","","","","","","NaN",""
"","S1","","html-keyboard-response","219","437792","0.0-1.0-299.0","0","0","21851","","null","","","null","33","","","","","","","","","","","","","","","",""
"","ISI","","html-keyboard-response","220","438800","0.0-1.0-300.0","0","0","21851","","null","","","null","33","NaN","","","","","","","","","","","","","","",""
"","S2","","html-keyboard-response","221","439056","0.0-1.0-301.0","0","0","21851","","null","","","null","33","","NaN","","","","","","","","","","","","","",""
"","response","","html-keyboard-response","222","440019","0.0-1.0-302.0-0.0","0","0","21851","","960","","","68","33","","","1","33","training","adjacent","BA","2","1","Q.jpg","O.jpg","0","0","1","",""
"","feedback","","html-keyboard-response","223","441025","0.0-1.0-303.0-0.0","0","0","21851","","null","","","null","33","","","","","","","","","","","","","","","",""
"","ITI","","html-keyboard-response","224","442033","0.0-1.0-306.0","0","0","21851","","null","","","null","33","","","","","","","","","","","","","","","NaN",""
"","S1","","html-keyboard-response","225","442289","0.0-1.0-308.0","0","0","21851","","null","","","null","34","","","","","","","","","","","","","","","",""
"","ISI","","html-keyboard-response","226","443297","0.0-1.0-309.0","0","0","21851","","null","","","null","34","NaN","","","","","","","","","","","","","","",""
"","S2","","html-keyboard-response","227","443552","0.0-1.0-310.0","0","0","21851","","null","","","null","34","","NaN","","","","","","","","","","","","","",""
"","response","","html-keyboard-response","228","444467","0.0-1.0-311.0-0.0","0","0","21851","","912","","","75","34","","","1","34","training","adjacent","EF","5","6","R.jpg","P.jpg","1","1","1","",""
"","feedback","","html-keyboard-response","229","445473","0.0-1.0-312.0-0.0","0","0","21851","","null","","","null","34","","","","","","","","","","","","","","","",""
"","ITI","","html-keyboard-response","230","446480","0.0-1.0-315.0","0","0","21851","","null","","","null","34","","","","","","","","","","","","","","","NaN",""
"","S1","","html-keyboard-response","231","446737","0.0-1.0-317.0","0","0","21851","","null","","","null","35","","","","","","","","","","","","","","","",""
"","ISI","","html-keyboard-response","232","447745","0.0-1.0-318.0","0","0","21851","","null","","","null","35","NaN","","","","","","","","","","","","","","",""
"","S2","","html-keyboard-response","233","448000","0.0-1.0-319.0","0","0","21851","","null","","","null","35","","NaN","","","","","","","","","","","","","",""
"","response","","html-keyboard-response","234","448860","0.0-1.0-320.0-0.0","0","0","21851","","857","","","75","35","","","1","35","training","adjacent","GF","7","6","M.jpg","P.jpg","1","0","0","",""
"","feedback","","html-keyboard-response","235","449865","0.0-1.0-321.0-0.0","0","0","21851","","null","","","null","35","","","","","","","","","","","","","","","",""
"","time_out","","html-keyboard-response","236","451873","0.0-1.0-323.0-0.0","0","0","21851","","null","","","null","35","","","","","","","","","","","","","","","",""
"","ITI","","html-keyboard-response","237","452880","0.0-1.0-324.0","0","0","21851","","null","","","null","35","","","","","","","","","","","","","","","NaN",""
"","S1","","html-keyboard-response","238","453137","0.0-1.0-326.0","0","0","21851","","null","","","null","36","","","","","","","","","","","","","","","",""
"","ISI","","html-keyboard-response","239","454145","0.0-1.0-327.0","0","0","21851","","null","","","null","36","NaN","","","","","","","","","","","","","","",""
"","S2","","html-keyboard-response","240","454401","0.0-1.0-328.0","0","0","21851","","null","","","null","36","","NaN","","","","","","","","","","","","","",""
"","response","","html-keyboard-response","241","455156","0.0-1.0-329.0-0.0","0","0","21851","","753","","","75","36","","","1","36","training","adjacent","ED","5","4","R.jpg","N.jpg","1","0","0","",""
"","feedback","","html-keyboard-response","242","456161","0.0-1.0-330.0-0.0","0","0","21851","","null","","","null","36","","","","","","","","","","","","","","","",""
"","time_out","","html-keyboard-response","243","458168","0.0-1.0-332.0-0.0","0","0","21851","","null","","","null","36","","","","","","","","","","","","","","","",""
"","ITI","","html-keyboard-response","244","459177","0.0-1.0-333.0","0","0","21851","","null","","","null","36","","","","","","","","","","","","","","","NaN",""
"","S1","","html-keyboard-response","245","459432","0.0-1.0-335.0","0","0","21851","","null","","","null","37","","","","","","","","","","","","","","","",""
"","ISI","","html-keyboard-response","246","460441","0.0-1.0-336.0","0","0","21851","","null","","","null","37","NaN","","","","","","","","","","","","","","",""
"","S2","","html-keyboard-response","247","460697","0.0-1.0-337.0","0","0","21851","","null","","","null","37","","NaN","","","","","","","","","","","","","",""
"","response","","html-keyboard-response","248","460932","0.0-1.0-338.0-0.0","0","0","21851","","233","","","68","37","","","1","37","training","adjacent","GF","7","6","M.jpg","P.jpg","0","0","1","",""
"","feedback","","html-keyboard-response","249","461936","0.0-1.0-339.0-0.0","0","0","21851","","null","","","null","37","","","","","","","","","","","","","","","",""
"","ITI","","html-keyboard-response","250","462944","0.0-1.0-342.0","0","0","21851","","null","","","null","37","","","","","","","","","","","","","","","NaN",""
"","S1","","html-keyboard-response","251","463201","0.0-1.0-344.0","0","0","21851","","null","","","null","38","","","","","","","","","","","","","","","",""
"","ISI","","html-keyboard-response","252","464208","0.0-1.0-345.0","0","0","21851","","null","","","null","38","NaN","","","","","","","","","","","","","","",""
"","S2","","html-keyboard-response","253","464464","0.0-1.0-346.0","0","0","21851","","null","","","null","38","","NaN","","","","","","","","","","","","","",""
"","response","","html-keyboard-response","254","465405","0.0-1.0-347.0-0.0","0","0","21851","","939","","","68","38","","","1","38","training","adjacent","CD","3","4","L.jpg","N.jpg","0","1","0","",""
"","feedback","","html-keyboard-response","255","466409","0.0-1.0-348.0-0.0","0","0","21851","","null","","","null","38","","","","","","","","","","","","","","","",""
"","time_out","","html-keyboard-response","256","468416","0.0-1.0-350.0-0.0","0","0","21851","","null","","","null","38","","","","","","","","","","","","","","","",""
"","ITI","","html-keyboard-response","257","469425","0.0-1.0-351.0","0","0","21851","","null","","","null","38","","","","","","","","","","","","","","","NaN",""
"","S1","","html-keyboard-response","258","469680","0.0-1.0-353.0","0","0","21851","","null","","","null","39","","","","","","","","","","","","","","","",""
"","ISI","","html-keyboard-response","259","470689","0.0-1.0-354.0","0","0","21851","","null","","","null","39","NaN","","","","","","","","","","","","","","",""
"","S2","","html-keyboard-response","260","470945","0.0-1.0-355.0","0","0","21851","","null","","","null","39","","NaN","","","","","","","","","","","","","",""
"","response","","html-keyboard-response","261","471573","0.0-1.0-356.0-0.0","0","0","21851","","626","","","75","39","","","1","39","training","adjacent","BC","2","3","Q.jpg","L.jpg","1","1","1","",""
"","feedback","","html-keyboard-response","262","472577","0.0-1.0-357.0-0.0","0","0","21851","","null","","","null","39","","","","","","","","","","","","","","","",""
"","ITI","","html-keyboard-response","263","473584","0.0-1.0-360.0","0","0","21851","","null","","","null","39","","","","","","","","","","","","","","","NaN",""
"","S1","","html-keyboard-response","264","473840","0.0-1.0-362.0","0","0","21851","","null","","","null","40","","","","","","","","","","","","","","","",""
"","ISI","","html-keyboard-response","265","474848","0.0-1.0-363.0","0","0","21851","","null","","","null","40","NaN","","","","","","","","","","","","","","",""
"","S2","","html-keyboard-response","266","475104","0.0-1.0-364.0","0","0","21851","","null","","","null","40","","NaN","","","","","","","","","","","","","",""
"","response","","html-keyboard-response","267","476085","0.0-1.0-365.0-0.0","0","0","21851","","979","","","75","40","","","1","40","training","adjacent","CB","3","2","L.jpg","Q.jpg","1","0","0","",""
"","feedback","","html-keyboard-response","268","477088","0.0-1.0-366.0-0.0","0","0","21851","","null","","","null","40","","","","","","","","","","","","","","","",""
"","time_out","","html-keyboard-response","269","479096","0.0-1.0-368.0-0.0","0","0","21851","","null","","","null","40","","","","","","","","","","","","","","","",""
"","ITI","","html-keyboard-response","270","480105","0.0-1.0-369.0","0","0","21851","","null","","","null","40","","","","","","","","","","","","","","","NaN",""
"","S1","","html-keyboard-response","271","480361","0.0-1.0-371.0","0","0","21851","","null","","","null","41","","","","","","","","","","","","","","","",""
"","ISI","","html-keyboard-response","272","481369","0.0-1.0-372.0","0","0","21851","","null","","","null","41","NaN","","","","","","","","","","","","","","",""
"","S2","","html-keyboard-response","273","481625","0.0-1.0-373.0","0","0","21851","","null","","","null","41","","NaN","","","","","","","","","","","","","",""
"","response","","html-keyboard-response","274","482190","0.0-1.0-374.0-0.0","0","0","21851","","562","","","75","41","","","1","41","training","adjacent","FE","6","5","P.jpg","R.jpg","1","0","0","",""
"","feedback","","html-keyboard-response","275","483193","0.0-1.0-375.0-0.0","0","0","21851","","null","","","null","41","","","","","","","","","","","","","","","",""
"","time_out","","html-keyboard-response","276","485201","0.0-1.0-377.0-0.0","0","0","21851","","null","","","null","41","","","","","","","","","","","","","","","",""
"","ITI","","html-keyboard-response","277","486208","0.0-1.0-378.0","0","0","21851","","null","","","null","41","","","","","","","","","","","","","","","NaN",""
"","S1","","html-keyboard-response","278","486464","0.0-1.0-380.0","0","0","21851","","null","","","null","42","","","","","","","","","","","","","","","",""
"","ISI","","html-keyboard-response","279","487473","0.0-1.0-381.0","0","0","21851","","null","","","null","42","NaN","","","","","","","","","","","","","","",""
"","S2","","html-keyboard-response","280","487728","0.0-1.0-382.0","0","0","21851","","null","","","null","42","","NaN","","","","","","","","","","","","","",""
"","response","","html-keyboard-response","281","488199","0.0-1.0-383.0-0.0","0","0","21851","","468","","","75","42","","","1","42","training","adjacent","BC","2","3","Q.jpg","L.jpg","1","1","1","",""
"","feedback","","html-keyboard-response","282","489208","0.0-1.0-384.0-0.0","0","0","21851","","null","","","null","42","","","","","","","","","","","","","","","",""
"","ITI","","html-keyboard-response","283","490216","0.0-1.0-387.0","0","0","21851","","null","","","null","42","","","","","","","","","","","","","","","NaN",""
"","S1","","html-keyboard-response","284","490472","0.0-1.0-389.0","0","0","21851","","null","","","null","43","","","","","","","","","","","","","","","",""
"","ISI","","html-keyboard-response","285","491481","0.0-1.0-390.0","0","0","21851","","null","","","null","43","NaN","","","","","","","","","","","","","","",""
"","S2","","html-keyboard-response","286","491738","0.0-1.0-391.0","0","0","21851","","null","","","null","43","","NaN","","","","","","","","","","","","","",""
"","response","","html-keyboard-response","287","492872","0.0-1.0-392.0-0.0","0","0","21851","","1131","","","68","43","","","1","43","training","adjacent","CB","3","2","L.jpg","Q.jpg","0","0","1","",""
"","feedback","","html-keyboard-response","288","493881","0.0-1.0-393.0-0.0","0","0","21851","","null","","","null","43","","","","","","","","","","","","","","","",""
"","ITI","","html-keyboard-response","289","494889","0.0-1.0-396.0","0","0","21851","","null","","","null","43","","","","","","","","","","","","","","","NaN",""
"","S1","","html-keyboard-response","290","495145","0.0-1.0-398.0","0","0","21851","","null","","","null","44","","","","","","","","","","","","","","","",""
"","ISI","","html-keyboard-response","291","496154","0.0-1.0-399.0","0","0","21851","","null","","","null","44","NaN","","","","","","","","","","","","","","",""
"","S2","","html-keyboard-response","292","496410","0.0-1.0-400.0","0","0","21851","","null","","","null","44","","NaN","","","","","","","","","","","","","",""
"","response","","html-keyboard-response","293","497840","0.0-1.0-401.0-0.0","0","0","21851","","1427","","","68","44","","","1","44","training","adjacent","DC","4","3","N.jpg","L.jpg","0","0","1","",""
"","feedback","","html-keyboard-response","294","498849","0.0-1.0-402.0-0.0","0","0","21851","","null","","","null","44","","","","","","","","","","","","","","","",""
"","ITI","","html-keyboard-response","295","499857","0.0-1.0-405.0","0","0","21851","","null","","","null","44","","","","","","","","","","","","","","","NaN",""
"","S1","","html-keyboard-response","296","500114","0.0-1.0-407.0","0","0","21851","","null","","","null","45","","","","","","","","","","","","","","","",""
"","ISI","","html-keyboard-response","297","501122","0.0-1.0-408.0","0","0","21851","","null","","","null","45","NaN","","","","","","","","","","","","","","",""
"","S2","","html-keyboard-response","298","501377","0.0-1.0-409.0","0","0","21851","","null","","","null","45","","NaN","","","","","","","","","","","","","",""
"","response","","html-keyboard-response","299","502088","0.0-1.0-410.0-0.0","0","0","21851","","709","","","68","45","","","1","45","training","adjacent","BA","2","1","Q.jpg","O.jpg","0","0","1","",""
"","feedback","","html-keyboard-response","300","503097","0.0-1.0-411.0-0.0","0","0","21851","","null","","","null","45","","","","","","","","","","","","","","","",""
"","ITI","","html-keyboard-response","301","504106","0.0-1.0-414.0","0","0","21851","","null","","","null","45","","","","","","","","","","","","","","","NaN",""
"","S1","","html-keyboard-response","302","504362","0.0-1.0-416.0","0","0","21851","","null","","","null","46","","","","","","","","","","","","","","","",""
"","ISI","","html-keyboard-response","303","505370","0.0-1.0-417.0","0","0","21851","","null","","","null","46","NaN","","","","","","","","","","","","","","",""
"","S2","","html-keyboard-response","304","505625","0.0-1.0-418.0","0","0","21851","","null","","","null","46","","NaN","","","","","","","","","","","","","",""
"","response","","html-keyboard-response","305","506529","0.0-1.0-419.0-0.0","0","0","21851","","901","","","75","46","","","1","46","training","adjacent","EF","5","6","R.jpg","P.jpg","1","1","1","",""
"","feedback","","html-keyboard-response","306","507538","0.0-1.0-420.0-0.0","0","0","21851","","null","","","null","46","","","","","","","","","","","","","","","",""
"","ITI","","html-keyboard-response","307","508545","0.0-1.0-423.0","0","0","21851","","null","","","null","46","","","","","","","","","","","","","","","NaN",""
"","S1","","html-keyboard-response","308","508801","0.0-1.0-425.0","0","0","21851","","null","","","null","47","","","","","","","","","","","","","","","",""
"","ISI","","html-keyboard-response","309","509810","0.0-1.0-426.0","0","0","21851","","null","","","null","47","NaN","","","","","","","","","","","","","","",""
"","S2","","html-keyboard-response","310","510066","0.0-1.0-427.0","0","0","21851","","null","","","null","47","","NaN","","","","","","","","","","","","","",""
"","response","","html-keyboard-response","311","510929","0.0-1.0-428.0-0.0","0","0","21851","","860","","","68","47","","","1","47","training","adjacent","DE","4","5","N.jpg","R.jpg","0","1","0","",""
"","feedback","","html-keyboard-response","312","511937","0.0-1.0-429.0-0.0","0","0","21851","","null","","","null","47","","","","","","","","","","","","","","","",""
"","time_out","","html-keyboard-response","313","513945","0.0-1.0-431.0-0.0","0","0","21851","","null","","","null","47","","","","","","","","","","","","","","","",""
"","ITI","","html-keyboard-response","314","514954","0.0-1.0-432.0","0","0","21851","","null","","","null","47","","","","","","","","","","","","","","","NaN",""
"","block_over","","html-keyboard-response","315","522322","0.0-1.0-433.0-0.0","0","0","21851","","7366","","","32","47","","","","","","","","","","","","","","","",""
"","S1","","html-keyboard-response","316","522578","0.0-1.0-434.0","0","0","21851","","null","","","null","48","","","","","","","","","","","","","","","",""
"","ISI","","html-keyboard-response","317","523585","0.0-1.0-435.0","0","0","21851","","null","","","null","48","NaN","","","","","","","","","","","","","","",""
"","S2","","html-keyboard-response","318","523841","0.0-1.0-436.0","0","0","21851","","null","","","null","48","","NaN","","","","","","","","","","","","","",""
"","response","","html-keyboard-response","319","525593","0.0-1.0-437.0-0.0","0","0","21851","","null","","","null","48","","","2","48","training","adjacent","FG","6","7","P.jpg","M.jpg","NaN","1","0","",""
"","too_slow_prompt","","html-keyboard-response","320","526602","0.0-1.0-439.0-0.0","1","0","21851","","null","","","null","","","","","","","","","","","","","","","","",""
"","time_out","","html-keyboard-response","321","528610","0.0-1.0-440.0-0.0","0","0","21851","","null","","","null","48","","","","","","","","","","","","","","","",""
"","ITI","","html-keyboard-response","322","529618","0.0-1.0-441.0","0","0","21851","","null","","","null","48","","","","","","","","","","","","","","","NaN",""
"","S1","","html-keyboard-response","323","529874","0.0-1.0-443.0","0","0","21851","","null","","","null","49","","","","","","","","","","","","","","","",""
"","ISI","","html-keyboard-response","324","530881","0.0-1.0-444.0","0","0","21851","","null","","","null","49","NaN","","","","","","","","","","","","","","",""
"","S2","","html-keyboard-response","325","531137","0.0-1.0-445.0","0","0","21851","","null","","","null","49","","NaN","","","","","","","","","","","","","",""
"","response","","html-keyboard-response","326","531531","0.0-1.0-446.0-0.0","0","0","21851","","391","","","68","49","","","2","49","training","adjacent","DE","4","5","N.jpg","R.jpg","0","1","0","",""
"","feedback","","html-keyboard-response","327","532538","0.0-1.0-447.0-0.0","0","0","21851","","null","","","null","49","","","","","","","","","","","","","","","",""
"","time_out","","html-keyboard-response","328","534545","0.0-1.0-449.0-0.0","0","0","21851","","null","","","null","49","","","","","","","","","","","","","","","",""
"","ITI","","html-keyboard-response","329","535553","0.0-1.0-450.0","0","0","21851","","null","","","null","49","","","","","","","","","","","","","","","NaN",""
"","S1","","html-keyboard-response","330","535809","0.0-1.0-452.0","0","0","21851","","null","","","null","50","","","","","","","","","","","","","","","",""
"","ISI","","html-keyboard-response","331","536818","0.0-1.0-453.0","0","0","21851","","null","","","null","50","NaN","","","","","","","","","","","","","","",""
"","S2","","html-keyboard-response","332","537074","0.0-1.0-454.0","0","0","21851","","null","","","null","50","","NaN","","","","","","","","","","","","","",""
"","response","","html-keyboard-response","333","537267","0.0-1.0-455.0-0.0","0","0","21851","","191","","","75","50","","","2","50","training","adjacent","BC","2","3","Q.jpg","L.jpg","1","1","1","",""
"","feedback","","html-keyboard-response","334","538274","0.0-1.0-456.0-0.0","0","0","21851","","null","","","null","50","","","","","","","","","","","","","","","",""
"","ITI","","html-keyboard-response","335","539281","0.0-1.0-459.0","0","0","21851","","null","","","null","50","","","","","","","","","","","","","","","NaN",""
"","S1","","html-keyboard-response","336","539538","0.0-1.0-461.0","0","0","21851","","null","","","null","51","","","","","","","","","","","","","","","",""
"","ISI","","html-keyboard-response","337","540545","0.0-1.0-462.0","0","0","21851","","null","","","null","51","NaN","","","","","","","","","","","","","","",""
"","S2","","html-keyboard-response","338","540801","0.0-1.0-463.0","0","0","21851","","null","","","null","51","","NaN","","","","","","","","","","","","","",""
"","response","","html-keyboard-response","339","540908","0.0-1.0-464.0-0.0","0","0","21851","","104","","","75","51","","","2","51","training","adjacent","GF","7","6","M.jpg","P.jpg","1","0","0","",""
"","feedback","","html-keyboard-response","340","541914","0.0-1.0-465.0-0.0","0","0","21851","","null","","","null","51","","","","","","","","","","","","","","","",""
"","time_out","","html-keyboard-response","341","543921","0.0-1.0-467.0-0.0","0","0","21851","","null","","","null","51","","","","","","","","","","","","","","","",""
"","ITI","","html-keyboard-response","342","544929","0.0-1.0-468.0","0","0","21851","","null","","","null","51","","","","","","","","","","","","","","","NaN",""
"","S1","","html-keyboard-response","343","545185","0.0-1.0-470.0","0","0","21851","","null","","","null","52","","","","","","","","","","","","","","","",""
"","ISI","","html-keyboard-response","344","546193","0.0-1.0-471.0","0","0","21851","","null","","","null","52","NaN","","","","","","","","","","","","","","",""
"","S2","","html-keyboard-response","345","546450","0.0-1.0-472.0","0","0","21851","","null","","","null","52","","NaN","","","","","","","","","","","","","",""
"","response","","html-keyboard-response","346","547300","0.0-1.0-473.0-0.0","0","0","21851","","847","","","75","52","","","2","52","training","adjacent","EF","5","6","R.jpg","P.jpg","1","1","1","",""
"","feedback","","html-keyboard-response","347","548306","0.0-1.0-474.0-0.0","0","0","21851","","null","","","null","52","","","","","","","","","","","","","","","",""
"","ITI","","html-keyboard-response","348","549314","0.0-1.0-477.0","0","0","21851","","null","","","null","52","","","","","","","","","","","","","","","NaN",""
"","S1","","html-keyboard-response","349","549569","0.0-1.0-479.0","0","0","21851","","null","","","null","53","","","","","","","","","","","","","","","",""
"","ISI","","html-keyboard-response","350","550578","0.0-1.0-480.0","0","0","21851","","null","","","null","53","NaN","","","","","","","","","","","","","","",""
"","S2","","html-keyboard-response","351","550833","0.0-1.0-481.0","0","0","21851","","null","","","null","53","","NaN","","","","","","","","","","","","","",""
"","response","","html-keyboard-response","352","550972","0.0-1.0-482.0-0.0","0","0","21851","","136","","","68","53","","","2","53","training","adjacent","EF","5","6","R.jpg","P.jpg","0","1","0","",""
"","feedback","","html-keyboard-response","353","551976","0.0-1.0-483.0-0.0","0","0","21851","","null","","","null","53","","","","","","","","","","","","","","","",""
"","time_out","","html-keyboard-response","354","553984","0.0-1.0-485.0-0.0","0","0","21851","","null","","","null","53","","","","","","","","","","","","","","","",""
"","ITI","","html-keyboard-response","355","554993","0.0-1.0-486.0","0","0","21851","","null","","","null","53","","","","","","","","","","","","","","","NaN",""
"","S1","","html-keyboard-response","356","555248","0.0-1.0-488.0","0","0","21851","","null","","","null","54","","","","","","","","","","","","","","","",""
"","ISI","","html-keyboard-response","357","556256","0.0-1.0-489.0","0","0","21851","","null","","","null","54","NaN","","","","","","","","","","","","","","",""
"","S2","","html-keyboard-response","358","556512","0.0-1.0-490.0","0","0","21851","","null","","","null","54","","NaN","","","","","","","","","","","","","",""
"","response","","html-keyboard-response","359","557331","0.0-1.0-491.0-0.0","0","0","21851","","818","","","75","54","","","2","54","training","adjacent","DE","4","5","N.jpg","R.jpg","1","1","1","",""
"","feedback","","html-keyboard-response","360","558336","0.0-1.0-492.0-0.0","0","0","21851","","null","","","null","54","","","","","","","","","","","","","","","",""
"","ITI","","html-keyboard-response","361","559344","0.0-1.0-495.0","0","0","21851","","null","","","null","54","","","","","","","","","","","","","","","NaN",""
"","S1","","html-keyboard-response","362","559600","0.0-1.0-497.0","0","0","21851","","null","","","null","55","","","","","","","","","","","","","","","",""
"","ISI","","html-keyboard-response","363","560609","0.0-1.0-498.0","0","0","21851","","null","","","null","55","NaN","","","","","","","","","","","","","","",""
"","S2","","html-keyboard-response","364","560865","0.0-1.0-499.0","0","0","21851","","null","","","null","55","","NaN","","","","","","","","","","","","","",""
"","response","","html-keyboard-response","365","561012","0.0-1.0-500.0-0.0","0","0","21851","","144","","","75","55","","","2","55","training","adjacent","DE","4","5","N.jpg","R.jpg","1","1","1","",""
"","feedback","","html-keyboard-response","366","562016","0.0-1.0-501.0-0.0","0","0","21851","","null","","","null","55","","","","","","","","","","","","","","","",""
"","ITI","","html-keyboard-response","367","563025","0.0-1.0-504.0","0","0","21851","","null","","","null","55","","","","","","","","","","","","","","","NaN",""
"","S1","","html-keyboard-response","368","563281","0.0-1.0-506.0","0","0","21851","","null","","","null","56","","","","","","","","","","","","","","","",""
"","ISI","","html-keyboard-response","369","564289","0.0-1.0-507.0","0","0","21851","","null","","","null","56","NaN","","","","","","","","","","","","","","",""
"","S2","","html-keyboard-response","370","564544","0.0-1.0-508.0","0","0","21851","","null","","","null","56","","NaN","","","","","","","","","","","","","",""
"","response","","html-keyboard-response","371","565156","0.0-1.0-509.0-0.0","0","0","21851","","610","","","75","56","","","2","56","training","adjacent","CB","3","2","L.jpg","Q.jpg","1","0","0","",""
"","feedback","","html-keyboard-response","372","566161","0.0-1.0-510.0-0.0","0","0","21851","","null","","","null","56","","","","","","","","","","","","","","","",""
"","time_out","","html-keyboard-response","373","568168","0.0-1.0-512.0-0.0","0","0","21851","","null","","","null","56","","","","","","","","","","","","","","","",""
"","ITI","","html-keyboard-response","374","569177","0.0-1.0-513.0","0","0","21851","","null","","","null","56","","","","","","","","","","","","","","","NaN",""
"","S1","","html-keyboard-response","375","569432","0.0-1.0-515.0","0","0","21851","","null","","","null","57","","","","","","","","","","","","","","","",""
"","ISI","","html-keyboard-response","376","570441","0.0-1.0-516.0","0","0","21851","","null","","","null","57","NaN","","","","","","","","","","","","","","",""
"","S2","","html-keyboard-response","377","570697","0.0-1.0-517.0","0","0","21851","","null","","","null","57","","NaN","","","","","","","","","","","","","",""
"","response","","html-keyboard-response","378","571540","0.0-1.0-518.0-0.0","0","0","21851","","842","","","75","57","","","2","57","training","adjacent","ED","5","4","R.jpg","N.jpg","1","0","0","",""
"","feedback","","html-keyboard-response","379","572544","0.0-1.0-519.0-0.0","0","0","21851","","null","","","null","57","","","","","","","","","","","","","","","",""
"","time_out","","html-keyboard-response","380","574553","0.0-1.0-521.0-0.0","0","0","21851","","null","","","null","57","","","","","","","","","","","","","","","",""
"","ITI","","html-keyboard-response","381","575561","0.0-1.0-522.0","0","0","21851","","null","","","null","57","","","","","","","","","","","","","","","NaN",""
"","S1","","html-keyboard-response","382","575817","0.0-1.0-524.0","0","0","21851","","null","","","null","58","","","","","","","","","","","","","","","",""
"","ISI","","html-keyboard-response","383","576825","0.0-1.0-525.0","0","0","21851","","null","","","null","58","NaN","","","","","","","","","","","","","","",""
"","S2","","html-keyboard-response","384","577081","0.0-1.0-526.0","0","0","21851","","null","","","null","58","","NaN","","","","","","","","","","","","","",""
"","response","","html-keyboard-response","385","577629","0.0-1.0-527.0-0.0","0","0","21851","","546","","","75","58","","","2","58","training","adjacent","DC","4","3","N.jpg","L.jpg","1","0","0","",""
"","feedback","","html-keyboard-response","386","578633","0.0-1.0-528.0-0.0","0","0","21851","","null","","","null","58","","","","","","","","","","","","","","","",""
"","time_out","","html-keyboard-response","387","580641","0.0-1.0-530.0-0.0","0","0","21851","","null","","","null","58","","","","","","","","","","","","","","","",""
"","ITI","","html-keyboard-response","388","581649","0.0-1.0-531.0","0","0","21851","","null","","","null","58","","","","","","","","","","","","","","","NaN",""
"","S1","","html-keyboard-response","389","581905","0.0-1.0-533.0","0","0","21851","","null","","","null","59","","","","","","","","","","","","","","","",""
"","ISI","","html-keyboard-response","390","582913","0.0-1.0-534.0","0","0","21851","","null","","","null","59","NaN","","","","","","","","","","","","","","",""
"","S2","","html-keyboard-response","391","583168","0.0-1.0-535.0","0","0","21851","","null","","","null","59","","NaN","","","","","","","","","","","","","",""
"","response","","html-keyboard-response","392","583518","0.0-1.0-536.0-0.0","0","0","21851","","347","","","75","59","","","2","59","training","adjacent","FE","6","5","P.jpg","R.jpg","1","0","0","",""
"","feedback","","html-keyboard-response","393","584521","0.0-1.0-537.0-0.0","0","0","21851","","null","","","null","59","","","","","","","","","","","","","","","",""
"","time_out","","html-keyboard-response","394","586529","0.0-1.0-539.0-0.0","0","0","21851","","null","","","null","59","","","","","","","","","","","","","","","",""
"","ITI","","html-keyboard-response","395","587536","0.0-1.0-540.0","0","0","21851","","null","","","null","59","","","","","","","","","","","","","","","NaN",""
"","S1","","html-keyboard-response","396","587792","0.0-1.0-542.0","0","0","21851","","null","","","null","60","","","","","","","","","","","","","","","",""
"","ISI","","html-keyboard-response","397","588801","0.0-1.0-543.0","0","0","21851","","null","","","null","60","NaN","","","","","","","","","","","","","","",""
"","S2","","html-keyboard-response","398","589057","0.0-1.0-544.0","0","0","21851","","null","","","null","60","","NaN","","","","","","","","","","","","","",""
"","response","","html-keyboard-response","399","590022","0.0-1.0-545.0-0.0","0","0","21851","","962","","","75","60","","","2","60","training","adjacent","DC","4","3","N.jpg","L.jpg","1","0","0","",""
"","feedback","","html-keyboard-response","400","591024","0.0-1.0-546.0-0.0","0","0","21851","","null","","","null","60","","","","","","","","","","","","","","","",""
"","time_out","","html-keyboard-response","401","593033","0.0-1.0-548.0-0.0","0","0","21851","","null","","","null","60","","","","","","","","","","","","","","","",""
"","ITI","","html-keyboard-response","402","594040","0.0-1.0-549.0","0","0","21851","","null","","","null","60","","","","","","","","","","","","","","","NaN",""
"","S1","","html-keyboard-response","403","594296","0.0-1.0-551.0","0","0","21851","","null","","","null","61","","","","","","","","","","","","","","","",""
"","ISI","","html-keyboard-response","404","595305","0.0-1.0-552.0","0","0","21851","","165","","","68","61","d","","","","","","","","","","","","","","",""
"","S2","","html-keyboard-response","405","595560","0.0-1.0-553.0","0","0","21851","","null","","","null","61","","NaN","","","","","","","","","","","","","",""
"","response","","html-keyboard-response","406","596254","0.0-1.0-554.0-0.0","0","0","21851","","691","","","68","61","","","2","61","training","adjacent","DC","4","3","N.jpg","L.jpg","0","0","1","",""
"","feedback","","html-keyboard-response","407","597257","0.0-1.0-555.0-0.0","0","0","21851","","null","","","null","61","","","","","","","","","","","","","","","",""
"","ITI","","html-keyboard-response","408","598265","0.0-1.0-558.0","0","0","21851","","null","","","null","61","","","","","","","","","","","","","","","NaN",""
"","S1","","html-keyboard-response","409","598521","0.0-1.0-560.0","0","0","21851","","null","","","null","62","","","","","","","","","","","","","","","",""
"","ISI","","html-keyboard-response","410","599529","0.0-1.0-561.0","0","0","21851","","null","","","null","62","NaN","","","","","","","","","","","","","","",""
"","S2","","html-keyboard-response","411","599785","0.0-1.0-562.0","0","0","21851","","null","","","null","62","","NaN","","","","","","","","","","","","","",""
"","response","","html-keyboard-response","412","600334","0.0-1.0-563.0-0.0","0","0","21851","","547","","","75","62","","","2","62","training","adjacent","AB","1","2","O.jpg","Q.jpg","1","1","1","",""
"","feedback","","html-keyboard-response","413","601336","0.0-1.0-564.0-0.0","0","0","21851","","null","","","null","62","","","","","","","","","","","","","","","",""
"","ITI","","html-keyboard-response","414","602344","0.0-1.0-567.0","0","0","21851","","null","","","null","62","","","","","","","","","","","","","","","NaN",""
"","S1","","html-keyboard-response","415","602601","0.0-1.0-569.0","0","0","21851","","null","","","null","63","","","","","","","","","","","","","","","",""
"","ISI","","html-keyboard-response","416","603609","0.0-1.0-570.0","0","0","21851","","null","","","null","63","NaN","","","","","","","","","","","","","","",""
"","S2","","html-keyboard-response","417","603865","0.0-1.0-571.0","0","0","21851","","null","","","null","63","","NaN","","","","","","","","","","","","","",""
"","response","","html-keyboard-response","418","604455","0.0-1.0-572.0-0.0","0","0","21851","","588","","","75","63","","","2","63","training","adjacent","GF","7","6","M.jpg","P.jpg","1","0","0","",""
"","feedback","","html-keyboard-response","419","605464","0.0-1.0-573.0-0.0","0","0","21851","","null","","","null","63","","","","","","","","","","","","","","","",""
"","time_out","","html-keyboard-response","420","607473","0.0-1.0-575.0-0.0","0","0","21851","","null","","","null","63","","","","","","","","","","","","","","","",""
"","ITI","","html-keyboard-response","421","608481","0.0-1.0-576.0","0","0","21851","","null","","","null","63","","","","","","","","","","","","","","","NaN",""
"","S1","","html-keyboard-response","422","608736","0.0-1.0-578.0","0","0","21851","","null","","","null","64","","","","","","","","","","","","","","","",""
"","ISI","","html-keyboard-response","423","609744","0.0-1.0-579.0","0","0","21851","","null","","","null","64","NaN","","","","","","","","","","","","","","",""
"","S2","","html-keyboard-response","424","610000","0.0-1.0-580.0","0","0","21851","","null","","","null","64","","NaN","","","","","","","","","","","","","",""
"","response","","html-keyboard-response","425","611080","0.0-1.0-581.0-0.0","0","0","21851","","1078","","","68","64","","","2","64","training","adjacent","CB","3","2","L.jpg","Q.jpg","0","0","1","",""
"","feedback","","html-keyboard-response","426","612089","0.0-1.0-582.0-0.0","0","0","21851","","null","","","null","64","","","","","","","","","","","","","","","",""
"","ITI","","html-keyboard-response","427","613097","0.0-1.0-585.0","0","0","21851","","null","","","null","64","","","","","","","","","","","","","","","NaN",""
"","S1","","html-keyboard-response","428","613353","0.0-1.0-587.0","0","0","21851","","null","","","null","65","","","","","","","","","","","","","","","",""
"","ISI","","html-keyboard-response","429","614362","0.0-1.0-588.0","0","0","21851","","null","","","null","65","NaN","","","","","","","","","","","","","","",""
"","S2","","html-keyboard-response","430","614618","0.0-1.0-589.0","0","0","21851","","null","","","null","65","","NaN","","","","","","","","","","","","","",""
"","response","","html-keyboard-response","431","615336","0.0-1.0-590.0-0.0","0","0","21851","","716","","","68","65","","","2","65","training","adjacent","BA","2","1","Q.jpg","O.jpg","0","0","1","",""
"","feedback","","html-keyboard-response","432","616346","0.0-1.0-591.0-0.0","0","0","21851","","null","","","null","65","","","","","","","","","","","","","","","",""
"","ITI","","html-keyboard-response","433","617354","0.0-1.0-594.0","0","0","21851","","null","","","null","65","","","","","","","","","","","","","","","NaN",""
"","S1","","html-keyboard-response","434","617609","0.0-1.0-596.0","0","0","21851","","null","","","null","66","","","","","","","","","","","","","","","",""
"","ISI","","html-keyboard-response","435","618618","0.0-1.0-597.0","0","0","21851","","null","","","null","66","NaN","","","","","","","","","","","","","","",""
"","S2","","html-keyboard-response","436","618874","0.0-1.0-598.0","0","0","21851","","null","","","null","66","","NaN","","","","","","","","","","","","","",""
"","response","","html-keyboard-response","437","619321","0.0-1.0-599.0-0.0","0","0","21851","","446","","","68","66","","","2","66","training","adjacent","FE","6","5","P.jpg","R.jpg","0","0","1","",""
"","feedback","","html-keyboard-response","438","620330","0.0-1.0-600.0-0.0","0","0","21851","","null","","","null","66","","","","","","","","","","","","","","","",""
"","ITI","","html-keyboard-response","439","621337","0.0-1.0-603.0","0","0","21851","","null","","","null","66","","","","","","","","","","","","","","","NaN",""
"","S1","","html-keyboard-response","440","621593","0.0-1.0-605.0","0","0","21851","","null","","","null","67","","","","","","","","","","","","","","","",""
"","ISI","","html-keyboard-response","441","622602","0.0-1.0-606.0","0","0","21851","","null","","","null","67","NaN","","","","","","","","","","","","","","",""
"","S2","","html-keyboard-response","442","622857","0.0-1.0-607.0","0","0","21851","","null","","","null","67","","NaN","","","","","","","","","","","","","",""
"","response","","html-keyboard-response","443","623442","0.0-1.0-608.0-0.0","0","0","21851","","582","","","68","67","","","2","67","training","adjacent","AB","1","2","O.jpg","Q.jpg","0","1","0","",""
"","feedback","","html-keyboard-response","444","624450","0.0-1.0-609.0-0.0","0","0","21851","","null","","","null","67","","","","","","","","","","","","","","","",""
"","time_out","","html-keyboard-response","445","626457","0.0-1.0-611.0-0.0","0","0","21851","","null","","","null","67","","","","","","","","","","","","","","","",""
"","ITI","","html-keyboard-response","446","627466","0.0-1.0-612.0","0","0","21851","","null","","","null","67","","","","","","","","","","","","","","","NaN",""
"","S1","","html-keyboard-response","447","627721","0.0-1.0-614.0","0","0","21851","","null","","","null","68","","","","","","","","","","","","","","","",""
"","ISI","","html-keyboard-response","448","628730","0.0-1.0-615.0","0","0","21851","","null","","","null","68","NaN","","","","","","","","","","","","","","",""
"","S2","","html-keyboard-response","449","628986","0.0-1.0-616.0","0","0","21851","","null","","","null","68","","NaN","","","","","","","","","","","","","",""
"","response","","html-keyboard-response","450","629770","0.0-1.0-617.0-0.0","0","0","21851","","781","","","75","68","","","2","68","training","adjacent","EF","5","6","R.jpg","P.jpg","1","1","1","",""
"","feedback","","html-keyboard-response","451","630777","0.0-1.0-618.0-0.0","0","0","21851","","null","","","null","68","","","","","","","","","","","","","","","",""
"","ITI","","html-keyboard-response","452","631785","0.0-1.0-621.0","0","0","21851","","null","","","null","68","","","","","","","","","","","","","","","NaN",""
"","S1","","html-keyboard-response","453","632041","0.0-1.0-623.0","0","0","21851","","null","","","null","69","","","","","","","","","","","","","","","",""
"","ISI","","html-keyboard-response","454","633049","0.0-1.0-624.0","0","0","21851","","null","","","null","69","NaN","","","","","","","","","","","","","","",""
"","S2","","html-keyboard-response","455","633305","0.0-1.0-625.0","0","0","21851","","null","","","null","69","","NaN","","","","","","","","","","","","","",""
"","response","","html-keyboard-response","456","633699","0.0-1.0-626.0-0.0","0","0","21851","","391","","","68","69","","","2","69","training","adjacent","ED","5","4","R.jpg","N.jpg","0","0","1","",""
"","feedback","","html-keyboard-response","457","634706","0.0-1.0-627.0-0.0","0","0","21851","","null","","","null","69","","","","","","","","","","","","","","","",""
"","ITI","","html-keyboard-response","458","635713","0.0-1.0-630.0","0","0","21851","","null","","","null","69","","","","","","","","","","","","","","","NaN",""
"","S1","","html-keyboard-response","459","635969","0.0-1.0-632.0","0","0","21851","","null","","","null","70","","","","","","","","","","","","","","","",""
"","ISI","","html-keyboard-response","460","636978","0.0-1.0-633.0","0","0","21851","","null","","","null","70","NaN","","","","","","","","","","","","","","",""
"","S2","","html-keyboard-response","461","637233","0.0-1.0-634.0","0","0","21851","","null","","","null","70","","NaN","","","","","","","","","","","","","",""
"","response","","html-keyboard-response","462","638155","0.0-1.0-635.0-0.0","0","0","21851","","919","","","75","70","","","2","70","training","adjacent","BA","2","1","Q.jpg","O.jpg","1","0","0","",""
"","feedback","","html-keyboard-response","463","639162","0.0-1.0-636.0-0.0","0","0","21851","","null","","","null","70","","","","","","","","","","","","","","","",""
"","time_out","","html-keyboard-response","464","641170","0.0-1.0-638.0-0.0","0","0","21851","","null","","","null","70","","","","","","","","","","","","","","","",""
"","ITI","","html-keyboard-response","465","642178","0.0-1.0-639.0","0","0","21851","","null","","","null","70","","","","","","","","","","","","","","","NaN",""
"","S1","","html-keyboard-response","466","642434","0.0-1.0-641.0","0","0","21851","","null","","","null","71","","","","","","","","","","","","","","","",""
"","ISI","","html-keyboard-response","467","643442","0.0-1.0-642.0","0","0","21851","","null","","","null","71","NaN","","","","","","","","","","","","","","",""
"","S2","","html-keyboard-response","468","643698","0.0-1.0-643.0","0","0","21851","","null","","","null","71","","NaN","","","","","","","","","","","","","",""
"","response","","html-keyboard-response","469","644051","0.0-1.0-644.0-0.0","0","0","21851","","350","","","75","71","","","2","71","training","adjacent","GF","7","6","M.jpg","P.jpg","1","0","0","",""
"","feedback","","html-keyboard-response","470","645057","0.0-1.0-645.0-0.0","0","0","21851","","null","","","null","71","","","","","","","","","","","","","","","",""
"","time_out","","html-keyboard-response","471","647065","0.0-1.0-647.0-0.0","0","0","21851","","null","","","null","71","","","","","","","","","","","","","","","",""
"","ITI","","html-keyboard-response","472","648074","0.0-1.0-648.0","0","0","21851","","null","","","null","71","","","","","","","","","","","","","","","NaN",""
"","S1","","html-keyboard-response","473","648331","0.0-1.0-650.0","0","0","21851","","null","","","null","72","","","","","","","","","","","","","","","",""
"","ISI","","html-keyboard-response","474","649337","0.0-1.0-651.0","0","0","21851","","null","","","null","72","NaN","","","","","","","","","","","","","","",""
"","S2","","html-keyboard-response","475","649593","0.0-1.0-652.0","0","0","21851","","null","","","null","72","","NaN","","","","","","","","","","","","","",""
"","response","","html-keyboard-response","476","649595","0.0-1.0-653.0-0.0","0","0","21851","","0","","","68","72","","","2","72","training","adjacent","BA","2","1","Q.jpg","O.jpg","0","0","1","",""
"","feedback","","html-keyboard-response","477","650602","0.0-1.0-654.0-0.0","0","0","21851","","null","","","null","72","","","","","","","","","","","","","","","",""
"","ITI","","html-keyboard-response","478","651610","0.0-1.0-657.0","0","0","21851","","null","","","null","72","","","","","","","","","","","","","","","NaN",""
"","S1","","html-keyboard-response","479","651866","0.0-1.0-659.0","0","0","21851","","null","","","null","73","","","","","","","","","","","","","","","",""
"","ISI","","html-keyboard-response","480","652868","0.0-1.0-660.0","0","0","21851","","999","","","68","73","d","","","","","","","","","","","","","","",""
"","S2","","html-keyboard-response","481","653122","0.0-1.0-661.0","0","0","21851","","null","","","null","73","","NaN","","","","","","","","","","","","","",""
"","response","","html-keyboard-response","482","653748","0.0-1.0-662.0-0.0","0","0","21851","","623","","","68","73","","","2","73","training","adjacent","FE","6","5","P.jpg","R.jpg","0","0","1","",""
"","feedback","","html-keyboard-response","483","654753","0.0-1.0-663.0-0.0","0","0","21851","","null","","","null","73","","","","","","","","","","","","","","","",""
"","ITI","","html-keyboard-response","484","655762","0.0-1.0-666.0","0","0","21851","","null","","","null","73","","","","","","","","","","","","","","","NaN",""
"","S1","","html-keyboard-response","485","656017","0.0-1.0-668.0","0","0","21851","","null","","","null","74","","","","","","","","","","","","","","","",""
"","ISI","","html-keyboard-response","486","657025","0.0-1.0-669.0","0","0","21851","","null","","","null","74","NaN","","","","","","","","","","","","","","",""
"","S2","","html-keyboard-response","487","657282","0.0-1.0-670.0","0","0","21851","","null","","","null","74","","NaN","","","","","","","","","","","","","",""
"","response","","html-keyboard-response","488","658300","0.0-1.0-671.0-0.0","0","0","21851","","1015","","","75","74","","","2","74","training","adjacent","BC","2","3","Q.jpg","L.jpg","1","1","1","",""
"","feedback","","html-keyboard-response","489","659305","0.0-1.0-672.0-0.0","0","0","21851","","null","","","null","74","","","","","","","","","","","","","","","",""
"","ITI","","html-keyboard-response","490","660314","0.0-1.0-675.0","0","0","21851","","null","","","null","74","","","","","","","","","","","","","","","NaN",""
"","S1","","html-keyboard-response","491","660570","0.0-1.0-677.0","0","0","21851","","null","","","null","75","","","","","","","","","","","","","","","",""
"","ISI","","html-keyboard-response","492","661578","0.0-1.0-678.0","0","0","21851","","null","","","null","75","NaN","","","","","","","","","","","","","","",""
"","S2","","html-keyboard-response","493","661833","0.0-1.0-679.0","0","0","21851","","null","","","null","75","","NaN","","","","","","","","","","","","","",""
"","response","","html-keyboard-response","494","662037","0.0-1.0-680.0-0.0","0","0","21851","","201","","","68","75","","","2","75","training","adjacent","FG","6","7","P.jpg","M.jpg","0","1","0","",""
"","feedback","","html-keyboard-response","495","663041","0.0-1.0-681.0-0.0","0","0","21851","","null","","","null","75","","","","","","","","","","","","","","","",""
"","time_out","","html-keyboard-response","496","665049","0.0-1.0-683.0-0.0","0","0","21851","","null","","","null","75","","","","","","","","","","","","","","","",""
"","ITI","","html-keyboard-response","497","666057","0.0-1.0-684.0","0","0","21851","","null","","","null","75","","","","","","","","","","","","","","","NaN",""
"","S1","","html-keyboard-response","498","666313","0.0-1.0-686.0","0","0","21851","","null","","","null","76","","","","","","","","","","","","","","","",""
"","ISI","","html-keyboard-response","499","667322","0.0-1.0-687.0","0","0","21851","","null","","","null","76","NaN","","","","","","","","","","","","","","",""
"","S2","","html-keyboard-response","500","667578","0.0-1.0-688.0","0","0","21851","","null","","","null","76","","NaN","","","","","","","","","","","","","",""
"","response","","html-keyboard-response","501","668061","0.0-1.0-689.0-0.0","0","0","21851","","480","","","68","76","","","2","76","training","adjacent","CD","3","4","L.jpg","N.jpg","0","1","0","",""
"","feedback","","html-keyboard-response","502","669066","0.0-1.0-690.0-0.0","0","0","21851","","null","","","null","76","","","","","","","","","","","","","","","",""
"","time_out","","html-keyboard-response","503","671074","0.0-1.0-692.0-0.0","0","0","21851","","null","","","null","76","","","","","","","","","","","","","","","",""
"","ITI","","html-keyboard-response","504","672082","0.0-1.0-693.0","0","0","21851","","null","","","null","76","","","","","","","","","","","","","","","NaN",""
"","S1","","html-keyboard-response","505","672337","0.0-1.0-695.0","0","0","21851","","null","","","null","77","","","","","","","","","","","","","","","",""
"","ISI","","html-keyboard-response","506","673345","0.0-1.0-696.0","0","0","21851","","null","","","null","77","NaN","","","","","","","","","","","","","","",""
"","S2","","html-keyboard-response","507","673601","0.0-1.0-697.0","0","0","21851","","null","","","null","77","","NaN","","","","","","","","","","","","","",""
"","response","","html-keyboard-response","508","674309","0.0-1.0-698.0-0.0","0","0","21851","","706","","","75","77","","","2","77","training","adjacent","GF","7","6","M.jpg","P.jpg","1","0","0","",""
"","feedback","","html-keyboard-response","509","675314","0.0-1.0-699.0-0.0","0","0","21851","","null","","","null","77","","","","","","","","","","","","","","","",""
"","time_out","","html-keyboard-response","510","677321","0.0-1.0-701.0-0.0","0","0","21851","","null","","","null","77","","","","","","","","","","","","","","","",""
"","ITI","","html-keyboard-response","511","678330","0.0-1.0-702.0","0","0","21851","","null","","","null","77","","","","","","","","","","","","","","","NaN",""
"","S1","","html-keyboard-response","512","678585","0.0-1.0-704.0","0","0","21851","","null","","","null","78","","","","","","","","","","","","","","","",""
"","ISI","","html-keyboard-response","513","679594","0.0-1.0-705.0","0","0","21851","","null","","","null","78","NaN","","","","","","","","","","","","","","",""
"","S2","","html-keyboard-response","514","679849","0.0-1.0-706.0","0","0","21851","","null","","","null","78","","NaN","","","","","","","","","","","","","",""
"","response","","html-keyboard-response","515","680334","0.0-1.0-707.0-0.0","0","0","21851","","482","","","68","78","","","2","78","training","adjacent","DE","4","5","N.jpg","R.jpg","0","1","0","",""
"","feedback","","html-keyboard-response","516","681337","0.0-1.0-708.0-0.0","0","0","21851","","null","","","null","78","","","","","","","","","","","","","","","",""
"","time_out","","html-keyboard-response","517","683345","0.0-1.0-710.0-0.0","0","0","21851","","null","","","null","78","","","","","","","","","","","","","","","",""
"","ITI","","html-keyboard-response","518","684354","0.0-1.0-711.0","0","0","21851","","null","","","null","78","","","","","","","","","","","","","","","NaN",""
"","S1","","html-keyboard-response","519","684609","0.0-1.0-713.0","0","0","21851","","null","","","null","79","","","","","","","","","","","","","","","",""
"","ISI","","html-keyboard-response","520","685618","0.0-1.0-714.0","0","0","21851","","null","","","null","79","NaN","","","","","","","","","","","","","","",""
"","S2","","html-keyboard-response","521","685874","0.0-1.0-715.0","0","0","21851","","null","","","null","79","","NaN","","","","","","","","","","","","","",""
"","response","","html-keyboard-response","522","686558","0.0-1.0-716.0-0.0","0","0","21851","","682","","","75","79","","","2","79","training","adjacent","FG","6","7","P.jpg","M.jpg","1","1","1","",""
"","feedback","","html-keyboard-response","523","687562","0.0-1.0-717.0-0.0","0","0","21851","","null","","","null","79","","","","","","","","","","","","","","","",""
"","ITI","","html-keyboard-response","524","688570","0.0-1.0-720.0","0","0","21851","","null","","","null","79","","","","","","","","","","","","","","","NaN",""
"","S1","","html-keyboard-response","525","688826","0.0-1.0-722.0","0","0","21851","","null","","","null","80","","","","","","","","","","","","","","","",""
"","ISI","","html-keyboard-response","526","689833","0.0-1.0-723.0","0","0","21851","","null","","","null","80","NaN","","","","","","","","","","","","","","",""
"","S2","","html-keyboard-response","527","690089","0.0-1.0-724.0","0","0","21851","","null","","","null","80","","NaN","","","","","","","","","","","","","",""
"","response","","html-keyboard-response","528","690775","0.0-1.0-725.0-0.0","0","0","21851","","683","","","75","80","","","2","80","training","adjacent","CD","3","4","L.jpg","N.jpg","1","1","1","",""
"","feedback","","html-keyboard-response","529","691778","0.0-1.0-726.0-0.0","0","0","21851","","null","","","null","80","","","","","","","","","","","","","","","",""
"","ITI","","html-keyboard-response","530","692786","0.0-1.0-729.0","0","0","21851","","null","","","null","80","","","","","","","","","","","","","","","NaN",""
"","S1","","html-keyboard-response","531","693041","0.0-1.0-731.0","0","0","21851","","null","","","null","81","","","","","","","","","","","","","","","",""
"","ISI","","html-keyboard-response","532","694050","0.0-1.0-732.0","0","0","21851","","null","","","null","81","NaN","","","","","","","","","","","","","","",""
"","S2","","html-keyboard-response","533","694305","0.0-1.0-733.0","0","0","21851","","null","","","null","81","","NaN","","","","","","","","","","","","","",""
"","response","","html-keyboard-response","534","694999","0.0-1.0-734.0-0.0","0","0","21851","","692","","","75","81","","","2","81","training","adjacent","DC","4","3","N.jpg","L.jpg","1","0","0","",""
"","feedback","","html-keyboard-response","535","696002","0.0-1.0-735.0-0.0","0","0","21851","","null","","","null","81","","","","","","","","","","","","","","","",""
"","time_out","","html-keyboard-response","536","698010","0.0-1.0-737.0-0.0","0","0","21851","","null","","","null","81","","","","","","","","","","","","","","","",""
"","ITI","","html-keyboard-response","537","699018","0.0-1.0-738.0","0","0","21851","","null","","","null","81","","","","","","","","","","","","","","","NaN",""
"","S1","","html-keyboard-response","538","699274","0.0-1.0-740.0","0","0","21851","","null","","","null","82","","","","","","","","","","","","","","","",""
"","ISI","","html-keyboard-response","539","700282","0.0-1.0-741.0","0","0","21851","","null","","","null","82","NaN","","","","","","","","","","","","","","",""
"","S2","","html-keyboard-response","540","700538","0.0-1.0-742.0","0","0","21851","","null","","","null","82","","NaN","","","","","","","","","","","","","",""
"","response","","html-keyboard-response","541","700887","0.0-1.0-743.0-0.0","0","0","21851","","347","","","68","82","","","2","82","training","adjacent","BA","2","1","Q.jpg","O.jpg","0","0","1","",""
"","feedback","","html-keyboard-response","542","701890","0.0-1.0-744.0-0.0","0","0","21851","","null","","","null","82","","","","","","","","","","","","","","","",""
"","ITI","","html-keyboard-response","543","702898","0.0-1.0-747.0","0","0","21851","","null","","","null","82","","","","","","","","","","","","","","","NaN",""
"","S1","","html-keyboard-response","544","703154","0.0-1.0-749.0","0","0","21851","","null","","","null","83","","","","","","","","","","","","","","","",""
"","ISI","","html-keyboard-response","545","704162","0.0-1.0-750.0","0","0","21851","","null","","","null","83","NaN","","","","","","","","","","","","","","",""
"","S2","","html-keyboard-response","546","704417","0.0-1.0-751.0","0","0","21851","","null","","","null","83","","NaN","","","","","","","","","","","","","",""
"","response","","html-keyboard-response","547","705175","0.0-1.0-752.0-0.0","0","0","21851","","756","","","75","83","","","2","83","training","adjacent","ED","5","4","R.jpg","N.jpg","1","0","0","",""
"","feedback","","html-keyboard-response","548","706178","0.0-1.0-753.0-0.0","0","0","21851","","null","","","null","83","","","","","","","","","","","","","","","",""
"","time_out","","html-keyboard-response","549","708186","0.0-1.0-755.0-0.0","0","0","21851","","null","","","null","83","","","","","","","","","","","","","","","",""
"","ITI","","html-keyboard-response","550","709193","0.0-1.0-756.0","0","0","21851","","null","","","null","83","","","","","","","","","","","","","","","NaN",""
"","S1","","html-keyboard-response","551","709449","0.0-1.0-758.0","0","0","21851","","null","","","null","84","","","","","","","","","","","","","","","",""
"","ISI","","html-keyboard-response","552","710457","0.0-1.0-759.0","0","0","21851","","null","","","null","84","NaN","","","","","","","","","","","","","","",""
"","S2","","html-keyboard-response","553","710714","0.0-1.0-760.0","0","0","21851","","null","","","null","84","","NaN","","","","","","","","","","","","","",""
"","response","","html-keyboard-response","554","711121","0.0-1.0-761.0-0.0","0","0","21851","","404","","","68","84","","","2","84","training","adjacent","AB","1","2","O.jpg","Q.jpg","0","1","0","",""
"","feedback","","html-keyboard-response","555","712130","0.0-1.0-762.0-0.0","0","0","21851","","null","","","null","84","","","","","","","","","","","","","","","",""
"","time_out","","html-keyboard-response","556","714138","0.0-1.0-764.0-0.0","0","0","21851","","null","","","null","84","","","","","","","","","","","","","","","",""
"","ITI","","html-keyboard-response","557","715145","0.0-1.0-765.0","0","0","21851","","null","","","null","84","","","","","","","","","","","","","","","NaN",""
"","S1","","html-keyboard-response","558","715401","0.0-1.0-767.0","0","0","21851","","null","","","null","85","","","","","","","","","","","","","","","",""
"","ISI","","html-keyboard-response","559","716410","0.0-1.0-768.0","0","0","21851","","null","","","null","85","NaN","","","","","","","","","","","","","","",""
"","S2","","html-keyboard-response","560","716666","0.0-1.0-769.0","0","0","21851","","null","","","null","85","","NaN","","","","","","","","","","","","","",""
"","response","","html-keyboard-response","561","717136","0.0-1.0-770.0-0.0","0","0","21851","","469","","","75","85","","","2","85","training","adjacent","ED","5","4","R.jpg","N.jpg","1","0","0","",""
"","feedback","","html-keyboard-response","562","718146","0.0-1.0-771.0-0.0","0","0","21851","","null","","","null","85","","","","","","","","","","","","","","","",""
"","time_out","","html-keyboard-response","563","720154","0.0-1.0-773.0-0.0","0","0","21851","","null","","","null","85","","","","","","","","","","","","","","","",""
"","ITI","","html-keyboard-response","564","721162","0.0-1.0-774.0","0","0","21851","","null","","","null","85","","","","","","","","","","","","","","","NaN",""
"","S1","","html-keyboard-response","565","721417","0.0-1.0-776.0","0","0","21851","","null","","","null","86","","","","","","","","","","","","","","","",""
"","ISI","","html-keyboard-response","566","722425","0.0-1.0-777.0","0","0","21851","","null","","","null","86","NaN","","","","","","","","","","","","","","",""
"","S2","","html-keyboard-response","567","722682","0.0-1.0-778.0","0","0","21851","","null","","","null","86","","NaN","","","","","","","","","","","","","",""
"","response","","html-keyboard-response","568","724233","0.0-1.0-779.0-0.0","0","0","21851","","1548","","","75","86","","","2","86","training","adjacent","CD","3","4","L.jpg","N.jpg","1","1","1","",""
"","feedback","","html-keyboard-response","569","725242","0.0-1.0-780.0-0.0","0","0","21851","","null","","","null","86","","","","","","","","","","","","","","","",""
"","ITI","","html-keyboard-response","570","726249","0.0-1.0-783.0","0","0","21851","","null","","","null","86","","","","","","","","","","","","","","","NaN",""
"","S1","","html-keyboard-response","571","726505","0.0-1.0-785.0","0","0","21851","","null","","","null","87","","","","","","","","","","","","","","","",""
"","ISI","","html-keyboard-response","572","727514","0.0-1.0-786.0","0","0","21851","","null","","","null","87","NaN","","","","","","","","","","","","","","",""
"","S2","","html-keyboard-response","573","727769","0.0-1.0-787.0","0","0","21851","","null","","","null","87","","NaN","","","","","","","","","","","","","",""
"","response","","html-keyboard-response","574","728265","0.0-1.0-788.0-0.0","0","0","21851","","493","","","75","87","","","2","87","training","adjacent","CD","3","4","L.jpg","N.jpg","1","1","1","",""
"","feedback","","html-keyboard-response","575","729274","0.0-1.0-789.0-0.0","0","0","21851","","null","","","null","87","","","","","","","","","","","","","","","",""
"","ITI","","html-keyboard-response","576","730281","0.0-1.0-792.0","0","0","21851","","null","","","null","87","","","","","","","","","","","","","","","NaN",""
"","S1","","html-keyboard-response","577","730538","0.0-1.0-794.0","0","0","21851","","null","","","null","88","","","","","","","","","","","","","","","",""
"","ISI","","html-keyboard-response","578","731545","0.0-1.0-795.0","0","0","21851","","null","","","null","88","NaN","","","","","","","","","","","","","","",""
"","S2","","html-keyboard-response","579","731801","0.0-1.0-796.0","0","0","21851","","null","","","null","88","","NaN","","","","","","","","","","","","","",""
"","response","","html-keyboard-response","580","732082","0.0-1.0-797.0-0.0","0","0","21851","","278","","","68","88","","","2","88","training","adjacent","CB","3","2","L.jpg","Q.jpg","0","0","1","",""
"","feedback","","html-keyboard-response","581","733089","0.0-1.0-798.0-0.0","0","0","21851","","null","","","null","88","","","","","","","","","","","","","","","",""
"","ITI","","html-keyboard-response","582","734098","0.0-1.0-801.0","0","0","21851","","null","","","null","88","","","","","","","","","","","","","","","NaN",""
