"success","ttype","start_time","trial_type","trial_index","time_elapsed","internal_node_id","warning","missed_checkup","PID","view_history","rt","responses","repeat_instructions","key_press","index","keypress_isi","keypress_S2","block","trial_num","phase","group_type","pair_type","S1_stim","S2_stim","S1_img","S2_img","S1_chosen","S1_higher","accuracy","keypress_iti","total_bonus_tally"
"true","full_screen","d03032023hr2216","fullscreen","0","13172","0.0-0.0","0","0","47686","","","","","","","","","","","","","","","","","","","","","",""
"","instructions","","instructions","1","188446","0.0-1.0-0.0-0.0","0","0","47686","[{""page_index"":0,""viewing_time"":12203},{""page_index"":1,""viewing_time"":135283},{""page_index"":2,""viewing_time"":24968},{""page_index"":3,""viewing_time"":2799}]","175260","","","","","","","","","","","","","","","","","","","",""
"","comprehension_check","","survey-multi-choice","2","319961","0.0-1.0-0.0-1.0","0","0","47686","","131499","{""Q0"":""True"",""Q1"":""D"",""Q2"":""Once the second image appears and while the screen 'MAKE A CHOICE' is shown"",""Q3"":""Green mark"",""Q4"":""either D or K""}","0","","","","","","","","","","","","","","","","","",""
"","start_exp","","html-keyboard-response","3","330005","0.0-1.0-1.0","0","0","47686","","10029","","","32","","","","","","","","","","","","","","","","",""
"","S1","","html-keyboard-response","4","330262","0.0-1.0-2.0","0","0","47686","","null","","","null","0","","","","","","","","","","","","","","","",""
"","ISI","","html-keyboard-response","5","330767","0.0-1.0-3.0","0","0","47686","","null","","","null","0","NaN","","","","","","","","","","","","","","",""
"","S2","","html-keyboard-response","6","331023","0.0-1.0-4.0","0","0","47686","","null","","","null","0","","NaN","","","","","","","","","","","","","",""
"","response","","html-keyboard-response","7","332484","0.0-1.0-5.0-0.0","0","0","47686","","1454","","","68","0","","","1","0","training","adjacent","EF","5","6","O.jpg","N.jpg","1","1","1","",""
"","feedback","","html-keyboard-response","8","333492","0.0-1.0-6.0-0.0","0","0","47686","","null","","","null","0","","","","","","","","","","","","","","","",""
"","ITI","","html-keyboard-response","9","334496","0.0-1.0-9.0","0","0","47686","","null","","","null","0","","","","","","","","","","","","","","","NaN",""
"","S1","","html-keyboard-response","10","334751","0.0-1.0-11.0","0","0","47686","","null","","","null","1","","","","","","","","","","","","","","","",""
"","ISI","","html-keyboard-response","11","335254","0.0-1.0-12.0","0","0","47686","","null","","","null","1","NaN","","","","","","","","","","","","","","",""
"","S2","","html-keyboard-response","12","335509","0.0-1.0-13.0","0","0","47686","","null","","","null","1","","NaN","","","","","","","","","","","","","",""
"","response","","html-keyboard-response","13","335965","0.0-1.0-14.0-0.0","0","0","47686","","451","","","68","1","","","1","1","training","adjacent","ED","5","4","O.jpg","L.jpg","1","0","0","",""
"","feedback","","html-keyboard-response","14","336970","0.0-1.0-15.0-0.0","0","0","47686","","null","","","null","1","","","","","","","","","","","","","","","",""
"","time_out","","html-keyboard-response","15","338976","0.0-1.0-17.0-0.0","0","0","47686","","null","","","null","1","","","","","","","","","","","","","","","",""
"","ITI","","html-keyboard-response","16","339980","0.0-1.0-18.0","0","0","47686","","null","","","null","1","","","","","","","","","","","","","","","NaN",""
"","S1","","html-keyboard-response","17","340234","0.0-1.0-20.0","0","0","47686","","null","","","null","2","","","","","","","","","","","","","","","",""
"","ISI","","html-keyboard-response","18","340740","0.0-1.0-21.0","0","0","47686","","null","","","null","2","NaN","","","","","","","","","","","","","","",""
"","S2","","html-keyboard-response","19","340994","0.0-1.0-22.0","0","0","47686","","null","","","null","2","","NaN","","","","","","","","","","","","","",""
"","response","","html-keyboard-response","20","342136","0.0-1.0-23.0-0.0","0","0","47686","","1138","","","75","2","","","1","2","training","adjacent","DE","4","5","L.jpg","O.jpg","0","1","0","",""
"","feedback","","html-keyboard-response","21","343140","0.0-1.0-24.0-0.0","0","0","47686","","null","","","null","2","","","","","","","","","","","","","","","",""
"","time_out","","html-keyboard-response","22","345146","0.0-1.0-26.0-0.0","0","0","47686","","null","","","null","2","","","","","","","","","","","","","","","",""
"","ITI","","html-keyboard-response","23","346152","0.0-1.0-27.0","0","0","47686","","null","","","null","2","","","","","","","","","","","","","","","NaN",""
"","S1","","html-keyboard-response","24","346407","0.0-1.0-29.0","0","0","47686","","null","","","null","3","","","","","","","","","","","","","","","",""
"","ISI","","html-keyboard-response","25","346916","0.0-1.0-30.0","0","0","47686","","null","","","null","3","NaN","","","","","","","","","","","","","","",""
"","S2","","html-keyboard-response","26","347170","0.0-1.0-31.0","0","0","47686","","null","","","null","3","","NaN","","","","","","","","","","","","","",""
"","response","","html-keyboard-response","27","348013","0.0-1.0-32.0-0.0","0","0","47686","","837","","","68","3","","","1","3","training","adjacent","ED","5","4","O.jpg","L.jpg","1","0","0","",""
"","feedback","","html-keyboard-response","28","349022","0.0-1.0-33.0-0.0","0","0","47686","","null","","","null","3","","","","","","","","","","","","","","","",""
"","time_out","","html-keyboard-response","29","351026","0.0-1.0-35.0-0.0","0","0","47686","","null","","","null","3","","","","","","","","","","","","","","","",""
"","ITI","","html-keyboard-response","30","352030","0.0-1.0-36.0","0","0","47686","","null","","","null","3","","","","","","","","","","","","","","","NaN",""
"","S1","","html-keyboard-response","31","352285","0.0-1.0-38.0","0","0","47686","","null","","","null","4","","","","","","","","","","","","","","","",""
"","ISI","","html-keyboard-response","32","352794","0.0-1.0-39.0","0","0","47686","","null","","","null","4","NaN","","","","","","","","","","","","","","",""
"","S2","","html-keyboard-response","33","353047","0.0-1.0-40.0","0","0","47686","","null","","","null","4","","NaN","","","","","","","","","","","","","",""
"","response","","html-keyboard-response","34","354453","0.0-1.0-41.0-0.0","0","0","47686","","1402","","","75","4","","","1","4","training","adjacent","AB","1","2","Q.jpg","P.jpg","0","1","0","",""
"","feedback","","html-keyboard-response","35","355459","0.0-1.0-42.0-0.0","0","0","47686","","null","","","null","4","","","","","","","","","","","","","","","",""
"","time_out","","html-keyboard-response","36","357467","0.0-1.0-44.0-0.0","0","0","47686","","null","","","null","4","","","","","","","","","","","","","","","",""
"","ITI","","html-keyboard-response","37","358473","0.0-1.0-45.0","0","0","47686","","4","","","32","4","","","","","","","","","","","","","","","space",""
"","S1","","html-keyboard-response","38","358728","0.0-1.0-47.0","0","0","47686","","null","","","null","5","","","","","","","","","","","","","","","",""
"","ISI","","html-keyboard-response","39","359231","0.0-1.0-48.0","0","0","47686","","null","","","null","5","NaN","","","","","","","","","","","","","","",""
"","S2","","html-keyboard-response","40","359485","0.0-1.0-49.0","0","0","47686","","null","","","null","5","","NaN","","","","","","","","","","","","","",""
"","response","","html-keyboard-response","41","359685","0.0-1.0-50.0-0.0","0","0","47686","","195","","","68","5","","","1","5","training","adjacent","DC","4","3","L.jpg","M.jpg","1","0","0","",""
"","feedback","","html-keyboard-response","42","360690","0.0-1.0-51.0-0.0","0","0","47686","","null","","","null","5","","","","","","","","","","","","","","","",""
"","time_out","","html-keyboard-response","43","362695","0.0-1.0-53.0-0.0","0","0","47686","","null","","","null","5","","","","","","","","","","","","","","","",""
"","ITI","","html-keyboard-response","44","363701","0.0-1.0-54.0","0","0","47686","","null","","","null","5","","","","","","","","","","","","","","","NaN",""
"","S1","","html-keyboard-response","45","363959","0.0-1.0-56.0","0","0","47686","","null","","","null","6","","","","","","","","","","","","","","","",""
"","ISI","","html-keyboard-response","46","364463","0.0-1.0-57.0","0","0","47686","","null","","","null","6","NaN","","","","","","","","","","","","","","",""
"","S2","","html-keyboard-response","47","364716","0.0-1.0-58.0","0","0","47686","","null","","","null","6","","NaN","","","","","","","","","","","","","",""
"","response","","html-keyboard-response","48","365633","0.0-1.0-59.0-0.0","0","0","47686","","913","","","68","6","","","1","6","training","adjacent","ED","5","4","O.jpg","L.jpg","1","0","0","",""
"","feedback","","html-keyboard-response","49","366641","0.0-1.0-60.0-0.0","0","0","47686","","null","","","null","6","","","","","","","","","","","","","","","",""
"","time_out","","html-keyboard-response","50","368651","0.0-1.0-62.0-0.0","0","0","47686","","null","","","null","6","","","","","","","","","","","","","","","",""
"","ITI","","html-keyboard-response","51","369655","0.0-1.0-63.0","0","0","47686","","null","","","null","6","","","","","","","","","","","","","","","NaN",""
"","S1","","html-keyboard-response","52","369910","0.0-1.0-65.0","0","0","47686","","null","","","null","7","","","","","","","","","","","","","","","",""
"","ISI","","html-keyboard-response","53","370414","0.0-1.0-66.0","0","0","47686","","null","","","null","7","NaN","","","","","","","","","","","","","","",""
"","S2","","html-keyboard-response","54","370670","0.0-1.0-67.0","0","0","47686","","null","","","null","7","","NaN","","","","","","","","","","","","","",""
"","response","","html-keyboard-response","55","372134","0.0-1.0-68.0-0.0","0","0","47686","","1459","","","75","7","","","1","7","training","adjacent","DE","4","5","L.jpg","O.jpg","0","1","0","",""
"","feedback","","html-keyboard-response","56","373138","0.0-1.0-69.0-0.0","0","0","47686","","null","","","null","7","","","","","","","","","","","","","","","",""
"","time_out","","html-keyboard-response","57","375152","0.0-1.0-71.0-0.0","0","0","47686","","null","","","null","7","","","","","","","","","","","","","","","",""
"","ITI","","html-keyboard-response","58","376158","0.0-1.0-72.0","0","0","47686","","null","","","null","7","","","","","","","","","","","","","","","NaN",""
"","S1","","html-keyboard-response","59","376412","0.0-1.0-74.0","0","0","47686","","null","","","null","8","","","","","","","","","","","","","","","",""
"","ISI","","html-keyboard-response","60","376922","0.0-1.0-75.0","0","0","47686","","null","","","null","8","NaN","","","","","","","","","","","","","","",""
"","S2","","html-keyboard-response","61","377179","0.0-1.0-76.0","0","0","47686","","null","","","null","8","","NaN","","","","","","","","","","","","","",""
"","response","","html-keyboard-response","62","378569","0.0-1.0-77.0-0.0","0","0","47686","","1386","","","75","8","","","1","8","training","adjacent","AB","1","2","Q.jpg","P.jpg","0","1","0","",""
"","feedback","","html-keyboard-response","63","379576","0.0-1.0-78.0-0.0","0","0","47686","","null","","","null","8","","","","","","","","","","","","","","","",""
"","time_out","","html-keyboard-response","64","381579","0.0-1.0-80.0-0.0","0","0","47686","","null","","","null","8","","","","","","","","","","","","","","","",""
"","ITI","","html-keyboard-response","65","382583","0.0-1.0-81.0","0","0","47686","","null","","","null","8","","","","","","","","","","","","","","","NaN",""
"","S1","","html-keyboard-response","66","382837","0.0-1.0-83.0","0","0","47686","","null","","","null","9","","","","","","","","","","","","","","","",""
"","ISI","","html-keyboard-response","67","383342","0.0-1.0-84.0","0","0","47686","","null","","","null","9","NaN","","","","","","","","","","","","","","",""
"","S2","","html-keyboard-response","68","383597","0.0-1.0-85.0","0","0","47686","","null","","","null","9","","NaN","","","","","","","","","","","","","",""
"","response","","html-keyboard-response","69","385309","0.0-1.0-86.0-0.0","0","0","47686","","1706","","","68","9","","","1","9","training","adjacent","BC","2","3","P.jpg","M.jpg","1","1","1","",""
"","feedback","","html-keyboard-response","70","386312","0.0-1.0-87.0-0.0","0","0","47686","","null","","","null","9","","","","","","","","","","","","","","","",""
"","ITI","","html-keyboard-response","71","387316","0.0-1.0-90.0","0","0","47686","","null","","","null","9","","","","","","","","","","","","","","","NaN",""
"","S1","","html-keyboard-response","72","387572","0.0-1.0-92.0","0","0","47686","","null","","","null","10","","","","","","","","","","","","","","","",""
"","ISI","","html-keyboard-response","73","388080","0.0-1.0-93.0","0","0","47686","","null","","","null","10","NaN","","","","","","","","","","","","","","",""
"","S2","","html-keyboard-response","74","388335","0.0-1.0-94.0","0","0","47686","","null","","","null","10","","NaN","","","","","","","","","","","","","",""
"","response","","html-keyboard-response","75","390088","0.0-1.0-95.0-0.0","0","0","47686","","null","","","null","10","","","1","10","training","adjacent","FG","6","7","N.jpg","R.jpg","NaN","1","0","",""
"","too_slow_prompt","","html-keyboard-response","76","391097","0.0-1.0-97.0-0.0","1","0","47686","","null","","","null","","","","","","","","","","","","","","","","",""
"","time_out","","html-keyboard-response","77","393103","0.0-1.0-98.0-0.0","0","0","47686","","null","","","null","10","","","","","","","","","","","","","","","",""
"","ITI","","html-keyboard-response","78","394110","0.0-1.0-99.0","0","0","47686","","null","","","null","10","","","","","","","","","","","","","","","NaN",""
"","S1","","html-keyboard-response","79","394367","0.0-1.0-101.0","0","0","47686","","null","","","null","11","","","","","","","","","","","","","","","",""
"","ISI","","html-keyboard-response","80","394876","0.0-1.0-102.0","0","0","47686","","null","","","null","11","NaN","","","","","","","","","","","","","","",""
"","S2","","html-keyboard-response","81","395129","0.0-1.0-103.0","0","0","47686","","null","","","null","11","","NaN","","","","","","","","","","","","","",""
"","response","","html-keyboard-response","82","396884","0.0-1.0-104.0-0.0","0","0","47686","","null","","","null","11","","","1","11","training","adjacent","AB","1","2","Q.jpg","P.jpg","NaN","1","0","",""
"","too_slow_prompt","","html-keyboard-response","83","397899","0.0-1.0-106.0-0.0","1","0","47686","","null","","","null","","","","","","","","","","","","","","","","",""
"","time_out","","html-keyboard-response","84","399908","0.0-1.0-107.0-0.0","0","0","47686","","null","","","null","11","","","","","","","","","","","","","","","",""
"","ITI","","html-keyboard-response","85","400912","0.0-1.0-108.0","0","0","47686","","765","","","68","11","","","","","","","","","","","","","","","d",""
"","S1","","html-keyboard-response","86","401171","0.0-1.0-110.0","0","0","47686","","null","","","null","12","","","","","","","","","","","","","","","",""
"","ISI","","html-keyboard-response","87","401676","0.0-1.0-111.0","0","0","47686","","399","","","68","12","d","","","","","","","","","","","","","","",""
"","S2","","html-keyboard-response","88","401932","0.0-1.0-112.0","0","0","47686","","null","","","null","12","","NaN","","","","","","","","","","","","","",""
"","response","","html-keyboard-response","89","402187","0.0-1.0-113.0-0.0","0","0","47686","","251","","","68","12","","","1","12","training","adjacent","EF","5","6","O.jpg","N.jpg","1","1","1","",""
"","feedback","","html-keyboard-response","90","403190","0.0-1.0-114.0-0.0","0","0","47686","","null","","","null","12","","","","","","","","","","","","","","","",""
"","ITI","","html-keyboard-response","91","404194","0.0-1.0-117.0","0","0","47686","","null","","","null","12","","","","","","","","","","","","","","","NaN",""
"","S1","","html-keyboard-response","92","404447","0.0-1.0-119.0","0","0","47686","","null","","","null","13","","","","","","","","","","","","","","","",""
"","ISI","","html-keyboard-response","93","404953","0.0-1.0-120.0","0","0","47686","","null","","","null","13","NaN","","","","","","","","","","","","","","",""
"","S2","","html-keyboard-response","94","405207","0.0-1.0-121.0","0","0","47686","","null","","","null","13","","NaN","","","","","","","","","","","","","",""
"","response","","html-keyboard-response","95","406962","0.0-1.0-122.0-0.0","0","0","47686","","null","","","null","13","","","1","13","training","adjacent","DC","4","3","L.jpg","M.jpg","NaN","0","0","",""
"","too_slow_prompt","","html-keyboard-response","96","407966","0.0-1.0-124.0-0.0","1","0","47686","","null","","","null","","","","","","","","","","","","","","","","",""
"","time_out","","html-keyboard-response","97","409971","0.0-1.0-125.0-0.0","0","0","47686","","null","","","null","13","","","","","","","","","","","","","","","",""
"","ITI","","html-keyboard-response","98","410976","0.0-1.0-126.0","0","0","47686","","null","","","null","13","","","","","","","","","","","","","","","NaN",""
"","S1","","html-keyboard-response","99","411236","0.0-1.0-128.0","0","0","47686","","null","","","null","14","","","","","","","","","","","","","","","",""
"","ISI","","html-keyboard-response","100","411739","0.0-1.0-129.0","0","0","47686","","null","","","null","14","NaN","","","","","","","","","","","","","","",""
"","S2","","html-keyboard-response","101","411993","0.0-1.0-130.0","0","0","47686","","null","","","null","14","","NaN","","","","","","","","","","","","","",""
"","response","","html-keyboard-response","102","413122","0.0-1.0-131.0-0.0","0","0","47686","","1124","","","68","14","","","1","14","training","adjacent","EF","5","6","O.jpg","N.jpg","1","1","1","",""
"","feedback","","html-keyboard-response","103","414127","0.0-1.0-132.0-0.0","0","0","47686","","null","","","null","14","","","","","","","","","","","","","","","",""
"","ITI","","html-keyboard-response","104","415131","0.0-1.0-135.0","0","0","47686","","null","","","null","14","","","","","","","","","","","","","","","NaN",""
"","S1","","html-keyboard-response","105","415385","0.0-1.0-137.0","0","0","47686","","null","","","null","15","","","","","","","","","","","","","","","",""
"","ISI","","html-keyboard-response","106","415889","0.0-1.0-138.0","0","0","47686","","null","","","null","15","NaN","","","","","","","","","","","","","","",""
"","S2","","html-keyboard-response","107","416143","0.0-1.0-139.0","0","0","47686","","null","","","null","15","","NaN","","","","","","","","","","","","","",""
"","response","","html-keyboard-response","108","417464","0.0-1.0-140.0-0.0","0","0","47686","","1316","","","68","15","","","1","15","training","adjacent","DC","4","3","L.jpg","M.jpg","1","0","0","",""
"","feedback","","html-keyboard-response","109","418470","0.0-1.0-141.0-0.0","0","0","47686","","null","","","null","15","","","","","","","","","","","","","","","",""
"","time_out","","html-keyboard-response","110","420474","0.0-1.0-143.0-0.0","0","0","47686","","null","","","null","15","","","","","","","","","","","","","","","",""
"","ITI","","html-keyboard-response","111","421478","0.0-1.0-144.0","0","0","47686","","null","","","null","15","","","","","","","","","","","","","","","NaN",""
"","S1","","html-keyboard-response","112","421735","0.0-1.0-146.0","0","0","47686","","null","","","null","16","","","","","","","","","","","","","","","",""
"","ISI","","html-keyboard-response","113","422241","0.0-1.0-147.0","0","0","47686","","null","","","null","16","NaN","","","","","","","","","","","","","","",""
"","S2","","html-keyboard-response","114","422496","0.0-1.0-148.0","0","0","47686","","null","","","null","16","","NaN","","","","","","","","","","","","","",""
"","response","","html-keyboard-response","115","423639","0.0-1.0-149.0-0.0","0","0","47686","","1140","","","68","16","","","1","16","training","adjacent","CB","3","2","M.jpg","P.jpg","1","0","0","",""
"","feedback","","html-keyboard-response","116","424643","0.0-1.0-150.0-0.0","0","0","47686","","null","","","null","16","","","","","","","","","","","","","","","",""
"","time_out","","html-keyboard-response","117","426649","0.0-1.0-152.0-0.0","0","0","47686","","null","","","null","16","","","","","","","","","","","","","","","",""
"","ITI","","html-keyboard-response","118","427653","0.0-1.0-153.0","0","0","47686","","null","","","null","16","","","","","","","","","","","","","","","NaN",""
"","S1","","html-keyboard-response","119","427906","0.0-1.0-155.0","0","0","47686","","null","","","null","17","","","","","","","","","","","","","","","",""
"","ISI","","html-keyboard-response","120","428410","0.0-1.0-156.0","0","0","47686","","null","","","null","17","NaN","","","","","","","","","","","","","","",""
"","S2","","html-keyboard-response","121","428558","0.0-1.0-157.0","0","0","47686","","142","","","68","17","","d","1","17","training","adjacent","CB","3","2","M.jpg","P.jpg","1","0","0","",""
"","feedback","","html-keyboard-response","122","429563","0.0-1.0-159.0-0.0","0","0","47686","","null","","","null","17","","","","","","","","","","","","","","","",""
"","time_out","","html-keyboard-response","123","431566","0.0-1.0-161.0-0.0","0","0","47686","","null","","","null","17","","","","","","","","","","","","","","","",""
"","ITI","","html-keyboard-response","124","432569","0.0-1.0-162.0","0","0","47686","","null","","","null","17","","","","","","","","","","","","","","","NaN",""
"","S1","","html-keyboard-response","125","432825","0.0-1.0-164.0","0","0","47686","","null","","","null","18","","","","","","","","","","","","","","","",""
"","ISI","","html-keyboard-response","126","433331","0.0-1.0-165.0","0","0","47686","","null","","","null","18","NaN","","","","","","","","","","","","","","",""
"","S2","","html-keyboard-response","127","433494","0.0-1.0-166.0","0","0","47686","","159","","","68","18","","d","1","18","training","adjacent","CD","3","4","M.jpg","L.jpg","1","1","1","",""
"","feedback","","html-keyboard-response","128","434499","0.0-1.0-168.0-0.0","0","0","47686","","null","","","null","18","","","","","","","","","","","","","","","",""
"","ITI","","html-keyboard-response","129","435504","0.0-1.0-171.0","0","0","47686","","null","","","null","18","","","","","","","","","","","","","","","NaN",""
"","S1","","html-keyboard-response","130","435761","0.0-1.0-173.0","0","0","47686","","null","","","null","19","","","","","","","","","","","","","","","",""
"","ISI","","html-keyboard-response","131","436266","0.0-1.0-174.0","0","0","47686","","null","","","null","19","NaN","","","","","","","","","","","","","","",""
"","S2","","html-keyboard-response","132","436525","0.0-1.0-175.0","0","0","47686","","null","","","null","19","","NaN","","","","","","","","","","","","","",""
"","response","","html-keyboard-response","133","436852","0.0-1.0-176.0-0.0","0","0","47686","","324","","","68","19","","","1","19","training","adjacent","EF","5","6","O.jpg","N.jpg","1","1","1","",""
"","feedback","","html-keyboard-response","134","437860","0.0-1.0-177.0-0.0","0","0","47686","","null","","","null","19","","","","","","","","","","","","","","","",""
"","ITI","","html-keyboard-response","135","438864","0.0-1.0-180.0","0","0","47686","","null","","","null","19","","","","","","","","","","","","","","","NaN",""
"","S1","","html-keyboard-response","136","439119","0.0-1.0-182.0","0","0","47686","","null","","","null","20","","","","","","","","","","","","","","","",""
"","ISI","","html-keyboard-response","137","439624","0.0-1.0-183.0","0","0","47686","","null","","","null","20","NaN","","","","","","","","","","","","","","",""
"","S2","","html-keyboard-response","138","439878","0.0-1.0-184.0","0","0","47686","","null","","","null","20","","NaN","","","","","","","","","","","","","",""
"","response","","html-keyboard-response","139","441632","0.0-1.0-185.0-0.0","0","0","47686","","null","","","null","20","","","1","20","training","adjacent","FE","6","5","N.jpg","O.jpg","NaN","0","0","",""
"","too_slow_prompt","","html-keyboard-response","140","442636","0.0-1.0-187.0-0.0","1","0","47686","","null","","","null","","","","","","","","","","","","","","","","",""
"","time_out","","html-keyboard-response","141","444640","0.0-1.0-188.0-0.0","0","0","47686","","null","","","null","20","","","","","","","","","","","","","","","",""
"","ITI","","html-keyboard-response","142","445646","0.0-1.0-189.0","0","0","47686","","null","","","null","20","","","","","","","","","","","","","","","NaN",""
"","S1","","html-keyboard-response","143","445900","0.0-1.0-191.0","0","0","47686","","null","","","null","21","","","","","","","","","","","","","","","",""
"","ISI","","html-keyboard-response","144","446404","0.0-1.0-192.0","0","0","47686","","null","","","null","21","NaN","","","","","","","","","","","","","","",""
"","S2","","html-keyboard-response","145","446658","0.0-1.0-193.0","0","0","47686","","null","","","null","21","","NaN","","","","","","","","","","","","","",""
"","response","","html-keyboard-response","146","447045","0.0-1.0-194.0-0.0","0","0","47686","","383","","","68","21","","","1","21","training","adjacent","FE","6","5","N.jpg","O.jpg","1","0","0","",""
"","feedback","","html-keyboard-response","147","448050","0.0-1.0-195.0-0.0","0","0","47686","","null","","","null","21","","","","","","","","","","","","","","","",""
"","time_out","","html-keyboard-response","148","450054","0.0-1.0-197.0-0.0","0","0","47686","","null","","","null","21","","","","","","","","","","","","","","","",""
"","ITI","","html-keyboard-response","149","451059","0.0-1.0-198.0","0","0","47686","","null","","","null","21","","","","","","","","","","","","","","","NaN",""
"","S1","","html-keyboard-response","150","451314","0.0-1.0-200.0","0","0","47686","","null","","","null","22","","","","","","","","","","","","","","","",""
"","ISI","","html-keyboard-response","151","451820","0.0-1.0-201.0","0","0","47686","","null","","","null","22","NaN","","","","","","","","","","","","","","",""
"","S2","","html-keyboard-response","152","452075","0.0-1.0-202.0","0","0","47686","","null","","","null","22","","NaN","","","","","","","","","","","","","",""
"","response","","html-keyboard-response","153","453411","0.0-1.0-203.0-0.0","0","0","47686","","1329","","","75","22","","","1","22","training","adjacent","FG","6","7","N.jpg","R.jpg","0","1","0","",""
"","feedback","","html-keyboard-response","154","454417","0.0-1.0-204.0-0.0","0","0","47686","","null","","","null","22","","","","","","","","","","","","","","","",""
"","time_out","","html-keyboard-response","155","456428","0.0-1.0-206.0-0.0","0","0","47686","","null","","","null","22","","","","","","","","","","","","","","","",""
"","ITI","","html-keyboard-response","156","457435","0.0-1.0-207.0","0","0","47686","","null","","","null","22","","","","","","","","","","","","","","","NaN",""
"","S1","","html-keyboard-response","157","457690","0.0-1.0-209.0","0","0","47686","","null","","","null","23","","","","","","","","","","","","","","","",""
"","ISI","","html-keyboard-response","158","458194","0.0-1.0-210.0","0","0","47686","","null","","","null","23","NaN","","","","","","","","","","","","","","",""
"","S2","","html-keyboard-response","159","458447","0.0-1.0-211.0","0","0","47686","","null","","","null","23","","NaN","","","","","","","","","","","","","",""
"","response","","html-keyboard-response","160","460203","0.0-1.0-212.0-0.0","0","0","47686","","null","","","null","23","","","1","23","training","adjacent","GF","7","6","R.jpg","N.jpg","NaN","0","0","",""
"","too_slow_prompt","","html-keyboard-response","161","461207","0.0-1.0-214.0-0.0","1","0","47686","","null","","","null","","","","","","","","","","","","","","","","",""
"","time_out","","html-keyboard-response","162","463213","0.0-1.0-215.0-0.0","0","0","47686","","null","","","null","23","","","","","","","","","","","","","","","",""
"","ITI","","html-keyboard-response","163","464218","0.0-1.0-216.0","0","0","47686","","null","","","null","23","","","","","","","","","","","","","","","NaN",""
"","S1","","html-keyboard-response","164","464473","0.0-1.0-218.0","0","0","47686","","null","","","null","24","","","","","","","","","","","","","","","",""
"","ISI","","html-keyboard-response","165","464978","0.0-1.0-219.0","0","0","47686","","null","","","null","24","NaN","","","","","","","","","","","","","","",""
"","S2","","html-keyboard-response","166","465231","0.0-1.0-220.0","0","0","47686","","null","","","null","24","","NaN","","","","","","","","","","","","","",""
"","response","","html-keyboard-response","167","466728","0.0-1.0-221.0-0.0","0","0","47686","","1490","","","75","24","","","1","24","training","adjacent","BA","2","1","P.jpg","Q.jpg","0","0","1","",""
"","feedback","","html-keyboard-response","168","467731","0.0-1.0-222.0-0.0","0","0","47686","","null","","","null","24","","","","","","","","","","","","","","","",""
"","ITI","","html-keyboard-response","169","468735","0.0-1.0-225.0","0","0","47686","","null","","","null","24","","","","","","","","","","","","","","","NaN",""
"","S1","","html-keyboard-response","170","468990","0.0-1.0-227.0","0","0","47686","","null","","","null","25","","","","","","","","","","","","","","","",""
"","ISI","","html-keyboard-response","171","469497","0.0-1.0-228.0","0","0","47686","","null","","","null","25","NaN","","","","","","","","","","","","","","",""
"","S2","","html-keyboard-response","172","469751","0.0-1.0-229.0","0","0","47686","","null","","","null","25","","NaN","","","","","","","","","","","","","",""
"","response","","html-keyboard-response","173","471087","0.0-1.0-230.0-0.0","0","0","47686","","1332","","","75","25","","","1","25","training","adjacent","DE","4","5","L.jpg","O.jpg","0","1","0","",""
"","feedback","","html-keyboard-response","174","472091","0.0-1.0-231.0-0.0","0","0","47686","","null","","","null","25","","","","","","","","","","","","","","","",""
"","time_out","","html-keyboard-response","175","474094","0.0-1.0-233.0-0.0","0","0","47686","","null","","","null","25","","","","","","","","","","","","","","","",""
"","ITI","","html-keyboard-response","176","475098","0.0-1.0-234.0","0","0","47686","","null","","","null","25","","","","","","","","","","","","","","","NaN",""
"","S1","","html-keyboard-response","177","475353","0.0-1.0-236.0","0","0","47686","","null","","","null","26","","","","","","","","","","","","","","","",""
"","ISI","","html-keyboard-response","178","475857","0.0-1.0-237.0","0","0","47686","","null","","","null","26","NaN","","","","","","","","","","","","","","",""
"","S2","","html-keyboard-response","179","476113","0.0-1.0-238.0","0","0","47686","","null","","","null","26","","NaN","","","","","","","","","","","","","",""
"","response","","html-keyboard-response","180","476708","0.0-1.0-239.0-0.0","0","0","47686","","592","","","68","26","","","1","26","training","adjacent","AB","1","2","Q.jpg","P.jpg","1","1","1","",""
"","feedback","","html-keyboard-response","181","477714","0.0-1.0-240.0-0.0","0","0","47686","","null","","","null","26","","","","","","","","","","","","","","","",""
"","ITI","","html-keyboard-response","182","478720","0.0-1.0-243.0","0","0","47686","","null","","","null","26","","","","","","","","","","","","","","","NaN",""
"","S1","","html-keyboard-response","183","478975","0.0-1.0-245.0","0","0","47686","","null","","","null","27","","","","","","","","","","","","","","","",""
"","ISI","","html-keyboard-response","184","479479","0.0-1.0-246.0","0","0","47686","","null","","","null","27","NaN","","","","","","","","","","","","","","",""
"","S2","","html-keyboard-response","185","479734","0.0-1.0-247.0","0","0","47686","","null","","","null","27","","NaN","","","","","","","","","","","","","",""
"","response","","html-keyboard-response","186","480821","0.0-1.0-248.0-0.0","0","0","47686","","1080","","","68","27","","","1","27","training","adjacent","BA","2","1","P.jpg","Q.jpg","1","0","0","",""
"","feedback","","html-keyboard-response","187","481828","0.0-1.0-249.0-0.0","0","0","47686","","null","","","null","27","","","","","","","","","","","","","","","",""
"","time_out","","html-keyboard-response","188","483838","0.0-1.0-251.0-0.0","0","0","47686","","null","","","null","27","","","","","","","","","","","","","","","",""
"","ITI","","html-keyboard-response","189","484842","0.0-1.0-252.0","0","0","47686","","null","","","null","27","","","","","","","","","","","","","","","NaN",""
"","S1","","html-keyboard-response","190","485102","0.0-1.0-254.0","0","0","47686","","null","","","null","28","","","","","","","","","","","","","","","",""
"","ISI","","html-keyboard-response","191","485607","0.0-1.0-255.0","0","0","47686","","null","","","null","28","NaN","","","","","","","","","","","","","","",""
"","S2","","html-keyboard-response","192","485861","0.0-1.0-256.0","0","0","47686","","null","","","null","28","","NaN","","","","","","","","","","","","","",""
"","response","","html-keyboard-response","193","485997","0.0-1.0-257.0-0.0","0","0","47686","","134","","","75","28","","","1","28","training","adjacent","BC","2","3","P.jpg","M.jpg","0","1","0","",""
"","feedback","","html-keyboard-response","194","487002","0.0-1.0-258.0-0.0","0","0","47686","","null","","","null","28","","","","","","","","","","","","","","","",""
"","time_out","","html-keyboard-response","195","489008","0.0-1.0-260.0-0.0","0","0","47686","","null","","","null","28","","","","","","","","","","","","","","","",""
"","ITI","","html-keyboard-response","196","490014","0.0-1.0-261.0","0","0","47686","","null","","","null","28","","","","","","","","","","","","","","","NaN",""
"","S1","","html-keyboard-response","197","490272","0.0-1.0-263.0","0","0","47686","","null","","","null","29","","","","","","","","","","","","","","","",""
"","ISI","","html-keyboard-response","198","490776","0.0-1.0-264.0","0","0","47686","","null","","","null","29","NaN","","","","","","","","","","","","","","",""
"","S2","","html-keyboard-response","199","491031","0.0-1.0-265.0","0","0","47686","","null","","","null","29","","NaN","","","","","","","","","","","","","",""
"","response","","html-keyboard-response","200","492790","0.0-1.0-266.0-0.0","0","0","47686","","null","","","null","29","","","1","29","training","adjacent","CD","3","4","M.jpg","L.jpg","NaN","1","0","",""
"","too_slow_prompt","","html-keyboard-response","201","493796","0.0-1.0-268.0-0.0","1","0","47686","","null","","","null","","","","","","","","","","","","","","","","",""
"","time_out","","html-keyboard-response","202","495802","0.0-1.0-269.0-0.0","0","0","47686","","null","","","null","29","","","","","","","","","","","","","","","",""
"","ITI","","html-keyboard-response","203","496807","0.0-1.0-270.0","0","0","47686","","549","","","68","29","","","","","","","","","","","","","","","d",""
"","S1","","html-keyboard-response","204","497061","0.0-1.0-272.0","0","0","47686","","null","","","null","30","","","","","","","","","","","","","","","",""
"","ISI","","html-keyboard-response","205","497566","0.0-1.0-273.0","0","0","47686","","487","","","68","30","d","","","","","","","","","","","","","","",""
"","S2","","html-keyboard-response","206","497821","0.0-1.0-274.0","0","0","47686","","null","","","null","30","","NaN","","","","","","","","","","","","","",""
"","response","","html-keyboard-response","207","498772","0.0-1.0-275.0-0.0","0","0","47686","","948","","","68","30","","","1","30","training","adjacent","FG","6","7","N.jpg","R.jpg","1","1","1","",""
"","feedback","","html-keyboard-response","208","499777","0.0-1.0-276.0-0.0","0","0","47686","","null","","","null","30","","","","","","","","","","","","","","","",""
"","ITI","","html-keyboard-response","209","500782","0.0-1.0-279.0","0","0","47686","","308","","","68","30","","","","","","","","","","","","","","","d",""
"","S1","","html-keyboard-response","210","501038","0.0-1.0-281.0","0","0","47686","","null","","","null","31","","","","","","","","","","","","","","","",""
"","ISI","","html-keyboard-response","211","501542","0.0-1.0-282.0","0","0","47686","","null","","","null","31","NaN","","","","","","","","","","","","","","",""
"","S2","","html-keyboard-response","212","501797","0.0-1.0-283.0","0","0","47686","","null","","","null","31","","NaN","","","","","","","","","","","","","",""
"","response","","html-keyboard-response","213","501966","0.0-1.0-284.0-0.0","0","0","47686","","166","","","68","31","","","1","31","training","adjacent","FG","6","7","N.jpg","R.jpg","1","1","1","",""
"","feedback","","html-keyboard-response","214","502973","0.0-1.0-285.0-0.0","0","0","47686","","null","","","null","31","","","","","","","","","","","","","","","",""
"","ITI","","html-keyboard-response","215","503978","0.0-1.0-288.0","0","0","47686","","null","","","null","31","","","","","","","","","","","","","","","NaN",""
"","S1","","html-keyboard-response","216","504233","0.0-1.0-290.0","0","0","47686","","null","","","null","32","","","","","","","","","","","","","","","",""
"","ISI","","html-keyboard-response","217","504739","0.0-1.0-291.0","0","0","47686","","null","","","null","32","NaN","","","","","","","","","","","","","","",""
"","S2","","html-keyboard-response","218","504999","0.0-1.0-292.0","0","0","47686","","null","","","null","32","","NaN","","","","","","","","","","","","","",""
"","response","","html-keyboard-response","219","505722","0.0-1.0-293.0-0.0","0","0","47686","","717","","","75","32","","","1","32","training","adjacent","CD","3","4","M.jpg","L.jpg","0","1","0","",""
"","feedback","","html-keyboard-response","220","506729","0.0-1.0-294.0-0.0","0","0","47686","","null","","","null","32","","","","","","","","","","","","","","","",""
"","time_out","","html-keyboard-response","221","508735","0.0-1.0-296.0-0.0","0","0","47686","","null","","","null","32","","","","","","","","","","","","","","","",""
"","ITI","","html-keyboard-response","222","509740","0.0-1.0-297.0","0","0","47686","","null","","","null","32","","","","","","","","","","","","","","","NaN",""
"","S1","","html-keyboard-response","223","509994","0.0-1.0-299.0","0","0","47686","","null","","","null","33","","","","","","","","","","","","","","","",""
"","ISI","","html-keyboard-response","224","510499","0.0-1.0-300.0","0","0","47686","","278","","","68","33","d","","","","","","","","","","","","","","",""
"","S2","","html-keyboard-response","225","510586","0.0-1.0-301.0","0","0","47686","","84","","","68","33","","d","1","33","training","adjacent","ED","5","4","O.jpg","L.jpg","1","0","0","",""
"","feedback","","html-keyboard-response","226","511593","0.0-1.0-303.0-0.0","0","0","47686","","null","","","null","33","","","","","","","","","","","","","","","",""
"","time_out","","html-keyboard-response","227","513598","0.0-1.0-305.0-0.0","0","0","47686","","null","","","null","33","","","","","","","","","","","","","","","",""
"","ITI","","html-keyboard-response","228","514605","0.0-1.0-306.0","0","0","47686","","null","","","null","33","","","","","","","","","","","","","","","NaN",""
"","S1","","html-keyboard-response","229","514861","0.0-1.0-308.0","0","0","47686","","null","","","null","34","","","","","","","","","","","","","","","",""
"","ISI","","html-keyboard-response","230","515365","0.0-1.0-309.0","0","0","47686","","null","","","null","34","NaN","","","","","","","","","","","","","","",""
"","S2","","html-keyboard-response","231","515620","0.0-1.0-310.0","0","0","47686","","null","","","null","34","","NaN","","","","","","","","","","","","","",""
"","response","","html-keyboard-response","232","516388","0.0-1.0-311.0-0.0","0","0","47686","","763","","","75","34","","","1","34","training","adjacent","GF","7","6","R.jpg","N.jpg","0","0","1","",""
"","feedback","","html-keyboard-response","233","517393","0.0-1.0-312.0-0.0","0","0","47686","","null","","","null","34","","","","","","","","","","","","","","","",""
"","ITI","","html-keyboard-response","234","518400","0.0-1.0-315.0","0","0","47686","","null","","","null","34","","","","","","","","","","","","","","","NaN",""
"","S1","","html-keyboard-response","235","518655","0.0-1.0-317.0","0","0","47686","","null","","","null","35","","","","","","","","","","","","","","","",""
"","ISI","","html-keyboard-response","236","519160","0.0-1.0-318.0","0","0","47686","","null","","","null","35","NaN","","","","","","","","","","","","","","",""
"","S2","","html-keyboard-response","237","519417","0.0-1.0-319.0","0","0","47686","","null","","","null","35","","NaN","","","","","","","","","","","","","",""
"","response","","html-keyboard-response","238","520543","0.0-1.0-320.0-0.0","0","0","47686","","1121","","","68","35","","","1","35","training","adjacent","BA","2","1","P.jpg","Q.jpg","1","0","0","",""
"","feedback","","html-keyboard-response","239","521554","0.0-1.0-321.0-0.0","0","0","47686","","null","","","null","35","","","","","","","","","","","","","","","",""
"","time_out","","html-keyboard-response","240","523562","0.0-1.0-323.0-0.0","0","0","47686","","null","","","null","35","","","","","","","","","","","","","","","",""
"","ITI","","html-keyboard-response","241","524573","0.0-1.0-324.0","0","0","47686","","null","","","null","35","","","","","","","","","","","","","","","NaN",""
"","S1","","html-keyboard-response","242","524832","0.0-1.0-326.0","0","0","47686","","null","","","null","36","","","","","","","","","","","","","","","",""
"","ISI","","html-keyboard-response","243","525338","0.0-1.0-327.0","0","0","47686","","null","","","null","36","NaN","","","","","","","","","","","","","","",""
"","S2","","html-keyboard-response","244","525614","0.0-1.0-328.0","0","0","47686","","null","","","null","36","","NaN","","","","","","","","","","","","","",""
"","response","","html-keyboard-response","245","526732","0.0-1.0-329.0-0.0","0","0","47686","","1113","","","75","36","","","1","36","training","adjacent","BC","2","3","P.jpg","M.jpg","0","1","0","",""
"","feedback","","html-keyboard-response","246","527739","0.0-1.0-330.0-0.0","0","0","47686","","null","","","null","36","","","","","","","","","","","","","","","",""
"","time_out","","html-keyboard-response","247","529745","0.0-1.0-332.0-0.0","0","0","47686","","null","","","null","36","","","","","","","","","","","","","","","",""
"","ITI","","html-keyboard-response","248","530750","0.0-1.0-333.0","0","0","47686","","null","","","null","36","","","","","","","","","","","","","","","NaN",""
"","S1","","html-keyboard-response","249","531006","0.0-1.0-335.0","0","0","47686","","null","","","null","37","","","","","","","","","","","","","","","",""
"","ISI","","html-keyboard-response","250","531513","0.0-1.0-336.0","0","0","47686","","205","","","75","37","k","","","","","","","","","","","","","","",""
"","S2","","html-keyboard-response","251","531769","0.0-1.0-337.0","0","0","47686","","null","","","null","37","","NaN","","","","","","","","","","","","","",""
"","response","","html-keyboard-response","252","532489","0.0-1.0-338.0-0.0","0","0","47686","","716","","","75","37","","","1","37","training","adjacent","DE","4","5","L.jpg","O.jpg","0","1","0","",""
"","feedback","","html-keyboard-response","253","533495","0.0-1.0-339.0-0.0","0","0","47686","","null","","","null","37","","","","","","","","","","","","","","","",""
"","time_out","","html-keyboard-response","254","535504","0.0-1.0-341.0-0.0","0","0","47686","","null","","","null","37","","","","","","","","","","","","","","","",""
"","ITI","","html-keyboard-response","255","536510","0.0-1.0-342.0","0","0","47686","","null","","","null","37","","","","","","","","","","","","","","","NaN",""
"","S1","","html-keyboard-response","256","536765","0.0-1.0-344.0","0","0","47686","","null","","","null","38","","","","","","","","","","","","","","","",""
"","ISI","","html-keyboard-response","257","537270","0.0-1.0-345.0","0","0","47686","","null","","","null","38","NaN","","","","","","","","","","","","","","",""
"","S2","","html-keyboard-response","258","537527","0.0-1.0-346.0","0","0","47686","","null","","","null","38","","NaN","","","","","","","","","","","","","",""
"","response","","html-keyboard-response","259","538279","0.0-1.0-347.0-0.0","0","0","47686","","742","","","75","38","","","1","38","training","adjacent","CB","3","2","M.jpg","P.jpg","0","0","1","",""
"","feedback","","html-keyboard-response","260","539285","0.0-1.0-348.0-0.0","0","0","47686","","null","","","null","38","","","","","","","","","","","","","","","",""
"","ITI","","html-keyboard-response","261","540291","0.0-1.0-351.0","0","0","47686","","null","","","null","38","","","","","","","","","","","","","","","NaN",""
"","S1","","html-keyboard-response","262","540546","0.0-1.0-353.0","0","0","47686","","null","","","null","39","","","","","","","","","","","","","","","",""
"","ISI","","html-keyboard-response","263","541050","0.0-1.0-354.0","0","0","47686","","null","","","null","39","NaN","","","","","","","","","","","","","","",""
"","S2","","html-keyboard-response","264","541303","0.0-1.0-355.0","0","0","47686","","null","","","null","39","","NaN","","","","","","","","","","","","","",""
"","response","","html-keyboard-response","265","542325","0.0-1.0-356.0-0.0","0","0","47686","","1016","","","68","39","","","1","39","training","adjacent","GF","7","6","R.jpg","N.jpg","1","0","0","",""
"","feedback","","html-keyboard-response","266","543331","0.0-1.0-357.0-0.0","0","0","47686","","null","","","null","39","","","","","","","","","","","","","","","",""
"","time_out","","html-keyboard-response","267","545335","0.0-1.0-359.0-0.0","0","0","47686","","null","","","null","39","","","","","","","","","","","","","","","",""
"","ITI","","html-keyboard-response","268","546339","0.0-1.0-360.0","0","0","47686","","null","","","null","39","","","","","","","","","","","","","","","NaN",""
"","S1","","html-keyboard-response","269","546593","0.0-1.0-362.0","0","0","47686","","null","","","null","40","","","","","","","","","","","","","","","",""
"","ISI","","html-keyboard-response","270","547096","0.0-1.0-363.0","0","0","47686","","null","","","null","40","NaN","","","","","","","","","","","","","","",""
"","S2","","html-keyboard-response","271","547350","0.0-1.0-364.0","0","0","47686","","null","","","null","40","","NaN","","","","","","","","","","","","","",""
"","response","","html-keyboard-response","272","547371","0.0-1.0-365.0-0.0","0","0","47686","","17","","","68","40","","","1","40","training","adjacent","CB","3","2","M.jpg","P.jpg","1","0","0","",""
"","feedback","","html-keyboard-response","273","548377","0.0-1.0-366.0-0.0","0","0","47686","","null","","","null","40","","","","","","","","","","","","","","","",""
"","time_out","","html-keyboard-response","274","550383","0.0-1.0-368.0-0.0","0","0","47686","","null","","","null","40","","","","","","","","","","","","","","","",""
"","ITI","","html-keyboard-response","275","551387","0.0-1.0-369.0","0","0","47686","","null","","","null","40","","","","","","","","","","","","","","","NaN",""
"","S1","","html-keyboard-response","276","551641","0.0-1.0-371.0","0","0","47686","","null","","","null","41","","","","","","","","","","","","","","","",""
"","ISI","","html-keyboard-response","277","552146","0.0-1.0-372.0","0","0","47686","","null","","","null","41","NaN","","","","","","","","","","","","","","",""
"","S2","","html-keyboard-response","278","552400","0.0-1.0-373.0","0","0","47686","","null","","","null","41","","NaN","","","","","","","","","","","","","",""
"","response","","html-keyboard-response","279","553012","0.0-1.0-374.0-0.0","0","0","47686","","607","","","68","41","","","1","41","training","adjacent","FE","6","5","N.jpg","O.jpg","1","0","0","",""
"","feedback","","html-keyboard-response","280","554018","0.0-1.0-375.0-0.0","0","0","47686","","null","","","null","41","","","","","","","","","","","","","","","",""
"","time_out","","html-keyboard-response","281","556027","0.0-1.0-377.0-0.0","0","0","47686","","null","","","null","41","","","","","","","","","","","","","","","",""
"","ITI","","html-keyboard-response","282","557035","0.0-1.0-378.0","0","0","47686","","null","","","null","41","","","","","","","","","","","","","","","NaN",""
"","S1","","html-keyboard-response","283","557290","0.0-1.0-380.0","0","0","47686","","null","","","null","42","","","","","","","","","","","","","","","",""
"","ISI","","html-keyboard-response","284","557794","0.0-1.0-381.0","0","0","47686","","null","","","null","42","NaN","","","","","","","","","","","","","","",""
"","S2","","html-keyboard-response","285","558049","0.0-1.0-382.0","0","0","47686","","null","","","null","42","","NaN","","","","","","","","","","","","","",""
"","response","","html-keyboard-response","286","558484","0.0-1.0-383.0-0.0","0","0","47686","","431","","","75","42","","","1","42","training","adjacent","FE","6","5","N.jpg","O.jpg","0","0","1","",""
"","feedback","","html-keyboard-response","287","559489","0.0-1.0-384.0-0.0","0","0","47686","","null","","","null","42","","","","","","","","","","","","","","","",""
"","ITI","","html-keyboard-response","288","560492","0.0-1.0-387.0","0","0","47686","","null","","","null","42","","","","","","","","","","","","","","","NaN",""
"","S1","","html-keyboard-response","289","560746","0.0-1.0-389.0","0","0","47686","","null","","","null","43","","","","","","","","","","","","","","","",""
"","ISI","","html-keyboard-response","290","561250","0.0-1.0-390.0","0","0","47686","","null","","","null","43","NaN","","","","","","","","","","","","","","",""
"","S2","","html-keyboard-response","291","561508","0.0-1.0-391.0","0","0","47686","","null","","","null","43","","NaN","","","","","","","","","","","","","",""
"","response","","html-keyboard-response","292","563064","0.0-1.0-392.0-0.0","0","0","47686","","1550","","","68","43","","","1","43","training","adjacent","BA","2","1","P.jpg","Q.jpg","1","0","0","",""
"","feedback","","html-keyboard-response","293","564069","0.0-1.0-393.0-0.0","0","0","47686","","null","","","null","43","","","","","","","","","","","","","","","",""
"","time_out","","html-keyboard-response","294","566074","0.0-1.0-395.0-0.0","0","0","47686","","null","","","null","43","","","","","","","","","","","","","","","",""
"","ITI","","html-keyboard-response","295","567080","0.0-1.0-396.0","0","0","47686","","null","","","null","43","","","","","","","","","","","","","","","NaN",""
"","S1","","html-keyboard-response","296","567334","0.0-1.0-398.0","0","0","47686","","null","","","null","44","","","","","","","","","","","","","","","",""
"","ISI","","html-keyboard-response","297","567840","0.0-1.0-399.0","0","0","47686","","null","","","null","44","NaN","","","","","","","","","","","","","","",""
"","S2","","html-keyboard-response","298","568096","0.0-1.0-400.0","0","0","47686","","null","","","null","44","","NaN","","","","","","","","","","","","","",""
"","response","","html-keyboard-response","299","569404","0.0-1.0-401.0-0.0","0","0","47686","","1302","","","68","44","","","1","44","training","adjacent","GF","7","6","R.jpg","N.jpg","1","0","0","",""
"","feedback","","html-keyboard-response","300","570412","0.0-1.0-402.0-0.0","0","0","47686","","null","","","null","44","","","","","","","","","","","","","","","",""
"","time_out","","html-keyboard-response","301","572415","0.0-1.0-404.0-0.0","0","0","47686","","null","","","null","44","","","","","","","","","","","","","","","",""
"","ITI","","html-keyboard-response","302","573419","0.0-1.0-405.0","0","0","47686","","null","","","null","44","","","","","","","","","","","","","","","NaN",""
"","S1","","html-keyboard-response","303","573675","0.0-1.0-407.0","0","0","47686","","null","","","null","45","","","","","","","","","","","","","","","",""
"","ISI","","html-keyboard-response","304","574181","0.0-1.0-408.0","0","0","47686","","null","","","null","45","NaN","","","","","","","","","","","","","","",""
"","S2","","html-keyboard-response","305","574436","0.0-1.0-409.0","0","0","47686","","null","","","null","45","","NaN","","","","","","","","","","","","","",""
"","response","","html-keyboard-response","306","575080","0.0-1.0-410.0-0.0","0","0","47686","","640","","","75","45","","","1","45","training","adjacent","BC","2","3","P.jpg","M.jpg","0","1","0","",""
"","feedback","","html-keyboard-response","307","576084","0.0-1.0-411.0-0.0","0","0","47686","","null","","","null","45","","","","","","","","","","","","","","","",""
"","time_out","","html-keyboard-response","308","578096","0.0-1.0-413.0-0.0","0","0","47686","","null","","","null","45","","","","","","","","","","","","","","","",""
"","ITI","","html-keyboard-response","309","579103","0.0-1.0-414.0","0","0","47686","","null","","","null","45","","","","","","","","","","","","","","","NaN",""
"","S1","","html-keyboard-response","310","579357","0.0-1.0-416.0","0","0","47686","","null","","","null","46","","","","","","","","","","","","","","","",""
"","ISI","","html-keyboard-response","311","579860","0.0-1.0-417.0","0","0","47686","","null","","","null","46","NaN","","","","","","","","","","","","","","",""
"","S2","","html-keyboard-response","312","580114","0.0-1.0-418.0","0","0","47686","","null","","","null","46","","NaN","","","","","","","","","","","","","",""
"","response","","html-keyboard-response","313","580639","0.0-1.0-419.0-0.0","0","0","47686","","521","","","75","46","","","1","46","training","adjacent","DC","4","3","L.jpg","M.jpg","0","0","1","",""
"","feedback","","html-keyboard-response","314","581645","0.0-1.0-420.0-0.0","0","0","47686","","null","","","null","46","","","","","","","","","","","","","","","",""
"","ITI","","html-keyboard-response","315","582649","0.0-1.0-423.0","0","0","47686","","null","","","null","46","","","","","","","","","","","","","","","NaN",""
"","S1","","html-keyboard-response","316","582904","0.0-1.0-425.0","0","0","47686","","null","","","null","47","","","","","","","","","","","","","","","",""
"","ISI","","html-keyboard-response","317","583409","0.0-1.0-426.0","0","0","47686","","null","","","null","47","NaN","","","","","","","","","","","","","","",""
"","S2","","html-keyboard-response","318","583664","0.0-1.0-427.0","0","0","47686","","null","","","null","47","","NaN","","","","","","","","","","","","","",""
"","response","","html-keyboard-response","319","584205","0.0-1.0-428.0-0.0","0","0","47686","","537","","","75","47","","","1","47","training","adjacent","CD","3","4","M.jpg","L.jpg","0","1","0","",""
"","feedback","","html-keyboard-response","320","585210","0.0-1.0-429.0-0.0","0","0","47686","","null","","","null","47","","","","","","","","","","","","","","","",""
"","time_out","","html-keyboard-response","321","587216","0.0-1.0-431.0-0.0","0","0","47686","","null","","","null","47","","","","","","","","","","","","","","","",""
"","ITI","","html-keyboard-response","322","588228","0.0-1.0-432.0","0","0","47686","","null","","","null","47","","","","","","","","","","","","","","","NaN",""
"","block_over","","html-keyboard-response","323","596853","0.0-1.0-433.0-0.0","0","0","47686","","8616","","","32","47","","","","","","","","","","","","","","","",""
"","S1","","html-keyboard-response","324","597107","0.0-1.0-434.0","0","0","47686","","null","","","null","48","","","","","","","","","","","","","","","",""
"","ISI","","html-keyboard-response","325","597612","0.0-1.0-435.0","0","0","47686","","null","","","null","48","NaN","","","","","","","","","","","","","","",""
"","S2","","html-keyboard-response","326","597866","0.0-1.0-436.0","0","0","47686","","null","","","null","48","","NaN","","","","","","","","","","","","","",""
"","response","","html-keyboard-response","327","598768","0.0-1.0-437.0-0.0","0","0","47686","","897","","","75","48","","","2","48","training","adjacent","DE","4","5","L.jpg","O.jpg","0","1","0","",""
"","feedback","","html-keyboard-response","328","599772","0.0-1.0-438.0-0.0","0","0","47686","","null","","","null","48","","","","","","","","","","","","","","","",""
"","time_out","","html-keyboard-response","329","601778","0.0-1.0-440.0-0.0","0","0","47686","","null","","","null","48","","","","","","","","","","","","","","","",""
"","ITI","","html-keyboard-response","330","602783","0.0-1.0-441.0","0","0","47686","","319","","","68","48","","","","","","","","","","","","","","","d",""
"","S1","","html-keyboard-response","331","603038","0.0-1.0-443.0","0","0","47686","","null","","","null","49","","","","","","","","","","","","","","","",""
"","ISI","","html-keyboard-response","332","603544","0.0-1.0-444.0","0","0","47686","","null","","","null","49","NaN","","","","","","","","","","","","","","",""
"","S2","","html-keyboard-response","333","603798","0.0-1.0-445.0","0","0","47686","","null","","","null","49","","NaN","","","","","","","","","","","","","",""
"","response","","html-keyboard-response","334","604330","0.0-1.0-446.0-0.0","0","0","47686","","529","","","68","49","","","2","49","training","adjacent","CD","3","4","M.jpg","L.jpg","1","1","1","",""
"","feedback","","html-keyboard-response","335","605342","0.0-1.0-447.0-0.0","0","0","47686","","null","","","null","49","","","","","","","","","","","","","","","",""
"","ITI","","html-keyboard-response","336","606348","0.0-1.0-450.0","0","0","47686","","null","","","null","49","","","","","","","","","","","","","","","NaN",""
"","S1","","html-keyboard-response","337","606605","0.0-1.0-452.0","0","0","47686","","null","","","null","50","","","","","","","","","","","","","","","",""
"","ISI","","html-keyboard-response","338","607109","0.0-1.0-453.0","0","0","47686","","null","","","null","50","NaN","","","","","","","","","","","","","","",""
"","S2","","html-keyboard-response","339","607367","0.0-1.0-454.0","0","0","47686","","null","","","null","50","","NaN","","","","","","","","","","","","","",""
"","response","","html-keyboard-response","340","607748","0.0-1.0-455.0-0.0","0","0","47686","","378","","","68","50","","","2","50","training","adjacent","AB","1","2","Q.jpg","P.jpg","1","1","1","",""
"","feedback","","html-keyboard-response","341","608752","0.0-1.0-456.0-0.0","0","0","47686","","null","","","null","50","","","","","","","","","","","","","","","",""
"","ITI","","html-keyboard-response","342","609757","0.0-1.0-459.0","0","0","47686","","null","","","null","50","","","","","","","","","","","","","","","NaN",""
"","S1","","html-keyboard-response","343","610011","0.0-1.0-461.0","0","0","47686","","null","","","null","51","","","","","","","","","","","","","","","",""
"","ISI","","html-keyboard-response","344","610517","0.0-1.0-462.0","0","0","47686","","null","","","null","51","NaN","","","","","","","","","","","","","","",""
"","S2","","html-keyboard-response","345","610772","0.0-1.0-463.0","0","0","47686","","null","","","null","51","","NaN","","","","","","","","","","","","","",""
"","response","","html-keyboard-response","346","611373","0.0-1.0-464.0-0.0","0","0","47686","","597","","","68","51","","","2","51","training","adjacent","BC","2","3","P.jpg","M.jpg","1","1","1","",""
"","feedback","","html-keyboard-response","347","612378","0.0-1.0-465.0-0.0","0","0","47686","","null","","","null","51","","","","","","","","","","","","","","","",""
"","ITI","","html-keyboard-response","348","613382","0.0-1.0-468.0","0","0","47686","","null","","","null","51","","","","","","","","","","","","","","","NaN",""
"","S1","","html-keyboard-response","349","613639","0.0-1.0-470.0","0","0","47686","","null","","","null","52","","","","","","","","","","","","","","","",""
"","ISI","","html-keyboard-response","350","614143","0.0-1.0-471.0","0","0","47686","","null","","","null","52","NaN","","","","","","","","","","","","","","",""
"","S2","","html-keyboard-response","351","614397","0.0-1.0-472.0","0","0","47686","","null","","","null","52","","NaN","","","","","","","","","","","","","",""
"","response","","html-keyboard-response","352","615213","0.0-1.0-473.0-0.0","0","0","47686","","810","","","68","52","","","2","52","training","adjacent","FG","6","7","N.jpg","R.jpg","1","1","1","",""
"","feedback","","html-keyboard-response","353","616219","0.0-1.0-474.0-0.0","0","0","47686","","null","","","null","52","","","","","","","","","","","","","","","",""
"","ITI","","html-keyboard-response","354","617225","0.0-1.0-477.0","0","0","47686","","null","","","null","52","","","","","","","","","","","","","","","NaN",""
"","S1","","html-keyboard-response","355","617481","0.0-1.0-479.0","0","0","47686","","null","","","null","53","","","","","","","","","","","","","","","",""
"","ISI","","html-keyboard-response","356","617983","0.0-1.0-480.0","0","0","47686","","null","","","null","53","NaN","","","","","","","","","","","","","","",""
"","S2","","html-keyboard-response","357","618237","0.0-1.0-481.0","0","0","47686","","null","","","null","53","","NaN","","","","","","","","","","","","","",""
"","response","","html-keyboard-response","358","619132","0.0-1.0-482.0-0.0","0","0","47686","","891","","","68","53","","","2","53","training","adjacent","BA","2","1","P.jpg","Q.jpg","1","0","0","",""
"","feedback","","html-keyboard-response","359","620139","0.0-1.0-483.0-0.0","0","0","47686","","null","","","null","53","","","","","","","","","","","","","","","",""
"","time_out","","html-keyboard-response","360","622143","0.0-1.0-485.0-0.0","0","0","47686","","null","","","null","53","","","","","","","","","","","","","","","",""
"","ITI","","html-keyboard-response","361","623146","0.0-1.0-486.0","0","0","47686","","null","","","null","53","","","","","","","","","","","","","","","NaN",""
"","S1","","html-keyboard-response","362","623402","0.0-1.0-488.0","0","0","47686","","null","","","null","54","","","","","","","","","","","","","","","",""
"","ISI","","html-keyboard-response","363","623907","0.0-1.0-489.0","0","0","47686","","null","","","null","54","NaN","","","","","","","","","","","","","","",""
"","S2","","html-keyboard-response","364","624161","0.0-1.0-490.0","0","0","47686","","null","","","null","54","","NaN","","","","","","","","","","","","","",""
"","response","","html-keyboard-response","365","624366","0.0-1.0-491.0-0.0","0","0","47686","","201","","","68","54","","","2","54","training","adjacent","CD","3","4","M.jpg","L.jpg","1","1","1","",""
"","feedback","","html-keyboard-response","366","625371","0.0-1.0-492.0-0.0","0","0","47686","","null","","","null","54","","","","","","","","","","","","","","","",""
"","ITI","","html-keyboard-response","367","626375","0.0-1.0-495.0","0","0","47686","","null","","","null","54","","","","","","","","","","","","","","","NaN",""
"","S1","","html-keyboard-response","368","626630","0.0-1.0-497.0","0","0","47686","","null","","","null","55","","","","","","","","","","","","","","","",""
"","ISI","","html-keyboard-response","369","627134","0.0-1.0-498.0","0","0","47686","","null","","","null","55","NaN","","","","","","","","","","","","","","",""
"","S2","","html-keyboard-response","370","627387","0.0-1.0-499.0","0","0","47686","","null","","","null","55","","NaN","","","","","","","","","","","","","",""
"","response","","html-keyboard-response","371","627859","0.0-1.0-500.0-0.0","0","0","47686","","468","","","68","55","","","2","55","training","adjacent","AB","1","2","Q.jpg","P.jpg","1","1","1","",""
"","feedback","","html-keyboard-response","372","628866","0.0-1.0-501.0-0.0","0","0","47686","","null","","","null","55","","","","","","","","","","","","","","","",""
"","ITI","","html-keyboard-response","373","629872","0.0-1.0-504.0","0","0","47686","","null","","","null","55","","","","","","","","","","","","","","","NaN",""
"","S1","","html-keyboard-response","374","630126","0.0-1.0-506.0","0","0","47686","","null","","","null","56","","","","","","","","","","","","","","","",""
"","ISI","","html-keyboard-response","375","630630","0.0-1.0-507.0","0","0","47686","","null","","","null","56","NaN","","","","","","","","","","","","","","",""
"","S2","","html-keyboard-response","376","630884","0.0-1.0-508.0","0","0","47686","","null","","","null","56","","NaN","","","","","","","","","","","","","",""
"","response","","html-keyboard-response","377","632032","0.0-1.0-509.0-0.0","0","0","47686","","1143","","","68","56","","","2","56","training","adjacent","DC","4","3","L.jpg","M.jpg","1","0","0","",""
"","feedback","","html-keyboard-response","378","633037","0.0-1.0-510.0-0.0","0","0","47686","","null","","","null","56","","","","","","","","","","","","","","","",""
"","time_out","","html-keyboard-response","379","635042","0.0-1.0-512.0-0.0","0","0","47686","","null","","","null","56","","","","","","","","","","","","","","","",""
"","ITI","","html-keyboard-response","380","636048","0.0-1.0-513.0","0","0","47686","","null","","","null","56","","","","","","","","","","","","","","","NaN",""
"","S1","","html-keyboard-response","381","636303","0.0-1.0-515.0","0","0","47686","","null","","","null","57","","","","","","","","","","","","","","","",""
"","ISI","","html-keyboard-response","382","636810","0.0-1.0-516.0","0","0","47686","","201","","","75","57","k","","","","","","","","","","","","","","",""
"","S2","","html-keyboard-response","383","637065","0.0-1.0-517.0","0","0","47686","","null","","","null","57","","NaN","","","","","","","","","","","","","",""
"","response","","html-keyboard-response","384","637800","0.0-1.0-518.0-0.0","0","0","47686","","731","","","68","57","","","2","57","training","adjacent","EF","5","6","O.jpg","N.jpg","1","1","1","",""
"","feedback","","html-keyboard-response","385","638804","0.0-1.0-519.0-0.0","0","0","47686","","null","","","null","57","","","","","","","","","","","","","","","",""
"","ITI","","html-keyboard-response","386","639809","0.0-1.0-522.0","0","0","47686","","null","","","null","57","","","","","","","","","","","","","","","NaN",""
"","S1","","html-keyboard-response","387","640064","0.0-1.0-524.0","0","0","47686","","null","","","null","58","","","","","","","","","","","","","","","",""
"","ISI","","html-keyboard-response","388","640568","0.0-1.0-525.0","0","0","47686","","null","","","null","58","NaN","","","","","","","","","","","","","","",""
"","S2","","html-keyboard-response","389","640821","0.0-1.0-526.0","0","0","47686","","null","","","null","58","","NaN","","","","","","","","","","","","","",""
"","response","","html-keyboard-response","390","641153","0.0-1.0-527.0-0.0","0","0","47686","","327","","","68","58","","","2","58","training","adjacent","EF","5","6","O.jpg","N.jpg","1","1","1","",""
"","feedback","","html-keyboard-response","391","642158","0.0-1.0-528.0-0.0","0","0","47686","","null","","","null","58","","","","","","","","","","","","","","","",""
"","ITI","","html-keyboard-response","392","643164","0.0-1.0-531.0","0","0","47686","","null","","","null","58","","","","","","","","","","","","","","","NaN",""
"","S1","","html-keyboard-response","393","643417","0.0-1.0-533.0","0","0","47686","","null","","","null","59","","","","","","","","","","","","","","","",""
"","ISI","","html-keyboard-response","394","643922","0.0-1.0-534.0","0","0","47686","","null","","","null","59","NaN","","","","","","","","","","","","","","",""
"","S2","","html-keyboard-response","395","643971","0.0-1.0-535.0","0","0","47686","","45","","","68","59","","d","2","59","training","adjacent","BA","2","1","P.jpg","Q.jpg","1","0","0","",""
"","feedback","","html-keyboard-response","396","644978","0.0-1.0-537.0-0.0","0","0","47686","","null","","","null","59","","","","","","","","","","","","","","","",""
"","time_out","","html-keyboard-response","397","646985","0.0-1.0-539.0-0.0","0","0","47686","","null","","","null","59","","","","","","","","","","","","","","","",""
"","ITI","","html-keyboard-response","398","647994","0.0-1.0-540.0","0","0","47686","","null","","","null","59","","","","","","","","","","","","","","","NaN",""
"","S1","","html-keyboard-response","399","648248","0.0-1.0-542.0","0","0","47686","","null","","","null","60","","","","","","","","","","","","","","","",""
"","ISI","","html-keyboard-response","400","648752","0.0-1.0-543.0","0","0","47686","","null","","","null","60","NaN","","","","","","","","","","","","","","",""
"","S2","","html-keyboard-response","401","649007","0.0-1.0-544.0","0","0","47686","","null","","","null","60","","NaN","","","","","","","","","","","","","",""
"","response","","html-keyboard-response","402","649192","0.0-1.0-545.0-0.0","0","0","47686","","181","","","75","60","","","2","60","training","adjacent","DE","4","5","L.jpg","O.jpg","0","1","0","",""
"","feedback","","html-keyboard-response","403","650197","0.0-1.0-546.0-0.0","0","0","47686","","null","","","null","60","","","","","","","","","","","","","","","",""
"","time_out","","html-keyboard-response","404","652204","0.0-1.0-548.0-0.0","0","0","47686","","null","","","null","60","","","","","","","","","","","","","","","",""
"","ITI","","html-keyboard-response","405","653208","0.0-1.0-549.0","0","0","47686","","null","","","null","60","","","","","","","","","","","","","","","NaN",""
"","S1","","html-keyboard-response","406","653460","0.0-1.0-551.0","0","0","47686","","null","","","null","61","","","","","","","","","","","","","","","",""
"","ISI","","html-keyboard-response","407","653964","0.0-1.0-552.0","0","0","47686","","null","","","null","61","NaN","","","","","","","","","","","","","","",""
"","S2","","html-keyboard-response","408","654218","0.0-1.0-553.0","0","0","47686","","null","","","null","61","","NaN","","","","","","","","","","","","","",""
"","response","","html-keyboard-response","409","654433","0.0-1.0-554.0-0.0","0","0","47686","","212","","","68","61","","","2","61","training","adjacent","GF","7","6","R.jpg","N.jpg","1","0","0","",""
"","feedback","","html-keyboard-response","410","655438","0.0-1.0-555.0-0.0","0","0","47686","","null","","","null","61","","","","","","","","","","","","","","","",""
"","time_out","","html-keyboard-response","411","657445","0.0-1.0-557.0-0.0","0","0","47686","","null","","","null","61","","","","","","","","","","","","","","","",""
"","ITI","","html-keyboard-response","412","658450","0.0-1.0-558.0","0","0","47686","","null","","","null","61","","","","","","","","","","","","","","","NaN",""
"","S1","","html-keyboard-response","413","658705","0.0-1.0-560.0","0","0","47686","","null","","","null","62","","","","","","","","","","","","","","","",""
"","ISI","","html-keyboard-response","414","659210","0.0-1.0-561.0","0","0","47686","","null","","","null","62","NaN","","","","","","","","","","","","","","",""
"","S2","","html-keyboard-response","415","659463","0.0-1.0-562.0","0","0","47686","","null","","","null","62","","NaN","","","","","","","","","","","","","",""
"","response","","html-keyboard-response","416","661220","0.0-1.0-563.0-0.0","0","0","47686","","null","","","null","62","","","2","62","training","adjacent","FG","6","7","N.jpg","R.jpg","NaN","1","0","",""
"","too_slow_prompt","","html-keyboard-response","417","662225","0.0-1.0-565.0-0.0","1","0","47686","","null","","","null","","","","","","","","","","","","","","","","",""
"","time_out","","html-keyboard-response","418","664232","0.0-1.0-566.0-0.0","0","0","47686","","null","","","null","62","","","","","","","","","","","","","","","",""
"","ITI","","html-keyboard-response","419","665240","0.0-1.0-567.0","0","0","47686","","null","","","null","62","","","","","","","","","","","","","","","NaN",""
"","S1","","html-keyboard-response","420","665496","0.0-1.0-569.0","0","0","47686","","null","","","null","63","","","","","","","","","","","","","","","",""
"","ISI","","html-keyboard-response","421","666000","0.0-1.0-570.0","0","0","47686","","null","","","null","63","NaN","","","","","","","","","","","","","","",""
"","S2","","html-keyboard-response","422","666256","0.0-1.0-571.0","0","0","47686","","null","","","null","63","","NaN","","","","","","","","","","","","","",""
"","response","","html-keyboard-response","423","666982","0.0-1.0-572.0-0.0","0","0","47686","","722","","","68","63","","","2","63","training","adjacent","FE","6","5","N.jpg","O.jpg","1","0","0","",""
"","feedback","","html-keyboard-response","424","667988","0.0-1.0-573.0-0.0","0","0","47686","","null","","","null","63","","","","","","","","","","","","","","","",""
"","time_out","","html-keyboard-response","425","669995","0.0-1.0-575.0-0.0","0","0","47686","","null","","","null","63","","","","","","","","","","","","","","","",""
"","ITI","","html-keyboard-response","426","670999","0.0-1.0-576.0","0","0","47686","","null","","","null","63","","","","","","","","","","","","","","","NaN",""
"","S1","","html-keyboard-response","427","671254","0.0-1.0-578.0","0","0","47686","","null","","","null","64","","","","","","","","","","","","","","","",""
"","ISI","","html-keyboard-response","428","671758","0.0-1.0-579.0","0","0","47686","","null","","","null","64","NaN","","","","","","","","","","","","","","",""
"","S2","","html-keyboard-response","429","672013","0.0-1.0-580.0","0","0","47686","","null","","","null","64","","NaN","","","","","","","","","","","","","",""
"","response","","html-keyboard-response","430","673302","0.0-1.0-581.0-0.0","0","0","47686","","1283","","","68","64","","","2","64","training","adjacent","FE","6","5","N.jpg","O.jpg","1","0","0","",""
"","feedback","","html-keyboard-response","431","674308","0.0-1.0-582.0-0.0","0","0","47686","","null","","","null","64","","","","","","","","","","","","","","","",""
"","time_out","","html-keyboard-response","432","676316","0.0-1.0-584.0-0.0","0","0","47686","","null","","","null","64","","","","","","","","","","","","","","","",""
"","ITI","","html-keyboard-response","433","677320","0.0-1.0-585.0","0","0","47686","","null","","","null","64","","","","","","","","","","","","","","","NaN",""
"","S1","","html-keyboard-response","434","677574","0.0-1.0-587.0","0","0","47686","","null","","","null","65","","","","","","","","","","","","","","","",""
"","ISI","","html-keyboard-response","435","678077","0.0-1.0-588.0","0","0","47686","","211","","","68","65","d","","","","","","","","","","","","","","",""
"","S2","","html-keyboard-response","436","678330","0.0-1.0-589.0","0","0","47686","","null","","","null","65","","NaN","","","","","","","","","","","","","",""
"","response","","html-keyboard-response","437","679131","0.0-1.0-590.0-0.0","0","0","47686","","796","","","75","65","","","2","65","training","adjacent","EF","5","6","O.jpg","N.jpg","0","1","0","",""
"","feedback","","html-keyboard-response","438","680136","0.0-1.0-591.0-0.0","0","0","47686","","null","","","null","65","","","","","","","","","","","","","","","",""
"","time_out","","html-keyboard-response","439","682140","0.0-1.0-593.0-0.0","0","0","47686","","null","","","null","65","","","","","","","","","","","","","","","",""
"","ITI","","html-keyboard-response","440","683144","0.0-1.0-594.0","0","0","47686","","null","","","null","65","","","","","","","","","","","","","","","NaN",""
"","S1","","html-keyboard-response","441","683399","0.0-1.0-596.0","0","0","47686","","null","","","null","66","","","","","","","","","","","","","","","",""
"","ISI","","html-keyboard-response","442","683903","0.0-1.0-597.0","0","0","47686","","null","","","null","66","NaN","","","","","","","","","","","","","","",""
"","S2","","html-keyboard-response","443","684159","0.0-1.0-598.0","0","0","47686","","null","","","null","66","","NaN","","","","","","","","","","","","","",""
"","response","","html-keyboard-response","444","684212","0.0-1.0-599.0-0.0","0","0","47686","","48","","","68","66","","","2","66","training","adjacent","DE","4","5","L.jpg","O.jpg","1","1","1","",""
"","feedback","","html-keyboard-response","445","685216","0.0-1.0-600.0-0.0","0","0","47686","","null","","","null","66","","","","","","","","","","","","","","","",""
"","ITI","","html-keyboard-response","446","686220","0.0-1.0-603.0","0","0","47686","","null","","","null","66","","","","","","","","","","","","","","","NaN",""
"","S1","","html-keyboard-response","447","686475","0.0-1.0-605.0","0","0","47686","","null","","","null","67","","","","","","","","","","","","","","","",""
"","ISI","","html-keyboard-response","448","686980","0.0-1.0-606.0","0","0","47686","","null","","","null","67","NaN","","","","","","","","","","","","","","",""
"","S2","","html-keyboard-response","449","687232","0.0-1.0-607.0","0","0","47686","","null","","","null","67","","NaN","","","","","","","","","","","","","",""
"","response","","html-keyboard-response","450","688987","0.0-1.0-608.0-0.0","0","0","47686","","null","","","null","67","","","2","67","training","adjacent","FE","6","5","N.jpg","O.jpg","NaN","0","0","",""
"","too_slow_prompt","","html-keyboard-response","451","689992","0.0-1.0-610.0-0.0","1","0","47686","","null","","","null","","","","","","","","","","","","","","","","",""
"","time_out","","html-keyboard-response","452","691997","0.0-1.0-611.0-0.0","0","0","47686","","null","","","null","67","","","","","","","","","","","","","","","",""
"","ITI","","html-keyboard-response","453","693002","0.0-1.0-612.0","0","0","47686","","167","","","68","67","","","","","","","","","","","","","","","d",""
"","S1","","html-keyboard-response","454","693257","0.0-1.0-614.0","0","0","47686","","null","","","null","68","","","","","","","","","","","","","","","",""
"","ISI","","html-keyboard-response","455","693763","0.0-1.0-615.0","0","0","47686","","125","","","68","68","d","","","","","","","","","","","","","","",""
"","S2","","html-keyboard-response","456","694018","0.0-1.0-616.0","0","0","47686","","null","","","null","68","","NaN","","","","","","","","","","","","","",""
"","response","","html-keyboard-response","457","694398","0.0-1.0-617.0-0.0","0","0","47686","","375","","","75","68","","","2","68","training","adjacent","ED","5","4","O.jpg","L.jpg","0","0","1","",""
"","feedback","","html-keyboard-response","458","695404","0.0-1.0-618.0-0.0","0","0","47686","","null","","","null","68","","","","","","","","","","","","","","","",""
"","ITI","","html-keyboard-response","459","696408","0.0-1.0-621.0","0","0","47686","","null","","","null","68","","","","","","","","","","","","","","","NaN",""
"","S1","","html-keyboard-response","460","696663","0.0-1.0-623.0","0","0","47686","","null","","","null","69","","","","","","","","","","","","","","","",""
"","ISI","","html-keyboard-response","461","697169","0.0-1.0-624.0","0","0","47686","","null","","","null","69","NaN","","","","","","","","","","","","","","",""
"","S2","","html-keyboard-response","462","697423","0.0-1.0-625.0","0","0","47686","","null","","","null","69","","NaN","","","","","","","","","","","","","",""
"","response","","html-keyboard-response","463","697979","0.0-1.0-626.0-0.0","0","0","47686","","553","","","68","69","","","2","69","training","adjacent","ED","5","4","O.jpg","L.jpg","1","0","0","",""
"","feedback","","html-keyboard-response","464","698983","0.0-1.0-627.0-0.0","0","0","47686","","null","","","null","69","","","","","","","","","","","","","","","",""
"","time_out","","html-keyboard-response","465","700987","0.0-1.0-629.0-0.0","0","0","47686","","null","","","null","69","","","","","","","","","","","","","","","",""
"","ITI","","html-keyboard-response","466","701991","0.0-1.0-630.0","0","0","47686","","null","","","null","69","","","","","","","","","","","","","","","NaN",""
"","S1","","html-keyboard-response","467","702246","0.0-1.0-632.0","0","0","47686","","null","","","null","70","","","","","","","","","","","","","","","",""
"","ISI","","html-keyboard-response","468","702750","0.0-1.0-633.0","0","0","47686","","null","","","null","70","NaN","","","","","","","","","","","","","","",""
"","S2","","html-keyboard-response","469","703005","0.0-1.0-634.0","0","0","47686","","null","","","null","70","","NaN","","","","","","","","","","","","","",""
"","response","","html-keyboard-response","470","704066","0.0-1.0-635.0-0.0","0","0","47686","","1057","","","75","70","","","2","70","training","adjacent","FE","6","5","N.jpg","O.jpg","0","0","1","",""
"","feedback","","html-keyboard-response","471","705071","0.0-1.0-636.0-0.0","0","0","47686","","null","","","null","70","","","","","","","","","","","","","","","",""
"","ITI","","html-keyboard-response","472","706077","0.0-1.0-639.0","0","0","47686","","null","","","null","70","","","","","","","","","","","","","","","NaN",""
"","S1","","html-keyboard-response","473","706331","0.0-1.0-641.0","0","0","47686","","null","","","null","71","","","","","","","","","","","","","","","",""
"","ISI","","html-keyboard-response","474","706836","0.0-1.0-642.0","0","0","47686","","null","","","null","71","NaN","","","","","","","","","","","","","","",""
"","S2","","html-keyboard-response","475","707091","0.0-1.0-643.0","0","0","47686","","null","","","null","71","","NaN","","","","","","","","","","","","","",""
"","response","","html-keyboard-response","476","708846","0.0-1.0-644.0-0.0","0","0","47686","","null","","","null","71","","","2","71","training","adjacent","GF","7","6","R.jpg","N.jpg","NaN","0","0","",""
"","too_slow_prompt","","html-keyboard-response","477","709851","0.0-1.0-646.0-0.0","1","0","47686","","null","","","null","","","","","","","","","","","","","","","","",""
"","time_out","","html-keyboard-response","478","711858","0.0-1.0-647.0-0.0","0","0","47686","","null","","","null","71","","","","","","","","","","","","","","","",""
"","ITI","","html-keyboard-response","479","712862","0.0-1.0-648.0","0","0","47686","","null","","","null","71","","","","","","","","","","","","","","","NaN",""
"","S1","","html-keyboard-response","480","713116","0.0-1.0-650.0","0","0","47686","","null","","","null","72","","","","","","","","","","","","","","","",""
"","ISI","","html-keyboard-response","481","713619","0.0-1.0-651.0","0","0","47686","","null","","","null","72","NaN","","","","","","","","","","","","","","",""
"","S2","","html-keyboard-response","482","713873","0.0-1.0-652.0","0","0","47686","","null","","","null","72","","NaN","","","","","","","","","","","","","",""
"","response","","html-keyboard-response","483","715242","0.0-1.0-653.0-0.0","0","0","47686","","1365","","","68","72","","","2","72","training","adjacent","DE","4","5","L.jpg","O.jpg","1","1","1","",""
"","feedback","","html-keyboard-response","484","716246","0.0-1.0-654.0-0.0","0","0","47686","","null","","","null","72","","","","","","","","","","","","","","","",""
"","ITI","","html-keyboard-response","485","717251","0.0-1.0-657.0","0","0","47686","","10","","","75","72","","","","","","","","","","","","","","","k",""
"","S1","","html-keyboard-response","486","717507","0.0-1.0-659.0","0","0","47686","","null","","","null","73","","","","","","","","","","","","","","","",""
"","ISI","","html-keyboard-response","487","718010","0.0-1.0-660.0","0","0","47686","","null","","","null","73","NaN","","","","","","","","","","","","","","",""
"","S2","","html-keyboard-response","488","718061","0.0-1.0-661.0","0","0","47686","","46","","","68","73","","d","2","73","training","adjacent","GF","7","6","R.jpg","N.jpg","1","0","0","",""
"","feedback","","html-keyboard-response","489","719066","0.0-1.0-663.0-0.0","0","0","47686","","null","","","null","73","","","","","","","","","","","","","","","",""
"","time_out","","html-keyboard-response","490","721071","0.0-1.0-665.0-0.0","0","0","47686","","null","","","null","73","","","","","","","","","","","","","","","",""
"","ITI","","html-keyboard-response","491","722077","0.0-1.0-666.0","0","0","47686","","303","","","75","73","","","","","","","","","","","","","","","k",""
"","S1","","html-keyboard-response","492","722331","0.0-1.0-668.0","0","0","47686","","null","","","null","74","","","","","","","","","","","","","","","",""
"","ISI","","html-keyboard-response","493","722836","0.0-1.0-669.0","0","0","47686","","6","","","68","74","d","","","","","","","","","","","","","","",""
"","S2","","html-keyboard-response","494","723090","0.0-1.0-670.0","0","0","47686","","null","","","null","74","","NaN","","","","","","","","","","","","","",""
"","response","","html-keyboard-response","495","724022","0.0-1.0-671.0-0.0","0","0","47686","","927","","","68","74","","","2","74","training","adjacent","FG","6","7","N.jpg","R.jpg","1","1","1","",""
"","feedback","","html-keyboard-response","496","725028","0.0-1.0-672.0-0.0","0","0","47686","","null","","","null","74","","","","","","","","","","","","","","","",""
"","ITI","","html-keyboard-response","497","726034","0.0-1.0-675.0","0","0","47686","","null","","","null","74","","","","","","","","","","","","","","","NaN",""
"","S1","","html-keyboard-response","498","726289","0.0-1.0-677.0","0","0","47686","","null","","","null","75","","","","","","","","","","","","","","","",""
"","ISI","","html-keyboard-response","499","726792","0.0-1.0-678.0","0","0","47686","","null","","","null","75","NaN","","","","","","","","","","","","","","",""
"","S2","","html-keyboard-response","500","727047","0.0-1.0-679.0","0","0","47686","","null","","","null","75","","NaN","","","","","","","","","","","","","",""
"","response","","html-keyboard-response","501","728802","0.0-1.0-680.0-0.0","0","0","47686","","null","","","null","75","","","2","75","training","adjacent","GF","7","6","R.jpg","N.jpg","NaN","0","0","",""
"","too_slow_prompt","","html-keyboard-response","502","729807","0.0-1.0-682.0-0.0","1","0","47686","","null","","","null","","","","","","","","","","","","","","","","",""
"","time_out","","html-keyboard-response","503","731814","0.0-1.0-683.0-0.0","0","0","47686","","null","","","null","75","","","","","","","","","","","","","","","",""
"","ITI","","html-keyboard-response","504","732819","0.0-1.0-684.0","0","0","47686","","null","","","null","75","","","","","","","","","","","","","","","NaN",""
"","S1","","html-keyboard-response","505","733075","0.0-1.0-686.0","0","0","47686","","null","","","null","76","","","","","","","","","","","","","","","",""
"","ISI","","html-keyboard-response","506","733578","0.0-1.0-687.0","0","0","47686","","null","","","null","76","NaN","","","","","","","","","","","","","","",""
"","S2","","html-keyboard-response","507","733832","0.0-1.0-688.0","0","0","47686","","null","","","null","76","","NaN","","","","","","","","","","","","","",""
"","response","","html-keyboard-response","508","735586","0.0-1.0-689.0-0.0","0","0","47686","","null","","","null","76","","","2","76","training","adjacent","EF","5","6","O.jpg","N.jpg","NaN","1","0","",""
"","too_slow_prompt","","html-keyboard-response","509","736593","0.0-1.0-691.0-0.0","1","0","47686","","null","","","null","","","","","","","","","","","","","","","","",""
"","time_out","","html-keyboard-response","510","738600","0.0-1.0-692.0-0.0","0","0","47686","","null","","","null","76","","","","","","","","","","","","","","","",""
"","ITI","","html-keyboard-response","511","739605","0.0-1.0-693.0","0","0","47686","","null","","","null","76","","","","","","","","","","","","","","","NaN",""
"","S1","","html-keyboard-response","512","739858","0.0-1.0-695.0","0","0","47686","","null","","","null","77","","","","","","","","","","","","","","","",""
"","ISI","","html-keyboard-response","513","740368","0.0-1.0-696.0","0","0","47686","","null","","","null","77","NaN","","","","","","","","","","","","","","",""
"","S2","","html-keyboard-response","514","740623","0.0-1.0-697.0","0","0","47686","","null","","","null","77","","NaN","","","","","","","","","","","","","",""
"","response","","html-keyboard-response","515","742378","0.0-1.0-698.0-0.0","0","0","47686","","null","","","null","77","","","2","77","training","adjacent","DC","4","3","L.jpg","M.jpg","NaN","0","0","",""
"","too_slow_prompt","","html-keyboard-response","516","743382","0.0-1.0-700.0-0.0","1","0","47686","","null","","","null","","","","","","","","","","","","","","","","",""
"","time_out","","html-keyboard-response","517","745388","0.0-1.0-701.0-0.0","0","0","47686","","null","","","null","77","","","","","","","","","","","","","","","",""
"","ITI","","html-keyboard-response","518","746395","0.0-1.0-702.0","0","0","47686","","null","","","null","77","","","","","","","","","","","","","","","NaN",""
"","S1","","html-keyboard-response","519","746649","0.0-1.0-704.0","0","0","47686","","null","","","null","78","","","","","","","","","","","","","","","",""
"","ISI","","html-keyboard-response","520","747152","0.0-1.0-705.0","0","0","47686","","null","","","null","78","NaN","","","","","","","","","","","","","","",""
"","S2","","html-keyboard-response","521","747406","0.0-1.0-706.0","0","0","47686","","null","","","null","78","","NaN","","","","","","","","","","","","","",""
"","response","","html-keyboard-response","522","749160","0.0-1.0-707.0-0.0","0","0","47686","","null","","","null","78","","","2","78","training","adjacent","ED","5","4","O.jpg","L.jpg","NaN","0","0","",""
"","too_slow_prompt","","html-keyboard-response","523","750165","0.0-1.0-709.0-0.0","1","0","47686","","null","","","null","","","","","","","","","","","","","","","","",""
"","time_out","","html-keyboard-response","524","752170","0.0-1.0-710.0-0.0","0","0","47686","","null","","","null","78","","","","","","","","","","","","","","","",""
"","ITI","","html-keyboard-response","525","753175","0.0-1.0-711.0","0","0","47686","","null","","","null","78","","","","","","","","","","","","","","","NaN",""
"","S1","","html-keyboard-response","526","753431","0.0-1.0-713.0","0","0","47686","","null","","","null","79","","","","","","","","","","","","","","","",""
"","ISI","","html-keyboard-response","527","753936","0.0-1.0-714.0","0","0","47686","","null","","","null","79","NaN","","","","","","","","","","","","","","",""
"","S2","","html-keyboard-response","528","754190","0.0-1.0-715.0","0","0","47686","","null","","","null","79","","NaN","","","","","","","","","","","","","",""
"","response","","html-keyboard-response","529","755944","0.0-1.0-716.0-0.0","0","0","47686","","null","","","null","79","","","2","79","training","adjacent","CB","3","2","M.jpg","P.jpg","NaN","0","0","",""
"","too_slow_prompt","","html-keyboard-response","530","756950","0.0-1.0-718.0-0.0","1","0","47686","","null","","","null","","","","","","","","","","","","","","","","",""
"","time_out","","html-keyboard-response","531","758962","0.0-1.0-719.0-0.0","0","0","47686","","null","","","null","79","","","","","","","","","","","","","","","",""
"","ITI","","html-keyboard-response","532","759967","0.0-1.0-720.0","0","0","47686","","null","","","null","79","","","","","","","","","","","","","","","NaN",""
"","S1","","html-keyboard-response","533","760221","0.0-1.0-722.0","0","0","47686","","null","","","null","80","","","","","","","","","","","","","","","",""
"","ISI","","html-keyboard-response","534","760725","0.0-1.0-723.0","0","0","47686","","null","","","null","80","NaN","","","","","","","","","","","","","","",""
"","S2","","html-keyboard-response","535","760982","0.0-1.0-724.0","0","0","47686","","null","","","null","80","","NaN","","","","","","","","","","","","","",""
"","response","","html-keyboard-response","536","762740","0.0-1.0-725.0-0.0","0","0","47686","","null","","","null","80","","","2","80","training","adjacent","FG","6","7","N.jpg","R.jpg","NaN","1","0","",""
"","too_slow_prompt","","html-keyboard-response","537","763746","0.0-1.0-727.0-0.0","1","0","47686","","null","","","null","","","","","","","","","","","","","","","","",""
"","time_out","","html-keyboard-response","538","765752","0.0-1.0-728.0-0.0","0","0","47686","","null","","","null","80","","","","","","","","","","","","","","","",""
"","ITI","","html-keyboard-response","539","766756","0.0-1.0-729.0","0","0","47686","","null","","","null","80","","","","","","","","","","","","","","","NaN",""
"","S1","","html-keyboard-response","540","767012","0.0-1.0-731.0","0","0","47686","","null","","","null","81","","","","","","","","","","","","","","","",""
"","ISI","","html-keyboard-response","541","767516","0.0-1.0-732.0","0","0","47686","","248","","","68","81","d","","","","","","","","","","","","","","",""
"","S2","","html-keyboard-response","542","767770","0.0-1.0-733.0","0","0","47686","","null","","","null","81","","NaN","","","","","","","","","","","","","",""
"","response","","html-keyboard-response","543","767879","0.0-1.0-734.0-0.0","0","0","47686","","105","","","75","81","","","2","81","training","adjacent","CD","3","4","M.jpg","L.jpg","0","1","0","",""
"","feedback","","html-keyboard-response","544","768883","0.0-1.0-735.0-0.0","0","0","47686","","null","","","null","81","","","","","","","","","","","","","","","",""
"","time_out","","html-keyboard-response","545","770889","0.0-1.0-737.0-0.0","0","0","47686","","null","","","null","81","","","","","","","","","","","","","","","",""
"","ITI","","html-keyboard-response","546","771896","0.0-1.0-738.0","0","0","47686","","null","","","null","81","","","","","","","","","","","","","","","NaN",""
"","S1","","html-keyboard-response","547","772152","0.0-1.0-740.0","0","0","47686","","null","","","null","82","","","","","","","","","","","","","","","",""
"","ISI","","html-keyboard-response","548","772656","0.0-1.0-741.0","0","0","47686","","null","","","null","82","NaN","","","","","","","","","","","","","","",""
"","S2","","html-keyboard-response","549","772913","0.0-1.0-742.0","0","0","47686","","null","","","null","82","","NaN","","","","","","","","","","","","","",""
"","response","","html-keyboard-response","550","773669","0.0-1.0-743.0-0.0","0","0","47686","","752","","","68","82","","","2","82","training","adjacent","BA","2","1","P.jpg","Q.jpg","1","0","0","",""
"","feedback","","html-keyboard-response","551","774676","0.0-1.0-744.0-0.0","0","0","47686","","null","","","null","82","","","","","","","","","","","","","","","",""
"","time_out","","html-keyboard-response","552","776687","0.0-1.0-746.0-0.0","0","0","47686","","null","","","null","82","","","","","","","","","","","","","","","",""
"","ITI","","html-keyboard-response","553","777691","0.0-1.0-747.0","0","0","47686","","532","","","68","82","","","","","","","","","","","","","","","d",""
"","S1","","html-keyboard-response","554","777946","0.0-1.0-749.0","0","0","47686","","null","","","null","83","","","","","","","","","","","","","","","",""
"","ISI","","html-keyboard-response","555","778451","0.0-1.0-750.0","0","0","47686","","null","","","null","83","NaN","","","","","","","","","","","","","","",""
"","S2","","html-keyboard-response","556","778704","0.0-1.0-751.0","0","0","47686","","null","","","null","83","","NaN","","","","","","","","","","","","","",""
"","response","","html-keyboard-response","557","780459","0.0-1.0-752.0-0.0","0","0","47686","","null","","","null","83","","","2","83","training","adjacent","ED","5","4","O.jpg","L.jpg","NaN","0","0","",""
"","too_slow_prompt","","html-keyboard-response","558","781463","0.0-1.0-754.0-0.0","1","0","47686","","null","","","null","","","","","","","","","","","","","","","","",""
"","time_out","","html-keyboard-response","559","783470","0.0-1.0-755.0-0.0","0","0","47686","","null","","","null","83","","","","","","","","","","","","","","","",""
"","ITI","","html-keyboard-response","560","784475","0.0-1.0-756.0","0","0","47686","","714","","","68","83","","","","","","","","","","","","","","","d",""
"","S1","","html-keyboard-response","561","784730","0.0-1.0-758.0","0","0","47686","","null","","","null","84","","","","","","","","","","","","","","","",""
"","ISI","","html-keyboard-response","562","785233","0.0-1.0-759.0","0","0","47686","","null","","","null","84","NaN","","","","","","","","","","","","","","",""
"","S2","","html-keyboard-response","563","785489","0.0-1.0-760.0","0","0","47686","","null","","","null","84","","NaN","","","","","","","","","","","","","",""
"","response","","html-keyboard-response","564","786014","0.0-1.0-761.0-0.0","0","0","47686","","517","","","68","84","","","2","84","training","adjacent","CB","3","2","M.jpg","P.jpg","1","0","0","",""
"","feedback","","html-keyboard-response","565","787020","0.0-1.0-762.0-0.0","0","0","47686","","null","","","null","84","","","","","","","","","","","","","","","",""
"","time_out","","html-keyboard-response","566","789026","0.0-1.0-764.0-0.0","0","0","47686","","null","","","null","84","","","","","","","","","","","","","","","",""
"","ITI","","html-keyboard-response","567","790034","0.0-1.0-765.0","0","0","47686","","null","","","null","84","","","","","","","","","","","","","","","NaN",""
"","S1","","html-keyboard-response","568","790289","0.0-1.0-767.0","0","0","47686","","null","","","null","85","","","","","","","","","","","","","","","",""
"","ISI","","html-keyboard-response","569","790793","0.0-1.0-768.0","0","0","47686","","null","","","null","85","NaN","","","","","","","","","","","","","","",""
"","S2","","html-keyboard-response","570","791048","0.0-1.0-769.0","0","0","47686","","null","","","null","85","","NaN","","","","","","","","","","","","","",""
"","response","","html-keyboard-response","571","792804","0.0-1.0-770.0-0.0","0","0","47686","","null","","","null","85","","","2","85","training","adjacent","BC","2","3","P.jpg","M.jpg","NaN","1","0","",""
"","too_slow_prompt","","html-keyboard-response","572","793808","0.0-1.0-772.0-0.0","1","0","47686","","null","","","null","","","","","","","","","","","","","","","","",""
"","time_out","","html-keyboard-response","573","795813","0.0-1.0-773.0-0.0","0","0","47686","","null","","","null","85","","","","","","","","","","","","","","","",""
"","ITI","","html-keyboard-response","574","796817","0.0-1.0-774.0","0","0","47686","","null","","","null","85","","","","","","","","","","","","","","","NaN",""
"","S1","","html-keyboard-response","575","797071","0.0-1.0-776.0","0","0","47686","","null","","","null","86","","","","","","","","","","","","","","","",""
"","ISI","","html-keyboard-response","576","797574","0.0-1.0-777.0","0","0","47686","","null","","","null","86","NaN","","","","","","","","","","","","","","",""
"","S2","","html-keyboard-response","577","797828","0.0-1.0-778.0","0","0","47686","","null","","","null","86","","NaN","","","","","","","","","","","","","",""
"","response","","html-keyboard-response","578","798900","0.0-1.0-779.0-0.0","0","0","47686","","1067","","","68","86","","","2","86","training","adjacent","CD","3","4","M.jpg","L.jpg","1","1","1","",""
"","feedback","","html-keyboard-response","579","799908","0.0-1.0-780.0-0.0","0","0","47686","","null","","","null","86","","","","","","","","","","","","","","","",""
"","ITI","","html-keyboard-response","580","800915","0.0-1.0-783.0","0","0","47686","","null","","","null","86","","","","","","","","","","","","","","","NaN",""
"","S1","","html-keyboard-response","581","801170","0.0-1.0-785.0","0","0","47686","","null","","","null","87","","","","","","","","","","","","","","","",""
"","ISI","","html-keyboard-response","582","801673","0.0-1.0-786.0","0","0","47686","","null","","","null","87","NaN","","","","","","","","","","","","","","",""
