"success","ttype","start_time","trial_type","trial_index","time_elapsed","internal_node_id","warning","missed_checkup","PID","view_history","rt","responses","repeat_instructions","key_press","index","keypress_isi","keypress_S2","block","trial_num","phase","group_type","pair_type","S1_stim","S2_stim","S1_img","S2_img","S1_chosen","S1_higher","accuracy","keypress_iti","total_bonus_tally"
"true","full_screen","d03032023hr1947","fullscreen","0","40243","0.0-0.0","0","0","63243","","","","","","","","","","","","","","","","","","","","","",""
"","instructions","","instructions","1","89188","0.0-1.0-0.0-0.0","0","0","63243","[{""page_index"":0,""viewing_time"":6182},{""page_index"":1,""viewing_time"":30294},{""page_index"":2,""viewing_time"":10665},{""page_index"":3,""viewing_time"":1801}]","48943","","","","","","","","","","","","","","","","","","","",""
"","comprehension_check","","survey-multi-choice","2","120432","0.0-1.0-0.0-1.0","0","0","63243","","31240","{""Q0"":""True"",""Q1"":""D"",""Q2"":""Once the second image appears and while the screen 'MAKE A CHOICE' is shown"",""Q3"":""Green mark"",""Q4"":""either D or K""}","1","","","","","","","","","","","","","","","","","",""
"","missed_instruction_checkup","","html-keyboard-response","3","123217","0.0-1.0-0.0-2.0-0.0","0","1","63243","","2778","","","32","","","","","","","","","","","","","","","","",""
"","instructions","","instructions","4","155288","0.0-1.0-0.1-0.1","0","0","63243","[{""page_index"":0,""viewing_time"":5397},{""page_index"":1,""viewing_time"":22456},{""page_index"":2,""viewing_time"":2249},{""page_index"":3,""viewing_time"":1967}]","32069","","","","","","","","","","","","","","","","","","","",""
"","comprehension_check","","survey-multi-choice","5","175778","0.0-1.0-0.1-1.1","0","0","63243","","20486","{""Q0"":""True"",""Q1"":""K"",""Q2"":""Once the second image appears and while the screen 'MAKE A CHOICE' is shown"",""Q3"":""Green mark"",""Q4"":""either D or K""}","0","","","","","","","","","","","","","","","","","",""
"","start_exp","","html-keyboard-response","6","177559","0.0-1.0-1.0","0","0","63243","","1775","","","32","","","","","","","","","","","","","","","","",""
"","S1","","html-keyboard-response","7","177820","0.0-1.0-2.0","0","0","63243","","null","","","null","0","","","","","","","","","","","","","","","",""
"","ISI","","html-keyboard-response","8","178332","0.0-1.0-3.0","0","0","63243","","null","","","null","0","NaN","","","","","","","","","","","","","","",""
"","S2","","html-keyboard-response","9","178596","0.0-1.0-4.0","0","0","63243","","null","","","null","0","","NaN","","","","","","","","","","","","","",""
"","response","","html-keyboard-response","10","179908","0.0-1.0-5.0-0.0","0","0","63243","","1310","","","75","0","","","1","0","training","adjacent","CB","3","2","M.jpg","Q.jpg","1","0","0","",""
"","feedback","","html-keyboard-response","11","180917","0.0-1.0-6.0-0.0","0","0","63243","","null","","","null","0","","","","","","","","","","","","","","","",""
"","time_out","","html-keyboard-response","12","182924","0.0-1.0-8.0-0.0","0","0","63243","","null","","","null","0","","","","","","","","","","","","","","","",""
"","ITI","","html-keyboard-response","13","183932","0.0-1.0-9.0","0","0","63243","","null","","","null","0","","","","","","","","","","","","","","","NaN",""
"","S1","","html-keyboard-response","14","184196","0.0-1.0-11.0","0","0","63243","","null","","","null","1","","","","","","","","","","","","","","","",""
"","ISI","","html-keyboard-response","15","184709","0.0-1.0-12.0","0","0","63243","","null","","","null","1","NaN","","","","","","","","","","","","","","",""
"","S2","","html-keyboard-response","16","184972","0.0-1.0-13.0","0","0","63243","","null","","","null","1","","NaN","","","","","","","","","","","","","",""
"","response","","html-keyboard-response","17","185402","0.0-1.0-14.0-0.0","0","0","63243","","428","","","68","1","","","1","1","training","adjacent","AB","1","2","L.jpg","Q.jpg","0","1","0","",""
"","feedback","","html-keyboard-response","18","186412","0.0-1.0-15.0-0.0","0","0","63243","","null","","","null","1","","","","","","","","","","","","","","","",""
"","time_out","","html-keyboard-response","19","188421","0.0-1.0-17.0-0.0","0","0","63243","","null","","","null","1","","","","","","","","","","","","","","","",""
"","ITI","","html-keyboard-response","20","189428","0.0-1.0-18.0","0","0","63243","","null","","","null","1","","","","","","","","","","","","","","","NaN",""
"","S1","","html-keyboard-response","21","189684","0.0-1.0-20.0","0","0","63243","","null","","","null","2","","","","","","","","","","","","","","","",""
"","ISI","","html-keyboard-response","22","190197","0.0-1.0-21.0","0","0","63243","","null","","","null","2","NaN","","","","","","","","","","","","","","",""
"","S2","","html-keyboard-response","23","190460","0.0-1.0-22.0","0","0","63243","","null","","","null","2","","NaN","","","","","","","","","","","","","",""
"","response","","html-keyboard-response","24","191003","0.0-1.0-23.0-0.0","0","0","63243","","541","","","68","2","","","1","2","training","adjacent","FG","6","7","N.jpg","O.jpg","0","1","0","",""
"","feedback","","html-keyboard-response","25","192012","0.0-1.0-24.0-0.0","0","0","63243","","null","","","null","2","","","","","","","","","","","","","","","",""
"","time_out","","html-keyboard-response","26","194020","0.0-1.0-26.0-0.0","0","0","63243","","null","","","null","2","","","","","","","","","","","","","","","",""
"","ITI","","html-keyboard-response","27","195029","0.0-1.0-27.0","0","0","63243","","null","","","null","2","","","","","","","","","","","","","","","NaN",""
"","S1","","html-keyboard-response","28","195292","0.0-1.0-29.0","0","0","63243","","null","","","null","3","","","","","","","","","","","","","","","",""
"","ISI","","html-keyboard-response","29","195804","0.0-1.0-30.0","0","0","63243","","null","","","null","3","NaN","","","","","","","","","","","","","","",""
"","S2","","html-keyboard-response","30","196069","0.0-1.0-31.0","0","0","63243","","null","","","null","3","","NaN","","","","","","","","","","","","","",""
"","response","","html-keyboard-response","31","196547","0.0-1.0-32.0-0.0","0","0","63243","","477","","","68","3","","","1","3","training","adjacent","EF","5","6","R.jpg","N.jpg","0","1","0","",""
"","feedback","","html-keyboard-response","32","197557","0.0-1.0-33.0-0.0","0","0","63243","","null","","","null","3","","","","","","","","","","","","","","","",""
"","time_out","","html-keyboard-response","33","199564","0.0-1.0-35.0-0.0","0","0","63243","","null","","","null","3","","","","","","","","","","","","","","","",""
"","ITI","","html-keyboard-response","34","200572","0.0-1.0-36.0","0","0","63243","","null","","","null","3","","","","","","","","","","","","","","","NaN",""
"","S1","","html-keyboard-response","35","200828","0.0-1.0-38.0","0","0","63243","","null","","","null","4","","","","","","","","","","","","","","","",""
"","ISI","","html-keyboard-response","36","201340","0.0-1.0-39.0","0","0","63243","","null","","","null","4","NaN","","","","","","","","","","","","","","",""
"","S2","","html-keyboard-response","37","201605","0.0-1.0-40.0","0","0","63243","","null","","","null","4","","NaN","","","","","","","","","","","","","",""
"","response","","html-keyboard-response","38","201956","0.0-1.0-41.0-0.0","0","0","63243","","349","","","75","4","","","1","4","training","adjacent","FE","6","5","N.jpg","R.jpg","1","0","0","",""
"","feedback","","html-keyboard-response","39","202965","0.0-1.0-42.0-0.0","0","0","63243","","null","","","null","4","","","","","","","","","","","","","","","",""
"","time_out","","html-keyboard-response","40","204972","0.0-1.0-44.0-0.0","0","0","63243","","null","","","null","4","","","","","","","","","","","","","","","",""
"","ITI","","html-keyboard-response","41","205983","0.0-1.0-45.0","0","0","63243","","null","","","null","4","","","","","","","","","","","","","","","NaN",""
"","S1","","html-keyboard-response","42","206245","0.0-1.0-47.0","0","0","63243","","null","","","null","5","","","","","","","","","","","","","","","",""
"","ISI","","html-keyboard-response","43","206757","0.0-1.0-48.0","0","0","63243","","null","","","null","5","NaN","","","","","","","","","","","","","","",""
"","S2","","html-keyboard-response","44","207021","0.0-1.0-49.0","0","0","63243","","null","","","null","5","","NaN","","","","","","","","","","","","","",""
"","response","","html-keyboard-response","45","207477","0.0-1.0-50.0-0.0","0","0","63243","","455","","","75","5","","","1","5","training","adjacent","BC","2","3","Q.jpg","M.jpg","1","1","1","",""
"","feedback","","html-keyboard-response","46","208485","0.0-1.0-51.0-0.0","0","0","63243","","null","","","null","5","","","","","","","","","","","","","","","",""
"","ITI","","html-keyboard-response","47","209492","0.0-1.0-54.0","0","0","63243","","null","","","null","5","","","","","","","","","","","","","","","NaN",""
"","S1","","html-keyboard-response","48","209750","0.0-1.0-56.0","0","0","63243","","null","","","null","6","","","","","","","","","","","","","","","",""
"","ISI","","html-keyboard-response","49","210261","0.0-1.0-57.0","0","0","63243","","null","","","null","6","NaN","","","","","","","","","","","","","","",""
"","S2","","html-keyboard-response","50","210524","0.0-1.0-58.0","0","0","63243","","null","","","null","6","","NaN","","","","","","","","","","","","","",""
"","response","","html-keyboard-response","51","210861","0.0-1.0-59.0-0.0","0","0","63243","","335","","","75","6","","","1","6","training","adjacent","EF","5","6","R.jpg","N.jpg","1","1","1","",""
"","feedback","","html-keyboard-response","52","211869","0.0-1.0-60.0-0.0","0","0","63243","","null","","","null","6","","","","","","","","","","","","","","","",""
"","ITI","","html-keyboard-response","53","212877","0.0-1.0-63.0","0","0","63243","","null","","","null","6","","","","","","","","","","","","","","","NaN",""
"","S1","","html-keyboard-response","54","213133","0.0-1.0-65.0","0","0","63243","","null","","","null","7","","","","","","","","","","","","","","","",""
"","ISI","","html-keyboard-response","55","213645","0.0-1.0-66.0","0","0","63243","","null","","","null","7","NaN","","","","","","","","","","","","","","",""
"","S2","","html-keyboard-response","56","213909","0.0-1.0-67.0","0","0","63243","","null","","","null","7","","NaN","","","","","","","","","","","","","",""
"","response","","html-keyboard-response","57","214516","0.0-1.0-68.0-0.0","0","0","63243","","605","","","68","7","","","1","7","training","adjacent","DC","4","3","P.jpg","M.jpg","0","0","1","",""
"","feedback","","html-keyboard-response","58","215525","0.0-1.0-69.0-0.0","0","0","63243","","null","","","null","7","","","","","","","","","","","","","","","",""
"","ITI","","html-keyboard-response","59","216534","0.0-1.0-72.0","0","0","63243","","null","","","null","7","","","","","","","","","","","","","","","NaN",""
"","S1","","html-keyboard-response","60","216797","0.0-1.0-74.0","0","0","63243","","null","","","null","8","","","","","","","","","","","","","","","",""
"","ISI","","html-keyboard-response","61","217309","0.0-1.0-75.0","0","0","63243","","null","","","null","8","NaN","","","","","","","","","","","","","","",""
"","S2","","html-keyboard-response","62","217573","0.0-1.0-76.0","0","0","63243","","null","","","null","8","","NaN","","","","","","","","","","","","","",""
"","response","","html-keyboard-response","63","218125","0.0-1.0-77.0-0.0","0","0","63243","","550","","","68","8","","","1","8","training","adjacent","BA","2","1","Q.jpg","L.jpg","0","0","1","",""
"","feedback","","html-keyboard-response","64","219133","0.0-1.0-78.0-0.0","0","0","63243","","null","","","null","8","","","","","","","","","","","","","","","",""
"","ITI","","html-keyboard-response","65","220152","0.0-1.0-81.0","0","0","63243","","null","","","null","8","","","","","","","","","","","","","","","NaN",""
"","S1","","html-keyboard-response","66","220413","0.0-1.0-83.0","0","0","63243","","null","","","null","9","","","","","","","","","","","","","","","",""
"","ISI","","html-keyboard-response","67","220925","0.0-1.0-84.0","0","0","63243","","null","","","null","9","NaN","","","","","","","","","","","","","","",""
"","S2","","html-keyboard-response","68","221189","0.0-1.0-85.0","0","0","63243","","null","","","null","9","","NaN","","","","","","","","","","","","","",""
"","response","","html-keyboard-response","69","221781","0.0-1.0-86.0-0.0","0","0","63243","","590","","","75","9","","","1","9","training","adjacent","BC","2","3","Q.jpg","M.jpg","1","1","1","",""
"","feedback","","html-keyboard-response","70","222789","0.0-1.0-87.0-0.0","0","0","63243","","null","","","null","9","","","","","","","","","","","","","","","",""
"","ITI","","html-keyboard-response","71","223797","0.0-1.0-90.0","0","0","63243","","null","","","null","9","","","","","","","","","","","","","","","NaN",""
"","S1","","html-keyboard-response","72","224061","0.0-1.0-92.0","0","0","63243","","null","","","null","10","","","","","","","","","","","","","","","",""
"","ISI","","html-keyboard-response","73","224573","0.0-1.0-93.0","0","0","63243","","null","","","null","10","NaN","","","","","","","","","","","","","","",""
"","S2","","html-keyboard-response","74","224837","0.0-1.0-94.0","0","0","63243","","null","","","null","10","","NaN","","","","","","","","","","","","","",""
"","response","","html-keyboard-response","75","225275","0.0-1.0-95.0-0.0","0","0","63243","","436","","","75","10","","","1","10","training","adjacent","GF","7","6","O.jpg","N.jpg","1","0","0","",""
"","feedback","","html-keyboard-response","76","226285","0.0-1.0-96.0-0.0","0","0","63243","","null","","","null","10","","","","","","","","","","","","","","","",""
"","time_out","","html-keyboard-response","77","228293","0.0-1.0-98.0-0.0","0","0","63243","","null","","","null","10","","","","","","","","","","","","","","","",""
"","ITI","","html-keyboard-response","78","229301","0.0-1.0-99.0","0","0","63243","","null","","","null","10","","","","","","","","","","","","","","","NaN",""
"","S1","","html-keyboard-response","79","229565","0.0-1.0-101.0","0","0","63243","","null","","","null","11","","","","","","","","","","","","","","","",""
"","ISI","","html-keyboard-response","80","230075","0.0-1.0-102.0","0","0","63243","","null","","","null","11","NaN","","","","","","","","","","","","","","",""
"","S2","","html-keyboard-response","81","230330","0.0-1.0-103.0","0","0","63243","","null","","","null","11","","NaN","","","","","","","","","","","","","",""
"","response","","html-keyboard-response","82","230805","0.0-1.0-104.0-0.0","0","0","63243","","473","","","68","11","","","1","11","training","adjacent","DE","4","5","P.jpg","R.jpg","0","1","0","",""
"","feedback","","html-keyboard-response","83","231814","0.0-1.0-105.0-0.0","0","0","63243","","null","","","null","11","","","","","","","","","","","","","","","",""
"","time_out","","html-keyboard-response","84","233821","0.0-1.0-107.0-0.0","0","0","63243","","null","","","null","11","","","","","","","","","","","","","","","",""
"","ITI","","html-keyboard-response","85","234829","0.0-1.0-108.0","0","0","63243","","null","","","null","11","","","","","","","","","","","","","","","NaN",""
"","S1","","html-keyboard-response","86","235085","0.0-1.0-110.0","0","0","63243","","null","","","null","12","","","","","","","","","","","","","","","",""
"","ISI","","html-keyboard-response","87","235597","0.0-1.0-111.0","0","0","63243","","null","","","null","12","NaN","","","","","","","","","","","","","","",""
"","S2","","html-keyboard-response","88","235858","0.0-1.0-112.0","0","0","63243","","null","","","null","12","","NaN","","","","","","","","","","","","","",""
"","response","","html-keyboard-response","89","236284","0.0-1.0-113.0-0.0","0","0","63243","","424","","","75","12","","","1","12","training","adjacent","FG","6","7","N.jpg","O.jpg","1","1","1","",""
"","feedback","","html-keyboard-response","90","237301","0.0-1.0-114.0-0.0","0","0","63243","","null","","","null","12","","","","","","","","","","","","","","","",""
"","ITI","","html-keyboard-response","91","238310","0.0-1.0-117.0","0","0","63243","","null","","","null","12","","","","","","","","","","","","","","","NaN",""
"","S1","","html-keyboard-response","92","238573","0.0-1.0-119.0","0","0","63243","","null","","","null","13","","","","","","","","","","","","","","","",""
"","ISI","","html-keyboard-response","93","239095","0.0-1.0-120.0","0","0","63243","","null","","","null","13","NaN","","","","","","","","","","","","","","",""
"","S2","","html-keyboard-response","94","239357","0.0-1.0-121.0","0","0","63243","","null","","","null","13","","NaN","","","","","","","","","","","","","",""
"","response","","html-keyboard-response","95","239949","0.0-1.0-122.0-0.0","0","0","63243","","591","","","68","13","","","1","13","training","adjacent","ED","5","4","R.jpg","P.jpg","0","0","1","",""
"","feedback","","html-keyboard-response","96","240957","0.0-1.0-123.0-0.0","0","0","63243","","null","","","null","13","","","","","","","","","","","","","","","",""
"","ITI","","html-keyboard-response","97","241965","0.0-1.0-126.0","0","0","63243","","null","","","null","13","","","","","","","","","","","","","","","NaN",""
"","S1","","html-keyboard-response","98","242222","0.0-1.0-128.0","0","0","63243","","null","","","null","14","","","","","","","","","","","","","","","",""
"","ISI","","html-keyboard-response","99","242733","0.0-1.0-129.0","0","0","63243","","null","","","null","14","NaN","","","","","","","","","","","","","","",""
"","S2","","html-keyboard-response","100","242998","0.0-1.0-130.0","0","0","63243","","null","","","null","14","","NaN","","","","","","","","","","","","","",""
"","response","","html-keyboard-response","101","243541","0.0-1.0-131.0-0.0","0","0","63243","","541","","","75","14","","","1","14","training","adjacent","BC","2","3","Q.jpg","M.jpg","1","1","1","",""
"","feedback","","html-keyboard-response","102","244550","0.0-1.0-132.0-0.0","0","0","63243","","null","","","null","14","","","","","","","","","","","","","","","",""
"","ITI","","html-keyboard-response","103","245558","0.0-1.0-135.0","0","0","63243","","null","","","null","14","","","","","","","","","","","","","","","NaN",""
"","S1","","html-keyboard-response","104","245827","0.0-1.0-137.0","0","0","63243","","null","","","null","15","","","","","","","","","","","","","","","",""
"","ISI","","html-keyboard-response","105","246333","0.0-1.0-138.0","0","0","63243","","null","","","null","15","NaN","","","","","","","","","","","","","","",""
"","S2","","html-keyboard-response","106","246596","0.0-1.0-139.0","0","0","63243","","null","","","null","15","","NaN","","","","","","","","","","","","","",""
"","response","","html-keyboard-response","107","246990","0.0-1.0-140.0-0.0","0","0","63243","","393","","","68","15","","","1","15","training","adjacent","CB","3","2","M.jpg","Q.jpg","0","0","1","",""
"","feedback","","html-keyboard-response","108","247997","0.0-1.0-141.0-0.0","0","0","63243","","null","","","null","15","","","","","","","","","","","","","","","",""
"","ITI","","html-keyboard-response","109","249006","0.0-1.0-144.0","0","0","63243","","null","","","null","15","","","","","","","","","","","","","","","NaN",""
"","S1","","html-keyboard-response","110","249270","0.0-1.0-146.0","0","0","63243","","null","","","null","16","","","","","","","","","","","","","","","",""
"","ISI","","html-keyboard-response","111","249782","0.0-1.0-147.0","0","0","63243","","null","","","null","16","NaN","","","","","","","","","","","","","","",""
"","S2","","html-keyboard-response","112","250046","0.0-1.0-148.0","0","0","63243","","null","","","null","16","","NaN","","","","","","","","","","","","","",""
"","response","","html-keyboard-response","113","250525","0.0-1.0-149.0-0.0","0","0","63243","","478","","","68","16","","","1","16","training","adjacent","CD","3","4","M.jpg","P.jpg","0","1","0","",""
"","feedback","","html-keyboard-response","114","251534","0.0-1.0-150.0-0.0","0","0","63243","","null","","","null","16","","","","","","","","","","","","","","","",""
"","time_out","","html-keyboard-response","115","253542","0.0-1.0-152.0-0.0","0","0","63243","","null","","","null","16","","","","","","","","","","","","","","","",""
"","ITI","","html-keyboard-response","116","254546","0.0-1.0-153.0","0","0","63243","","null","","","null","16","","","","","","","","","","","","","","","NaN",""
"","S1","","html-keyboard-response","117","254806","0.0-1.0-155.0","0","0","63243","","null","","","null","17","","","","","","","","","","","","","","","",""
"","ISI","","html-keyboard-response","118","255318","0.0-1.0-156.0","0","0","63243","","null","","","null","17","NaN","","","","","","","","","","","","","","",""
"","S2","","html-keyboard-response","119","255582","0.0-1.0-157.0","0","0","63243","","null","","","null","17","","NaN","","","","","","","","","","","","","",""
"","response","","html-keyboard-response","120","256022","0.0-1.0-158.0-0.0","0","0","63243","","439","","","68","17","","","1","17","training","adjacent","BA","2","1","Q.jpg","L.jpg","0","0","1","",""
"","feedback","","html-keyboard-response","121","257030","0.0-1.0-159.0-0.0","0","0","63243","","null","","","null","17","","","","","","","","","","","","","","","",""
"","ITI","","html-keyboard-response","122","258037","0.0-1.0-162.0","0","0","63243","","null","","","null","17","","","","","","","","","","","","","","","NaN",""
"","S1","","html-keyboard-response","123","258294","0.0-1.0-164.0","0","0","63243","","null","","","null","18","","","","","","","","","","","","","","","",""
"","ISI","","html-keyboard-response","124","258806","0.0-1.0-165.0","0","0","63243","","null","","","null","18","NaN","","","","","","","","","","","","","","",""
"","S2","","html-keyboard-response","125","259070","0.0-1.0-166.0","0","0","63243","","null","","","null","18","","NaN","","","","","","","","","","","","","",""
"","response","","html-keyboard-response","126","259541","0.0-1.0-167.0-0.0","0","0","63243","","470","","","75","18","","","1","18","training","adjacent","ED","5","4","R.jpg","P.jpg","1","0","0","",""
"","feedback","","html-keyboard-response","127","260551","0.0-1.0-168.0-0.0","0","0","63243","","null","","","null","18","","","","","","","","","","","","","","","",""
"","time_out","","html-keyboard-response","128","262558","0.0-1.0-170.0-0.0","0","0","63243","","null","","","null","18","","","","","","","","","","","","","","","",""
"","ITI","","html-keyboard-response","129","263566","0.0-1.0-171.0","0","0","63243","","null","","","null","18","","","","","","","","","","","","","","","NaN",""
"","S1","","html-keyboard-response","130","263822","0.0-1.0-173.0","0","0","63243","","null","","","null","19","","","","","","","","","","","","","","","",""
"","ISI","","html-keyboard-response","131","264334","0.0-1.0-174.0","0","0","63243","","null","","","null","19","NaN","","","","","","","","","","","","","","",""
"","S2","","html-keyboard-response","132","264588","0.0-1.0-175.0","0","0","63243","","null","","","null","19","","NaN","","","","","","","","","","","","","",""
"","response","","html-keyboard-response","133","265053","0.0-1.0-176.0-0.0","0","0","63243","","464","","","68","19","","","1","19","training","adjacent","CD","3","4","M.jpg","P.jpg","0","1","0","",""
"","feedback","","html-keyboard-response","134","266062","0.0-1.0-177.0-0.0","0","0","63243","","null","","","null","19","","","","","","","","","","","","","","","",""
"","time_out","","html-keyboard-response","135","268070","0.0-1.0-179.0-0.0","0","0","63243","","null","","","null","19","","","","","","","","","","","","","","","",""
"","ITI","","html-keyboard-response","136","269079","0.0-1.0-180.0","0","0","63243","","null","","","null","19","","","","","","","","","","","","","","","NaN",""
"","S1","","html-keyboard-response","137","269334","0.0-1.0-182.0","0","0","63243","","null","","","null","20","","","","","","","","","","","","","","","",""
"","ISI","","html-keyboard-response","138","269846","0.0-1.0-183.0","0","0","63243","","null","","","null","20","NaN","","","","","","","","","","","","","","",""
"","S2","","html-keyboard-response","139","270110","0.0-1.0-184.0","0","0","63243","","null","","","null","20","","NaN","","","","","","","","","","","","","",""
"","response","","html-keyboard-response","140","270526","0.0-1.0-185.0-0.0","0","0","63243","","415","","","75","20","","","1","20","training","adjacent","BC","2","3","Q.jpg","M.jpg","1","1","1","",""
"","feedback","","html-keyboard-response","141","271534","0.0-1.0-186.0-0.0","0","0","63243","","null","","","null","20","","","","","","","","","","","","","","","",""
"","ITI","","html-keyboard-response","142","272542","0.0-1.0-189.0","0","0","63243","","null","","","null","20","","","","","","","","","","","","","","","NaN",""
"","S1","","html-keyboard-response","143","272807","0.0-1.0-191.0","0","0","63243","","null","","","null","21","","","","","","","","","","","","","","","",""
"","ISI","","html-keyboard-response","144","273319","0.0-1.0-192.0","0","0","63243","","null","","","null","21","NaN","","","","","","","","","","","","","","",""
"","S2","","html-keyboard-response","145","273583","0.0-1.0-193.0","0","0","63243","","null","","","null","21","","NaN","","","","","","","","","","","","","",""
"","response","","html-keyboard-response","146","274335","0.0-1.0-194.0-0.0","0","0","63243","","751","","","68","21","","","1","21","training","adjacent","BA","2","1","Q.jpg","L.jpg","0","0","1","",""
"","feedback","","html-keyboard-response","147","275342","0.0-1.0-195.0-0.0","0","0","63243","","null","","","null","21","","","","","","","","","","","","","","","",""
"","ITI","","html-keyboard-response","148","276350","0.0-1.0-198.0","0","0","63243","","null","","","null","21","","","","","","","","","","","","","","","NaN",""
"","S1","","html-keyboard-response","149","276606","0.0-1.0-200.0","0","0","63243","","null","","","null","22","","","","","","","","","","","","","","","",""
"","ISI","","html-keyboard-response","150","277118","0.0-1.0-201.0","0","0","63243","","null","","","null","22","NaN","","","","","","","","","","","","","","",""
"","S2","","html-keyboard-response","151","277374","0.0-1.0-202.0","0","0","63243","","null","","","null","22","","NaN","","","","","","","","","","","","","",""
"","response","","html-keyboard-response","152","277957","0.0-1.0-203.0-0.0","0","0","63243","","581","","","68","22","","","1","22","training","adjacent","ED","5","4","R.jpg","P.jpg","0","0","1","",""
"","feedback","","html-keyboard-response","153","278967","0.0-1.0-204.0-0.0","0","0","63243","","null","","","null","22","","","","","","","","","","","","","","","",""
"","ITI","","html-keyboard-response","154","279975","0.0-1.0-207.0","0","0","63243","","null","","","null","22","","","","","","","","","","","","","","","NaN",""
"","S1","","html-keyboard-response","155","280238","0.0-1.0-209.0","0","0","63243","","null","","","null","23","","","","","","","","","","","","","","","",""
"","ISI","","html-keyboard-response","156","280750","0.0-1.0-210.0","0","0","63243","","null","","","null","23","NaN","","","","","","","","","","","","","","",""
"","S2","","html-keyboard-response","157","281015","0.0-1.0-211.0","0","0","63243","","null","","","null","23","","NaN","","","","","","","","","","","","","",""
"","response","","html-keyboard-response","158","281950","0.0-1.0-212.0-0.0","0","0","63243","","934","","","75","23","","","1","23","training","adjacent","ED","5","4","R.jpg","P.jpg","1","0","0","",""
"","feedback","","html-keyboard-response","159","282958","0.0-1.0-213.0-0.0","0","0","63243","","null","","","null","23","","","","","","","","","","","","","","","",""
"","time_out","","html-keyboard-response","160","284967","0.0-1.0-215.0-0.0","0","0","63243","","null","","","null","23","","","","","","","","","","","","","","","",""
"","ITI","","html-keyboard-response","161","285975","0.0-1.0-216.0","0","0","63243","","null","","","null","23","","","","","","","","","","","","","","","NaN",""
"","S1","","html-keyboard-response","162","286238","0.0-1.0-218.0","0","0","63243","","null","","","null","24","","","","","","","","","","","","","","","",""
"","ISI","","html-keyboard-response","163","286750","0.0-1.0-219.0","0","0","63243","","null","","","null","24","NaN","","","","","","","","","","","","","","",""
"","S2","","html-keyboard-response","164","287015","0.0-1.0-220.0","0","0","63243","","null","","","null","24","","NaN","","","","","","","","","","","","","",""
"","response","","html-keyboard-response","165","287789","0.0-1.0-221.0-0.0","0","0","63243","","773","","","68","24","","","1","24","training","adjacent","CB","3","2","M.jpg","Q.jpg","0","0","1","",""
"","feedback","","html-keyboard-response","166","288798","0.0-1.0-222.0-0.0","0","0","63243","","null","","","null","24","","","","","","","","","","","","","","","",""
"","ITI","","html-keyboard-response","167","289806","0.0-1.0-225.0","0","0","63243","","null","","","null","24","","","","","","","","","","","","","","","NaN",""
"","S1","","html-keyboard-response","168","290062","0.0-1.0-227.0","0","0","63243","","null","","","null","25","","","","","","","","","","","","","","","",""
"","ISI","","html-keyboard-response","169","290574","0.0-1.0-228.0","0","0","63243","","null","","","null","25","NaN","","","","","","","","","","","","","","",""
"","S2","","html-keyboard-response","170","290839","0.0-1.0-229.0","0","0","63243","","null","","","null","25","","NaN","","","","","","","","","","","","","",""
"","response","","html-keyboard-response","171","291686","0.0-1.0-230.0-0.0","0","0","63243","","846","","","68","25","","","1","25","training","adjacent","CB","3","2","M.jpg","Q.jpg","0","0","1","",""
"","feedback","","html-keyboard-response","172","292695","0.0-1.0-231.0-0.0","0","0","63243","","null","","","null","25","","","","","","","","","","","","","","","",""
"","ITI","","html-keyboard-response","173","293703","0.0-1.0-234.0","0","0","63243","","null","","","null","25","","","","","","","","","","","","","","","NaN",""
"","S1","","html-keyboard-response","174","293967","0.0-1.0-236.0","0","0","63243","","null","","","null","26","","","","","","","","","","","","","","","",""
"","ISI","","html-keyboard-response","175","294478","0.0-1.0-237.0","0","0","63243","","null","","","null","26","NaN","","","","","","","","","","","","","","",""
"","S2","","html-keyboard-response","176","294734","0.0-1.0-238.0","0","0","63243","","null","","","null","26","","NaN","","","","","","","","","","","","","",""
"","response","","html-keyboard-response","177","295207","0.0-1.0-239.0-0.0","0","0","63243","","470","","","75","26","","","1","26","training","adjacent","GF","7","6","O.jpg","N.jpg","1","0","0","",""
"","feedback","","html-keyboard-response","178","296212","0.0-1.0-240.0-0.0","0","0","63243","","null","","","null","26","","","","","","","","","","","","","","","",""
"","time_out","","html-keyboard-response","179","298222","0.0-1.0-242.0-0.0","0","0","63243","","null","","","null","26","","","","","","","","","","","","","","","",""
"","ITI","","html-keyboard-response","180","299229","0.0-1.0-243.0","0","0","63243","","null","","","null","26","","","","","","","","","","","","","","","NaN",""
"","S1","","html-keyboard-response","181","299513","0.0-1.0-245.0","0","0","63243","","null","","","null","27","","","","","","","","","","","","","","","",""
"","ISI","","html-keyboard-response","182","300023","0.0-1.0-246.0","0","0","63243","","null","","","null","27","NaN","","","","","","","","","","","","","","",""
"","S2","","html-keyboard-response","183","300287","0.0-1.0-247.0","0","0","63243","","null","","","null","27","","NaN","","","","","","","","","","","","","",""
"","response","","html-keyboard-response","184","300679","0.0-1.0-248.0-0.0","0","0","63243","","391","","","75","27","","","1","27","training","adjacent","DE","4","5","P.jpg","R.jpg","1","1","1","",""
"","feedback","","html-keyboard-response","185","301687","0.0-1.0-249.0-0.0","0","0","63243","","null","","","null","27","","","","","","","","","","","","","","","",""
"","ITI","","html-keyboard-response","186","302694","0.0-1.0-252.0","0","0","63243","","null","","","null","27","","","","","","","","","","","","","","","NaN",""
"","S1","","html-keyboard-response","187","302951","0.0-1.0-254.0","0","0","63243","","null","","","null","28","","","","","","","","","","","","","","","",""
"","ISI","","html-keyboard-response","188","303463","0.0-1.0-255.0","0","0","63243","","null","","","null","28","NaN","","","","","","","","","","","","","","",""
"","S2","","html-keyboard-response","189","303727","0.0-1.0-256.0","0","0","63243","","null","","","null","28","","NaN","","","","","","","","","","","","","",""
"","response","","html-keyboard-response","190","304246","0.0-1.0-257.0-0.0","0","0","63243","","517","","","75","28","","","1","28","training","adjacent","DC","4","3","P.jpg","M.jpg","1","0","0","",""
"","feedback","","html-keyboard-response","191","305255","0.0-1.0-258.0-0.0","0","0","63243","","null","","","null","28","","","","","","","","","","","","","","","",""
"","time_out","","html-keyboard-response","192","307262","0.0-1.0-260.0-0.0","0","0","63243","","null","","","null","28","","","","","","","","","","","","","","","",""
"","ITI","","html-keyboard-response","193","308271","0.0-1.0-261.0","0","0","63243","","null","","","null","28","","","","","","","","","","","","","","","NaN",""
"","S1","","html-keyboard-response","194","308527","0.0-1.0-263.0","0","0","63243","","null","","","null","29","","","","","","","","","","","","","","","",""
"","ISI","","html-keyboard-response","195","309039","0.0-1.0-264.0","0","0","63243","","null","","","null","29","NaN","","","","","","","","","","","","","","",""
"","S2","","html-keyboard-response","196","309295","0.0-1.0-265.0","0","0","63243","","null","","","null","29","","NaN","","","","","","","","","","","","","",""
"","response","","html-keyboard-response","197","310175","0.0-1.0-266.0-0.0","0","0","63243","","879","","","75","29","","","1","29","training","adjacent","DE","4","5","P.jpg","R.jpg","1","1","1","",""
"","feedback","","html-keyboard-response","198","311183","0.0-1.0-267.0-0.0","0","0","63243","","null","","","null","29","","","","","","","","","","","","","","","",""
"","ITI","","html-keyboard-response","199","312190","0.0-1.0-270.0","0","0","63243","","null","","","null","29","","","","","","","","","","","","","","","NaN",""
"","S1","","html-keyboard-response","200","312447","0.0-1.0-272.0","0","0","63243","","null","","","null","30","","","","","","","","","","","","","","","",""
"","ISI","","html-keyboard-response","201","312959","0.0-1.0-273.0","0","0","63243","","null","","","null","30","NaN","","","","","","","","","","","","","","",""
"","S2","","html-keyboard-response","202","313228","0.0-1.0-274.0","0","0","63243","","null","","","null","30","","NaN","","","","","","","","","","","","","",""
"","response","","html-keyboard-response","203","313695","0.0-1.0-275.0-0.0","0","0","63243","","466","","","75","30","","","1","30","training","adjacent","FE","6","5","N.jpg","R.jpg","1","0","0","",""
"","feedback","","html-keyboard-response","204","314703","0.0-1.0-276.0-0.0","0","0","63243","","null","","","null","30","","","","","","","","","","","","","","","",""
"","time_out","","html-keyboard-response","205","316712","0.0-1.0-278.0-0.0","0","0","63243","","null","","","null","30","","","","","","","","","","","","","","","",""
"","ITI","","html-keyboard-response","206","317720","0.0-1.0-279.0","0","0","63243","","null","","","null","30","","","","","","","","","","","","","","","NaN",""
"","S1","","html-keyboard-response","207","317983","0.0-1.0-281.0","0","0","63243","","null","","","null","31","","","","","","","","","","","","","","","",""
"","ISI","","html-keyboard-response","208","318495","0.0-1.0-282.0","0","0","63243","","null","","","null","31","NaN","","","","","","","","","","","","","","",""
"","S2","","html-keyboard-response","209","318749","0.0-1.0-283.0","0","0","63243","","null","","","null","31","","NaN","","","","","","","","","","","","","",""
"","response","","html-keyboard-response","210","319423","0.0-1.0-284.0-0.0","0","0","63243","","673","","","68","31","","","1","31","training","adjacent","CD","3","4","M.jpg","P.jpg","0","1","0","",""
"","feedback","","html-keyboard-response","211","320431","0.0-1.0-285.0-0.0","0","0","63243","","null","","","null","31","","","","","","","","","","","","","","","",""
"","time_out","","html-keyboard-response","212","322440","0.0-1.0-287.0-0.0","0","0","63243","","null","","","null","31","","","","","","","","","","","","","","","",""
"","ITI","","html-keyboard-response","213","323448","0.0-1.0-288.0","0","0","63243","","null","","","null","31","","","","","","","","","","","","","","","NaN",""
"","S1","","html-keyboard-response","214","323711","0.0-1.0-290.0","0","0","63243","","null","","","null","32","","","","","","","","","","","","","","","",""
"","ISI","","html-keyboard-response","215","324223","0.0-1.0-291.0","0","0","63243","","null","","","null","32","NaN","","","","","","","","","","","","","","",""
"","S2","","html-keyboard-response","216","324487","0.0-1.0-292.0","0","0","63243","","null","","","null","32","","NaN","","","","","","","","","","","","","",""
"","response","","html-keyboard-response","217","325039","0.0-1.0-293.0-0.0","0","0","63243","","550","","","68","32","","","1","32","training","adjacent","FG","6","7","N.jpg","O.jpg","0","1","0","",""
"","feedback","","html-keyboard-response","218","326047","0.0-1.0-294.0-0.0","0","0","63243","","null","","","null","32","","","","","","","","","","","","","","","",""
"","time_out","","html-keyboard-response","219","328056","0.0-1.0-296.0-0.0","0","0","63243","","null","","","null","32","","","","","","","","","","","","","","","",""
"","ITI","","html-keyboard-response","220","329062","0.0-1.0-297.0","0","0","63243","","null","","","null","32","","","","","","","","","","","","","","","NaN",""
"","S1","","html-keyboard-response","221","329325","0.0-1.0-299.0","0","0","63243","","null","","","null","33","","","","","","","","","","","","","","","",""
"","ISI","","html-keyboard-response","222","329832","0.0-1.0-300.0","0","0","63243","","null","","","null","33","NaN","","","","","","","","","","","","","","",""
"","S2","","html-keyboard-response","223","330088","0.0-1.0-301.0","0","0","63243","","null","","","null","33","","NaN","","","","","","","","","","","","","",""
"","response","","html-keyboard-response","224","330599","0.0-1.0-302.0-0.0","0","0","63243","","509","","","68","33","","","1","33","training","adjacent","BA","2","1","Q.jpg","L.jpg","0","0","1","",""
"","feedback","","html-keyboard-response","225","331608","0.0-1.0-303.0-0.0","0","0","63243","","null","","","null","33","","","","","","","","","","","","","","","",""
"","ITI","","html-keyboard-response","226","332612","0.0-1.0-306.0","0","0","63243","","null","","","null","33","","","","","","","","","","","","","","","NaN",""
"","S1","","html-keyboard-response","227","332872","0.0-1.0-308.0","0","0","63243","","null","","","null","34","","","","","","","","","","","","","","","",""
"","ISI","","html-keyboard-response","228","333384","0.0-1.0-309.0","0","0","63243","","null","","","null","34","NaN","","","","","","","","","","","","","","",""
"","S2","","html-keyboard-response","229","333647","0.0-1.0-310.0","0","0","63243","","null","","","null","34","","NaN","","","","","","","","","","","","","",""
"","response","","html-keyboard-response","230","334414","0.0-1.0-311.0-0.0","0","0","63243","","764","","","68","34","","","1","34","training","adjacent","GF","7","6","O.jpg","N.jpg","0","0","1","",""
"","feedback","","html-keyboard-response","231","335423","0.0-1.0-312.0-0.0","0","0","63243","","null","","","null","34","","","","","","","","","","","","","","","",""
"","ITI","","html-keyboard-response","232","336431","0.0-1.0-315.0","0","0","63243","","null","","","null","34","","","","","","","","","","","","","","","NaN",""
"","S1","","html-keyboard-response","233","336687","0.0-1.0-317.0","0","0","63243","","null","","","null","35","","","","","","","","","","","","","","","",""
"","ISI","","html-keyboard-response","234","337205","0.0-1.0-318.0","0","0","63243","","null","","","null","35","NaN","","","","","","","","","","","","","","",""
"","S2","","html-keyboard-response","235","337463","0.0-1.0-319.0","0","0","63243","","null","","","null","35","","NaN","","","","","","","","","","","","","",""
"","response","","html-keyboard-response","236","337992","0.0-1.0-320.0-0.0","0","0","63243","","527","","","75","35","","","1","35","training","adjacent","CD","3","4","M.jpg","P.jpg","1","1","1","",""
"","feedback","","html-keyboard-response","237","339000","0.0-1.0-321.0-0.0","0","0","63243","","null","","","null","35","","","","","","","","","","","","","","","",""
"","ITI","","html-keyboard-response","238","340008","0.0-1.0-324.0","0","0","63243","","null","","","null","35","","","","","","","","","","","","","","","NaN",""
"","S1","","html-keyboard-response","239","340272","0.0-1.0-326.0","0","0","63243","","null","","","null","36","","","","","","","","","","","","","","","",""
"","ISI","","html-keyboard-response","240","340784","0.0-1.0-327.0","0","0","63243","","null","","","null","36","NaN","","","","","","","","","","","","","","",""
"","S2","","html-keyboard-response","241","341048","0.0-1.0-328.0","0","0","63243","","null","","","null","36","","NaN","","","","","","","","","","","","","",""
"","response","","html-keyboard-response","242","342294","0.0-1.0-329.0-0.0","0","0","63243","","1244","","","75","36","","","1","36","training","adjacent","AB","1","2","L.jpg","Q.jpg","1","1","1","",""
"","feedback","","html-keyboard-response","243","343305","0.0-1.0-330.0-0.0","0","0","63243","","null","","","null","36","","","","","","","","","","","","","","","",""
"","ITI","","html-keyboard-response","244","344312","0.0-1.0-333.0","0","0","63243","","null","","","null","36","","","","","","","","","","","","","","","NaN",""
"","S1","","html-keyboard-response","245","344576","0.0-1.0-335.0","0","0","63243","","null","","","null","37","","","","","","","","","","","","","","","",""
"","ISI","","html-keyboard-response","246","345088","0.0-1.0-336.0","0","0","63243","","null","","","null","37","NaN","","","","","","","","","","","","","","",""
"","S2","","html-keyboard-response","247","345343","0.0-1.0-337.0","0","0","63243","","null","","","null","37","","NaN","","","","","","","","","","","","","",""
"","response","","html-keyboard-response","248","346598","0.0-1.0-338.0-0.0","0","0","63243","","1254","","","68","37","","","1","37","training","adjacent","AB","1","2","L.jpg","Q.jpg","0","1","0","",""
"","feedback","","html-keyboard-response","249","347608","0.0-1.0-339.0-0.0","0","0","63243","","null","","","null","37","","","","","","","","","","","","","","","",""
"","time_out","","html-keyboard-response","250","349616","0.0-1.0-341.0-0.0","0","0","63243","","null","","","null","37","","","","","","","","","","","","","","","",""
"","ITI","","html-keyboard-response","251","350624","0.0-1.0-342.0","0","0","63243","","null","","","null","37","","","","","","","","","","","","","","","NaN",""
"","S1","","html-keyboard-response","252","350888","0.0-1.0-344.0","0","0","63243","","null","","","null","38","","","","","","","","","","","","","","","",""
"","ISI","","html-keyboard-response","253","351400","0.0-1.0-345.0","0","0","63243","","null","","","null","38","NaN","","","","","","","","","","","","","","",""
"","S2","","html-keyboard-response","254","351664","0.0-1.0-346.0","0","0","63243","","null","","","null","38","","NaN","","","","","","","","","","","","","",""
"","response","","html-keyboard-response","255","352326","0.0-1.0-347.0-0.0","0","0","63243","","661","","","68","38","","","1","38","training","adjacent","DE","4","5","P.jpg","R.jpg","0","1","0","",""
"","feedback","","html-keyboard-response","256","353336","0.0-1.0-348.0-0.0","0","0","63243","","null","","","null","38","","","","","","","","","","","","","","","",""
"","time_out","","html-keyboard-response","257","355343","0.0-1.0-350.0-0.0","0","0","63243","","null","","","null","38","","","","","","","","","","","","","","","",""
"","ITI","","html-keyboard-response","258","356351","0.0-1.0-351.0","0","0","63243","","null","","","null","38","","","","","","","","","","","","","","","NaN",""
"","S1","","html-keyboard-response","259","356608","0.0-1.0-353.0","0","0","63243","","null","","","null","39","","","","","","","","","","","","","","","",""
"","ISI","","html-keyboard-response","260","357119","0.0-1.0-354.0","0","0","63243","","null","","","null","39","NaN","","","","","","","","","","","","","","",""
"","S2","","html-keyboard-response","261","357377","0.0-1.0-355.0","0","0","63243","","null","","","null","39","","NaN","","","","","","","","","","","","","",""
"","response","","html-keyboard-response","262","357904","0.0-1.0-356.0-0.0","0","0","63243","","525","","","75","39","","","1","39","training","adjacent","DC","4","3","P.jpg","M.jpg","1","0","0","",""
"","feedback","","html-keyboard-response","263","358911","0.0-1.0-357.0-0.0","0","0","63243","","null","","","null","39","","","","","","","","","","","","","","","",""
"","time_out","","html-keyboard-response","264","360921","0.0-1.0-359.0-0.0","0","0","63243","","null","","","null","39","","","","","","","","","","","","","","","",""
"","ITI","","html-keyboard-response","265","361929","0.0-1.0-360.0","0","0","63243","","null","","","null","39","","","","","","","","","","","","","","","NaN",""
"","S1","","html-keyboard-response","266","362192","0.0-1.0-362.0","0","0","63243","","null","","","null","40","","","","","","","","","","","","","","","",""
"","ISI","","html-keyboard-response","267","362704","0.0-1.0-363.0","0","0","63243","","null","","","null","40","NaN","","","","","","","","","","","","","","",""
"","S2","","html-keyboard-response","268","362969","0.0-1.0-364.0","0","0","63243","","null","","","null","40","","NaN","","","","","","","","","","","","","",""
"","response","","html-keyboard-response","269","363728","0.0-1.0-365.0-0.0","0","0","63243","","758","","","75","40","","","1","40","training","adjacent","DC","4","3","P.jpg","M.jpg","1","0","0","",""
"","feedback","","html-keyboard-response","270","364736","0.0-1.0-366.0-0.0","0","0","63243","","null","","","null","40","","","","","","","","","","","","","","","",""
"","time_out","","html-keyboard-response","271","366745","0.0-1.0-368.0-0.0","0","0","63243","","null","","","null","40","","","","","","","","","","","","","","","",""
"","ITI","","html-keyboard-response","272","367753","0.0-1.0-369.0","0","0","63243","","null","","","null","40","","","","","","","","","","","","","","","NaN",""
"","S1","","html-keyboard-response","273","368016","0.0-1.0-371.0","0","0","63243","","null","","","null","41","","","","","","","","","","","","","","","",""
"","ISI","","html-keyboard-response","274","368528","0.0-1.0-372.0","0","0","63243","","null","","","null","41","NaN","","","","","","","","","","","","","","",""
"","S2","","html-keyboard-response","275","368793","0.0-1.0-373.0","0","0","63243","","null","","","null","41","","NaN","","","","","","","","","","","","","",""
"","response","","html-keyboard-response","276","369608","0.0-1.0-374.0-0.0","0","0","63243","","814","","","68","41","","","1","41","training","adjacent","AB","1","2","L.jpg","Q.jpg","0","1","0","",""
"","feedback","","html-keyboard-response","277","370617","0.0-1.0-375.0-0.0","0","0","63243","","null","","","null","41","","","","","","","","","","","","","","","",""
"","time_out","","html-keyboard-response","278","372624","0.0-1.0-377.0-0.0","0","0","63243","","null","","","null","41","","","","","","","","","","","","","","","",""
"","ITI","","html-keyboard-response","279","373634","0.0-1.0-378.0","0","0","63243","","null","","","null","41","","","","","","","","","","","","","","","NaN",""
"","S1","","html-keyboard-response","280","373897","0.0-1.0-380.0","0","0","63243","","null","","","null","42","","","","","","","","","","","","","","","",""
"","ISI","","html-keyboard-response","281","374409","0.0-1.0-381.0","0","0","63243","","null","","","null","42","NaN","","","","","","","","","","","","","","",""
"","S2","","html-keyboard-response","282","374672","0.0-1.0-382.0","0","0","63243","","null","","","null","42","","NaN","","","","","","","","","","","","","",""
"","response","","html-keyboard-response","283","375481","0.0-1.0-383.0-0.0","0","0","63243","","807","","","68","42","","","1","42","training","adjacent","EF","5","6","R.jpg","N.jpg","0","1","0","",""
"","feedback","","html-keyboard-response","284","376489","0.0-1.0-384.0-0.0","0","0","63243","","null","","","null","42","","","","","","","","","","","","","","","",""
"","time_out","","html-keyboard-response","285","378496","0.0-1.0-386.0-0.0","0","0","63243","","null","","","null","42","","","","","","","","","","","","","","","",""
"","ITI","","html-keyboard-response","286","379504","0.0-1.0-387.0","0","0","63243","","null","","","null","42","","","","","","","","","","","","","","","NaN",""
"","S1","","html-keyboard-response","287","379769","0.0-1.0-389.0","0","0","63243","","null","","","null","43","","","","","","","","","","","","","","","",""
"","ISI","","html-keyboard-response","288","380281","0.0-1.0-390.0","0","0","63243","","null","","","null","43","NaN","","","","","","","","","","","","","","",""
"","S2","","html-keyboard-response","289","380544","0.0-1.0-391.0","0","0","63243","","null","","","null","43","","NaN","","","","","","","","","","","","","",""
"","response","","html-keyboard-response","290","381456","0.0-1.0-392.0-0.0","0","0","63243","","910","","","68","43","","","1","43","training","adjacent","GF","7","6","O.jpg","N.jpg","0","0","1","",""
"","feedback","","html-keyboard-response","291","382465","0.0-1.0-393.0-0.0","0","0","63243","","null","","","null","43","","","","","","","","","","","","","","","",""
"","ITI","","html-keyboard-response","292","383472","0.0-1.0-396.0","0","0","63243","","null","","","null","43","","","","","","","","","","","","","","","NaN",""
"","S1","","html-keyboard-response","293","383729","0.0-1.0-398.0","0","0","63243","","null","","","null","44","","","","","","","","","","","","","","","",""
"","ISI","","html-keyboard-response","294","384241","0.0-1.0-399.0","0","0","63243","","null","","","null","44","NaN","","","","","","","","","","","","","","",""
"","S2","","html-keyboard-response","295","384504","0.0-1.0-400.0","0","0","63243","","null","","","null","44","","NaN","","","","","","","","","","","","","",""
"","response","","html-keyboard-response","296","385255","0.0-1.0-401.0-0.0","0","0","63243","","749","","","68","44","","","1","44","training","adjacent","EF","5","6","R.jpg","N.jpg","0","1","0","",""
"","feedback","","html-keyboard-response","297","386264","0.0-1.0-402.0-0.0","0","0","63243","","null","","","null","44","","","","","","","","","","","","","","","",""
"","time_out","","html-keyboard-response","298","388273","0.0-1.0-404.0-0.0","0","0","63243","","null","","","null","44","","","","","","","","","","","","","","","",""
"","ITI","","html-keyboard-response","299","389280","0.0-1.0-405.0","0","0","63243","","null","","","null","44","","","","","","","","","","","","","","","NaN",""
"","S1","","html-keyboard-response","300","389537","0.0-1.0-407.0","0","0","63243","","null","","","null","45","","","","","","","","","","","","","","","",""
"","ISI","","html-keyboard-response","301","390047","0.0-1.0-408.0","0","0","63243","","null","","","null","45","NaN","","","","","","","","","","","","","","",""
"","S2","","html-keyboard-response","302","390302","0.0-1.0-409.0","0","0","63243","","null","","","null","45","","NaN","","","","","","","","","","","","","",""
"","response","","html-keyboard-response","303","390960","0.0-1.0-410.0-0.0","0","0","63243","","656","","","75","45","","","1","45","training","adjacent","FE","6","5","N.jpg","R.jpg","1","0","0","",""
"","feedback","","html-keyboard-response","304","391970","0.0-1.0-411.0-0.0","0","0","63243","","null","","","null","45","","","","","","","","","","","","","","","",""
"","time_out","","html-keyboard-response","305","393977","0.0-1.0-413.0-0.0","0","0","63243","","null","","","null","45","","","","","","","","","","","","","","","",""
"","ITI","","html-keyboard-response","306","394985","0.0-1.0-414.0","0","0","63243","","null","","","null","45","","","","","","","","","","","","","","","NaN",""
"","S1","","html-keyboard-response","307","395242","0.0-1.0-416.0","0","0","63243","","null","","","null","46","","","","","","","","","","","","","","","",""
"","ISI","","html-keyboard-response","308","395755","0.0-1.0-417.0","0","0","63243","","null","","","null","46","NaN","","","","","","","","","","","","","","",""
"","S2","","html-keyboard-response","309","396017","0.0-1.0-418.0","0","0","63243","","null","","","null","46","","NaN","","","","","","","","","","","","","",""
"","response","","html-keyboard-response","310","396833","0.0-1.0-419.0-0.0","0","0","63243","","815","","","68","46","","","1","46","training","adjacent","FG","6","7","N.jpg","O.jpg","0","1","0","",""
"","feedback","","html-keyboard-response","311","397841","0.0-1.0-420.0-0.0","0","0","63243","","null","","","null","46","","","","","","","","","","","","","","","",""
"","time_out","","html-keyboard-response","312","399849","0.0-1.0-422.0-0.0","0","0","63243","","null","","","null","46","","","","","","","","","","","","","","","",""
"","ITI","","html-keyboard-response","313","400858","0.0-1.0-423.0","0","0","63243","","null","","","null","46","","","","","","","","","","","","","","","NaN",""
"","S1","","html-keyboard-response","314","401120","0.0-1.0-425.0","0","0","63243","","null","","","null","47","","","","","","","","","","","","","","","",""
"","ISI","","html-keyboard-response","315","401633","0.0-1.0-426.0","0","0","63243","","null","","","null","47","NaN","","","","","","","","","","","","","","",""
"","S2","","html-keyboard-response","316","401898","0.0-1.0-427.0","0","0","63243","","null","","","null","47","","NaN","","","","","","","","","","","","","",""
"","response","","html-keyboard-response","317","402736","0.0-1.0-428.0-0.0","0","0","63243","","837","","","75","47","","","1","47","training","adjacent","FE","6","5","N.jpg","R.jpg","1","0","0","",""
"","feedback","","html-keyboard-response","318","403745","0.0-1.0-429.0-0.0","0","0","63243","","null","","","null","47","","","","","","","","","","","","","","","",""
"","time_out","","html-keyboard-response","319","405754","0.0-1.0-431.0-0.0","0","0","63243","","null","","","null","47","","","","","","","","","","","","","","","",""
"","ITI","","html-keyboard-response","320","406762","0.0-1.0-432.0","0","0","63243","","null","","","null","47","","","","","","","","","","","","","","","NaN",""
"","block_over","","html-keyboard-response","321","412944","0.0-1.0-433.0-0.0","0","0","63243","","6180","","","32","47","","","","","","","","","","","","","","","",""
"","S1","","html-keyboard-response","322","413201","0.0-1.0-434.0","0","0","63243","","null","","","null","48","","","","","","","","","","","","","","","",""
"","ISI","","html-keyboard-response","323","413713","0.0-1.0-435.0","0","0","63243","","null","","","null","48","NaN","","","","","","","","","","","","","","",""
"","S2","","html-keyboard-response","324","413975","0.0-1.0-436.0","0","0","63243","","null","","","null","48","","NaN","","","","","","","","","","","","","",""
"","response","","html-keyboard-response","325","414544","0.0-1.0-437.0-0.0","0","0","63243","","568","","","75","48","","","2","48","training","adjacent","DC","4","3","P.jpg","M.jpg","1","0","0","",""
"","feedback","","html-keyboard-response","326","415559","0.0-1.0-438.0-0.0","0","0","63243","","null","","","null","48","","","","","","","","","","","","","","","",""
"","time_out","","html-keyboard-response","327","417569","0.0-1.0-440.0-0.0","0","0","63243","","null","","","null","48","","","","","","","","","","","","","","","",""
"","ITI","","html-keyboard-response","328","418577","0.0-1.0-441.0","0","0","63243","","null","","","null","48","","","","","","","","","","","","","","","NaN",""
"","S1","","html-keyboard-response","329","418842","0.0-1.0-443.0","0","0","63243","","null","","","null","49","","","","","","","","","","","","","","","",""
"","ISI","","html-keyboard-response","330","419354","0.0-1.0-444.0","0","0","63243","","null","","","null","49","NaN","","","","","","","","","","","","","","",""
"","S2","","html-keyboard-response","331","419615","0.0-1.0-445.0","0","0","63243","","null","","","null","49","","NaN","","","","","","","","","","","","","",""
"","response","","html-keyboard-response","332","420265","0.0-1.0-446.0-0.0","0","0","63243","","648","","","68","49","","","2","49","training","adjacent","FE","6","5","N.jpg","R.jpg","0","0","1","",""
"","feedback","","html-keyboard-response","333","421274","0.0-1.0-447.0-0.0","0","0","63243","","null","","","null","49","","","","","","","","","","","","","","","",""
"","ITI","","html-keyboard-response","334","422282","0.0-1.0-450.0","0","0","63243","","null","","","null","49","","","","","","","","","","","","","","","NaN",""
"","S1","","html-keyboard-response","335","422545","0.0-1.0-452.0","0","0","63243","","null","","","null","50","","","","","","","","","","","","","","","",""
"","ISI","","html-keyboard-response","336","423057","0.0-1.0-453.0","0","0","63243","","null","","","null","50","NaN","","","","","","","","","","","","","","",""
"","S2","","html-keyboard-response","337","423326","0.0-1.0-454.0","0","0","63243","","null","","","null","50","","NaN","","","","","","","","","","","","","",""
"","response","","html-keyboard-response","338","424178","0.0-1.0-455.0-0.0","0","0","63243","","851","","","68","50","","","2","50","training","adjacent","CD","3","4","M.jpg","P.jpg","0","1","0","",""
"","feedback","","html-keyboard-response","339","425185","0.0-1.0-456.0-0.0","0","0","63243","","null","","","null","50","","","","","","","","","","","","","","","",""
"","time_out","","html-keyboard-response","340","427194","0.0-1.0-458.0-0.0","0","0","63243","","null","","","null","50","","","","","","","","","","","","","","","",""
"","ITI","","html-keyboard-response","341","428202","0.0-1.0-459.0","0","0","63243","","null","","","null","50","","","","","","","","","","","","","","","NaN",""
"","S1","","html-keyboard-response","342","428466","0.0-1.0-461.0","0","0","63243","","null","","","null","51","","","","","","","","","","","","","","","",""
"","ISI","","html-keyboard-response","343","428978","0.0-1.0-462.0","0","0","63243","","null","","","null","51","NaN","","","","","","","","","","","","","","",""
"","S2","","html-keyboard-response","344","429242","0.0-1.0-463.0","0","0","63243","","null","","","null","51","","NaN","","","","","","","","","","","","","",""
"","response","","html-keyboard-response","345","430449","0.0-1.0-464.0-0.0","0","0","63243","","1204","","","75","51","","","2","51","training","adjacent","FG","6","7","N.jpg","O.jpg","1","1","1","",""
"","feedback","","html-keyboard-response","346","431457","0.0-1.0-465.0-0.0","0","0","63243","","null","","","null","51","","","","","","","","","","","","","","","",""
"","ITI","","html-keyboard-response","347","432466","0.0-1.0-468.0","0","0","63243","","null","","","null","51","","","","","","","","","","","","","","","NaN",""
"","S1","","html-keyboard-response","348","432730","0.0-1.0-470.0","0","0","63243","","null","","","null","52","","","","","","","","","","","","","","","",""
"","ISI","","html-keyboard-response","349","433242","0.0-1.0-471.0","0","0","63243","","null","","","null","52","NaN","","","","","","","","","","","","","","",""
"","S2","","html-keyboard-response","350","433506","0.0-1.0-472.0","0","0","63243","","null","","","null","52","","NaN","","","","","","","","","","","","","",""
"","response","","html-keyboard-response","351","434658","0.0-1.0-473.0-0.0","0","0","63243","","1151","","","75","52","","","2","52","training","adjacent","FG","6","7","N.jpg","O.jpg","1","1","1","",""
"","feedback","","html-keyboard-response","352","435665","0.0-1.0-474.0-0.0","0","0","63243","","null","","","null","52","","","","","","","","","","","","","","","",""
"","ITI","","html-keyboard-response","353","436674","0.0-1.0-477.0","0","0","63243","","null","","","null","52","","","","","","","","","","","","","","","NaN",""
"","S1","","html-keyboard-response","354","436936","0.0-1.0-479.0","0","0","63243","","null","","","null","53","","","","","","","","","","","","","","","",""
"","ISI","","html-keyboard-response","355","437442","0.0-1.0-480.0","0","0","63243","","null","","","null","53","NaN","","","","","","","","","","","","","","",""
"","S2","","html-keyboard-response","356","437706","0.0-1.0-481.0","0","0","63243","","null","","","null","53","","NaN","","","","","","","","","","","","","",""
"","response","","html-keyboard-response","357","438920","0.0-1.0-482.0-0.0","0","0","63243","","1212","","","68","53","","","2","53","training","adjacent","DC","4","3","P.jpg","M.jpg","0","0","1","",""
"","feedback","","html-keyboard-response","358","439930","0.0-1.0-483.0-0.0","0","0","63243","","null","","","null","53","","","","","","","","","","","","","","","",""
"","ITI","","html-keyboard-response","359","440938","0.0-1.0-486.0","0","0","63243","","null","","","null","53","","","","","","","","","","","","","","","NaN",""
"","S1","","html-keyboard-response","360","441202","0.0-1.0-488.0","0","0","63243","","null","","","null","54","","","","","","","","","","","","","","","",""
"","ISI","","html-keyboard-response","361","441714","0.0-1.0-489.0","0","0","63243","","null","","","null","54","NaN","","","","","","","","","","","","","","",""
"","S2","","html-keyboard-response","362","441979","0.0-1.0-490.0","0","0","63243","","null","","","null","54","","NaN","","","","","","","","","","","","","",""
"","response","","html-keyboard-response","363","442913","0.0-1.0-491.0-0.0","0","0","63243","","932","","","68","54","","","2","54","training","adjacent","ED","5","4","R.jpg","P.jpg","0","0","1","",""
"","feedback","","html-keyboard-response","364","443922","0.0-1.0-492.0-0.0","0","0","63243","","null","","","null","54","","","","","","","","","","","","","","","",""
"","ITI","","html-keyboard-response","365","444930","0.0-1.0-495.0","0","0","63243","","null","","","null","54","","","","","","","","","","","","","","","NaN",""
"","S1","","html-keyboard-response","366","445194","0.0-1.0-497.0","0","0","63243","","null","","","null","55","","","","","","","","","","","","","","","",""
"","ISI","","html-keyboard-response","367","445707","0.0-1.0-498.0","0","0","63243","","null","","","null","55","NaN","","","","","","","","","","","","","","",""
"","S2","","html-keyboard-response","368","445970","0.0-1.0-499.0","0","0","63243","","null","","","null","55","","NaN","","","","","","","","","","","","","",""
"","response","","html-keyboard-response","369","447451","0.0-1.0-500.0-0.0","0","0","63243","","1478","","","75","55","","","2","55","training","adjacent","AB","1","2","L.jpg","Q.jpg","1","1","1","",""
"","feedback","","html-keyboard-response","370","448458","0.0-1.0-501.0-0.0","0","0","63243","","null","","","null","55","","","","","","","","","","","","","","","",""
"","ITI","","html-keyboard-response","371","449466","0.0-1.0-504.0","0","0","63243","","null","","","null","55","","","","","","","","","","","","","","","NaN",""
"","S1","","html-keyboard-response","372","449730","0.0-1.0-506.0","0","0","63243","","null","","","null","56","","","","","","","","","","","","","","","",""
"","ISI","","html-keyboard-response","373","450242","0.0-1.0-507.0","0","0","63243","","null","","","null","56","NaN","","","","","","","","","","","","","","",""
"","S2","","html-keyboard-response","374","450498","0.0-1.0-508.0","0","0","63243","","null","","","null","56","","NaN","","","","","","","","","","","","","",""
"","response","","html-keyboard-response","375","451466","0.0-1.0-509.0-0.0","0","0","63243","","966","","","68","56","","","2","56","training","adjacent","ED","5","4","R.jpg","P.jpg","0","0","1","",""
"","feedback","","html-keyboard-response","376","452475","0.0-1.0-510.0-0.0","0","0","63243","","null","","","null","56","","","","","","","","","","","","","","","",""
"","ITI","","html-keyboard-response","377","453483","0.0-1.0-513.0","0","0","63243","","null","","","null","56","","","","","","","","","","","","","","","NaN",""
"","S1","","html-keyboard-response","378","453746","0.0-1.0-515.0","0","0","63243","","null","","","null","57","","","","","","","","","","","","","","","",""
"","ISI","","html-keyboard-response","379","454264","0.0-1.0-516.0","0","0","63243","","null","","","null","57","NaN","","","","","","","","","","","","","","",""
"","S2","","html-keyboard-response","380","454523","0.0-1.0-517.0","0","0","63243","","null","","","null","57","","NaN","","","","","","","","","","","","","",""
"","response","","html-keyboard-response","381","455906","0.0-1.0-518.0-0.0","0","0","63243","","1382","","","75","57","","","2","57","training","adjacent","DC","4","3","P.jpg","M.jpg","1","0","0","",""
"","feedback","","html-keyboard-response","382","456921","0.0-1.0-519.0-0.0","0","0","63243","","null","","","null","57","","","","","","","","","","","","","","","",""
"","time_out","","html-keyboard-response","383","458930","0.0-1.0-521.0-0.0","0","0","63243","","null","","","null","57","","","","","","","","","","","","","","","",""
"","ITI","","html-keyboard-response","384","459938","0.0-1.0-522.0","0","0","63243","","null","","","null","57","","","","","","","","","","","","","","","NaN",""
"","S1","","html-keyboard-response","385","460194","0.0-1.0-524.0","0","0","63243","","null","","","null","58","","","","","","","","","","","","","","","",""
"","ISI","","html-keyboard-response","386","460706","0.0-1.0-525.0","0","0","63243","","null","","","null","58","NaN","","","","","","","","","","","","","","",""
"","S2","","html-keyboard-response","387","460971","0.0-1.0-526.0","0","0","63243","","null","","","null","58","","NaN","","","","","","","","","","","","","",""
"","response","","html-keyboard-response","388","461827","0.0-1.0-527.0-0.0","0","0","63243","","855","","","68","58","","","2","58","training","adjacent","EF","5","6","R.jpg","N.jpg","0","1","0","",""
"","feedback","","html-keyboard-response","389","462834","0.0-1.0-528.0-0.0","0","0","63243","","null","","","null","58","","","","","","","","","","","","","","","",""
"","time_out","","html-keyboard-response","390","464843","0.0-1.0-530.0-0.0","0","0","63243","","null","","","null","58","","","","","","","","","","","","","","","",""
"","ITI","","html-keyboard-response","391","465851","0.0-1.0-531.0","0","0","63243","","null","","","null","58","","","","","","","","","","","","","","","NaN",""
"","S1","","html-keyboard-response","392","466114","0.0-1.0-533.0","0","0","63243","","null","","","null","59","","","","","","","","","","","","","","","",""
"","ISI","","html-keyboard-response","393","466626","0.0-1.0-534.0","0","0","63243","","null","","","null","59","NaN","","","","","","","","","","","","","","",""
"","S2","","html-keyboard-response","394","466891","0.0-1.0-535.0","0","0","63243","","null","","","null","59","","NaN","","","","","","","","","","","","","",""
"","response","","html-keyboard-response","395","467763","0.0-1.0-536.0-0.0","0","0","63243","","870","","","68","59","","","2","59","training","adjacent","ED","5","4","R.jpg","P.jpg","0","0","1","",""
"","feedback","","html-keyboard-response","396","468771","0.0-1.0-537.0-0.0","0","0","63243","","null","","","null","59","","","","","","","","","","","","","","","",""
"","ITI","","html-keyboard-response","397","469776","0.0-1.0-540.0","0","0","63243","","null","","","null","59","","","","","","","","","","","","","","","NaN",""
"","S1","","html-keyboard-response","398","470035","0.0-1.0-542.0","0","0","63243","","null","","","null","60","","","","","","","","","","","","","","","",""
"","ISI","","html-keyboard-response","399","470547","0.0-1.0-543.0","0","0","63243","","null","","","null","60","NaN","","","","","","","","","","","","","","",""
"","S2","","html-keyboard-response","400","470803","0.0-1.0-544.0","0","0","63243","","null","","","null","60","","NaN","","","","","","","","","","","","","",""
"","response","","html-keyboard-response","401","471793","0.0-1.0-545.0-0.0","0","0","63243","","989","","","68","60","","","2","60","training","adjacent","CB","3","2","M.jpg","Q.jpg","0","0","1","",""
"","feedback","","html-keyboard-response","402","472803","0.0-1.0-546.0-0.0","0","0","63243","","null","","","null","60","","","","","","","","","","","","","","","",""
"","ITI","","html-keyboard-response","403","473811","0.0-1.0-549.0","0","0","63243","","null","","","null","60","","","","","","","","","","","","","","","NaN",""
"","S1","","html-keyboard-response","404","474067","0.0-1.0-551.0","0","0","63243","","null","","","null","61","","","","","","","","","","","","","","","",""
"","ISI","","html-keyboard-response","405","474579","0.0-1.0-552.0","0","0","63243","","null","","","null","61","NaN","","","","","","","","","","","","","","",""
"","S2","","html-keyboard-response","406","474843","0.0-1.0-553.0","0","0","63243","","null","","","null","61","","NaN","","","","","","","","","","","","","",""
"","response","","html-keyboard-response","407","475851","0.0-1.0-554.0-0.0","0","0","63243","","1006","","","68","61","","","2","61","training","adjacent","CD","3","4","M.jpg","P.jpg","0","1","0","",""
"","feedback","","html-keyboard-response","408","476859","0.0-1.0-555.0-0.0","0","0","63243","","null","","","null","61","","","","","","","","","","","","","","","",""
"","time_out","","html-keyboard-response","409","478867","0.0-1.0-557.0-0.0","0","0","63243","","null","","","null","61","","","","","","","","","","","","","","","",""
"","ITI","","html-keyboard-response","410","479875","0.0-1.0-558.0","0","0","63243","","null","","","null","61","","","","","","","","","","","","","","","NaN",""
"","S1","","html-keyboard-response","411","480139","0.0-1.0-560.0","0","0","63243","","null","","","null","62","","","","","","","","","","","","","","","",""
"","ISI","","html-keyboard-response","412","480651","0.0-1.0-561.0","0","0","63243","","null","","","null","62","NaN","","","","","","","","","","","","","","",""
"","S2","","html-keyboard-response","413","480915","0.0-1.0-562.0","0","0","63243","","null","","","null","62","","NaN","","","","","","","","","","","","","",""
"","response","","html-keyboard-response","414","481427","0.0-1.0-563.0-0.0","0","0","63243","","511","","","68","62","","","2","62","training","adjacent","GF","7","6","O.jpg","N.jpg","0","0","1","",""
"","feedback","","html-keyboard-response","415","482435","0.0-1.0-564.0-0.0","0","0","63243","","null","","","null","62","","","","","","","","","","","","","","","",""
"","ITI","","html-keyboard-response","416","483443","0.0-1.0-567.0","0","0","63243","","null","","","null","62","","","","","","","","","","","","","","","NaN",""
"","S1","","html-keyboard-response","417","483707","0.0-1.0-569.0","0","0","63243","","null","","","null","63","","","","","","","","","","","","","","","",""
"","ISI","","html-keyboard-response","418","484219","0.0-1.0-570.0","0","0","63243","","null","","","null","63","NaN","","","","","","","","","","","","","","",""
"","S2","","html-keyboard-response","419","484483","0.0-1.0-571.0","0","0","63243","","null","","","null","63","","NaN","","","","","","","","","","","","","",""
"","response","","html-keyboard-response","420","485273","0.0-1.0-572.0-0.0","0","0","63243","","788","","","75","63","","","2","63","training","adjacent","CB","3","2","M.jpg","Q.jpg","1","0","0","",""
"","feedback","","html-keyboard-response","421","486284","0.0-1.0-573.0-0.0","0","0","63243","","null","","","null","63","","","","","","","","","","","","","","","",""
"","time_out","","html-keyboard-response","422","488291","0.0-1.0-575.0-0.0","0","0","63243","","null","","","null","63","","","","","","","","","","","","","","","",""
"","ITI","","html-keyboard-response","423","489299","0.0-1.0-576.0","0","0","63243","","null","","","null","63","","","","","","","","","","","","","","","NaN",""
"","S1","","html-keyboard-response","424","489555","0.0-1.0-578.0","0","0","63243","","null","","","null","64","","","","","","","","","","","","","","","",""
"","ISI","","html-keyboard-response","425","490067","0.0-1.0-579.0","0","0","63243","","null","","","null","64","NaN","","","","","","","","","","","","","","",""
"","S2","","html-keyboard-response","426","490331","0.0-1.0-580.0","0","0","63243","","null","","","null","64","","NaN","","","","","","","","","","","","","",""
"","response","","html-keyboard-response","427","491769","0.0-1.0-581.0-0.0","0","0","63243","","1436","","","75","64","","","2","64","training","adjacent","FG","6","7","N.jpg","O.jpg","1","1","1","",""
"","feedback","","html-keyboard-response","428","492782","0.0-1.0-582.0-0.0","0","0","63243","","null","","","null","64","","","","","","","","","","","","","","","",""
"","ITI","","html-keyboard-response","429","493795","0.0-1.0-585.0","0","0","63243","","null","","","null","64","","","","","","","","","","","","","","","NaN",""
"","S1","","html-keyboard-response","430","494060","0.0-1.0-587.0","0","0","63243","","null","","","null","65","","","","","","","","","","","","","","","",""
"","ISI","","html-keyboard-response","431","494572","0.0-1.0-588.0","0","0","63243","","null","","","null","65","NaN","","","","","","","","","","","","","","",""
"","S2","","html-keyboard-response","432","494835","0.0-1.0-589.0","0","0","63243","","null","","","null","65","","NaN","","","","","","","","","","","","","",""
"","response","","html-keyboard-response","433","496082","0.0-1.0-590.0-0.0","0","0","63243","","1245","","","75","65","","","2","65","training","adjacent","BA","2","1","Q.jpg","L.jpg","1","0","0","",""
"","feedback","","html-keyboard-response","434","497091","0.0-1.0-591.0-0.0","0","0","63243","","null","","","null","65","","","","","","","","","","","","","","","",""
"","time_out","","html-keyboard-response","435","499103","0.0-1.0-593.0-0.0","0","0","63243","","null","","","null","65","","","","","","","","","","","","","","","",""
"","ITI","","html-keyboard-response","436","500115","0.0-1.0-594.0","0","0","63243","","null","","","null","65","","","","","","","","","","","","","","","NaN",""
"","S1","","html-keyboard-response","437","500377","0.0-1.0-596.0","0","0","63243","","null","","","null","66","","","","","","","","","","","","","","","",""
"","ISI","","html-keyboard-response","438","500883","0.0-1.0-597.0","0","0","63243","","null","","","null","66","NaN","","","","","","","","","","","","","","",""
"","S2","","html-keyboard-response","439","501144","0.0-1.0-598.0","0","0","63243","","null","","","null","66","","NaN","","","","","","","","","","","","","",""
"","response","","html-keyboard-response","440","502539","0.0-1.0-599.0-0.0","0","0","63243","","1393","","","68","66","","","2","66","training","adjacent","BA","2","1","Q.jpg","L.jpg","0","0","1","",""
"","feedback","","html-keyboard-response","441","503548","0.0-1.0-600.0-0.0","0","0","63243","","null","","","null","66","","","","","","","","","","","","","","","",""
"","ITI","","html-keyboard-response","442","504556","0.0-1.0-603.0","0","0","63243","","null","","","null","66","","","","","","","","","","","","","","","NaN",""
"","S1","","html-keyboard-response","443","504819","0.0-1.0-605.0","0","0","63243","","null","","","null","67","","","","","","","","","","","","","","","",""
"","ISI","","html-keyboard-response","444","505331","0.0-1.0-606.0","0","0","63243","","null","","","null","67","NaN","","","","","","","","","","","","","","",""
"","S2","","html-keyboard-response","445","505596","0.0-1.0-607.0","0","0","63243","","null","","","null","67","","NaN","","","","","","","","","","","","","",""
"","response","","html-keyboard-response","446","506287","0.0-1.0-608.0-0.0","0","0","63243","","689","","","68","67","","","2","67","training","adjacent","BA","2","1","Q.jpg","L.jpg","0","0","1","",""
"","feedback","","html-keyboard-response","447","507299","0.0-1.0-609.0-0.0","0","0","63243","","null","","","null","67","","","","","","","","","","","","","","","",""
"","ITI","","html-keyboard-response","448","508307","0.0-1.0-612.0","0","0","63243","","null","","","null","67","","","","","","","","","","","","","","","NaN",""
"","S1","","html-keyboard-response","449","508563","0.0-1.0-614.0","0","0","63243","","null","","","null","68","","","","","","","","","","","","","","","",""
"","ISI","","html-keyboard-response","450","509075","0.0-1.0-615.0","0","0","63243","","null","","","null","68","NaN","","","","","","","","","","","","","","",""
"","S2","","html-keyboard-response","451","509332","0.0-1.0-616.0","0","0","63243","","null","","","null","68","","NaN","","","","","","","","","","","","","",""
"","response","","html-keyboard-response","452","510098","0.0-1.0-617.0-0.0","0","0","63243","","765","","","75","68","","","2","68","training","adjacent","DE","4","5","P.jpg","R.jpg","1","1","1","",""
"","feedback","","html-keyboard-response","453","511108","0.0-1.0-618.0-0.0","0","0","63243","","null","","","null","68","","","","","","","","","","","","","","","",""
"","ITI","","html-keyboard-response","454","512115","0.0-1.0-621.0","0","0","63243","","null","","","null","68","","","","","","","","","","","","","","","NaN",""
"","S1","","html-keyboard-response","455","512380","0.0-1.0-623.0","0","0","63243","","null","","","null","69","","","","","","","","","","","","","","","",""
"","ISI","","html-keyboard-response","456","512892","0.0-1.0-624.0","0","0","63243","","null","","","null","69","NaN","","","","","","","","","","","","","","",""
"","S2","","html-keyboard-response","457","513154","0.0-1.0-625.0","0","0","63243","","null","","","null","69","","NaN","","","","","","","","","","","","","",""
"","response","","html-keyboard-response","458","513940","0.0-1.0-626.0-0.0","0","0","63243","","784","","","75","69","","","2","69","training","adjacent","DE","4","5","P.jpg","R.jpg","1","1","1","",""
"","feedback","","html-keyboard-response","459","514948","0.0-1.0-627.0-0.0","0","0","63243","","null","","","null","69","","","","","","","","","","","","","","","",""
"","ITI","","html-keyboard-response","460","515956","0.0-1.0-630.0","0","0","63243","","null","","","null","69","","","","","","","","","","","","","","","NaN",""
"","S1","","html-keyboard-response","461","516220","0.0-1.0-632.0","0","0","63243","","null","","","null","70","","","","","","","","","","","","","","","",""
"","ISI","","html-keyboard-response","462","516732","0.0-1.0-633.0","0","0","63243","","null","","","null","70","NaN","","","","","","","","","","","","","","",""
"","S2","","html-keyboard-response","463","516995","0.0-1.0-634.0","0","0","63243","","null","","","null","70","","NaN","","","","","","","","","","","","","",""
"","response","","html-keyboard-response","464","517739","0.0-1.0-635.0-0.0","0","0","63243","","742","","","68","70","","","2","70","training","adjacent","EF","5","6","R.jpg","N.jpg","0","1","0","",""
"","feedback","","html-keyboard-response","465","518748","0.0-1.0-636.0-0.0","0","0","63243","","null","","","null","70","","","","","","","","","","","","","","","",""
"","time_out","","html-keyboard-response","466","520756","0.0-1.0-638.0-0.0","0","0","63243","","null","","","null","70","","","","","","","","","","","","","","","",""
"","ITI","","html-keyboard-response","467","521764","0.0-1.0-639.0","0","0","63243","","null","","","null","70","","","","","","","","","","","","","","","NaN",""
"","S1","","html-keyboard-response","468","522028","0.0-1.0-641.0","0","0","63243","","null","","","null","71","","","","","","","","","","","","","","","",""
"","ISI","","html-keyboard-response","469","522540","0.0-1.0-642.0","0","0","63243","","null","","","null","71","NaN","","","","","","","","","","","","","","",""
"","S2","","html-keyboard-response","470","522804","0.0-1.0-643.0","0","0","63243","","null","","","null","71","","NaN","","","","","","","","","","","","","",""
"","response","","html-keyboard-response","471","523654","0.0-1.0-644.0-0.0","0","0","63243","","849","","","68","71","","","2","71","training","adjacent","BC","2","3","Q.jpg","M.jpg","0","1","0","",""
"","feedback","","html-keyboard-response","472","524668","0.0-1.0-645.0-0.0","0","0","63243","","null","","","null","71","","","","","","","","","","","","","","","",""
"","time_out","","html-keyboard-response","473","526676","0.0-1.0-647.0-0.0","0","0","63243","","null","","","null","71","","","","","","","","","","","","","","","",""
"","ITI","","html-keyboard-response","474","527684","0.0-1.0-648.0","0","0","63243","","null","","","null","71","","","","","","","","","","","","","","","NaN",""
"","S1","","html-keyboard-response","475","527940","0.0-1.0-650.0","0","0","63243","","null","","","null","72","","","","","","","","","","","","","","","",""
"","ISI","","html-keyboard-response","476","528452","0.0-1.0-651.0","0","0","63243","","null","","","null","72","NaN","","","","","","","","","","","","","","",""
"","S2","","html-keyboard-response","477","528716","0.0-1.0-652.0","0","0","63243","","null","","","null","72","","NaN","","","","","","","","","","","","","",""
"","response","","html-keyboard-response","478","529300","0.0-1.0-653.0-0.0","0","0","63243","","581","","","75","72","","","2","72","training","adjacent","CD","3","4","M.jpg","P.jpg","1","1","1","",""
"","feedback","","html-keyboard-response","479","530308","0.0-1.0-654.0-0.0","0","0","63243","","null","","","null","72","","","","","","","","","","","","","","","",""
"","ITI","","html-keyboard-response","480","531316","0.0-1.0-657.0","0","0","63243","","null","","","null","72","","","","","","","","","","","","","","","NaN",""
"","S1","","html-keyboard-response","481","531572","0.0-1.0-659.0","0","0","63243","","null","","","null","73","","","","","","","","","","","","","","","",""
"","ISI","","html-keyboard-response","482","532084","0.0-1.0-660.0","0","0","63243","","null","","","null","73","NaN","","","","","","","","","","","","","","",""
"","S2","","html-keyboard-response","483","532349","0.0-1.0-661.0","0","0","63243","","null","","","null","73","","NaN","","","","","","","","","","","","","",""
"","response","","html-keyboard-response","484","533237","0.0-1.0-662.0-0.0","0","0","63243","","887","","","75","73","","","2","73","training","adjacent","GF","7","6","O.jpg","N.jpg","1","0","0","",""
"","feedback","","html-keyboard-response","485","534244","0.0-1.0-663.0-0.0","0","0","63243","","null","","","null","73","","","","","","","","","","","","","","","",""
"","time_out","","html-keyboard-response","486","536253","0.0-1.0-665.0-0.0","0","0","63243","","null","","","null","73","","","","","","","","","","","","","","","",""
"","ITI","","html-keyboard-response","487","537260","0.0-1.0-666.0","0","0","63243","","null","","","null","73","","","","","","","","","","","","","","","NaN",""
"","S1","","html-keyboard-response","488","537524","0.0-1.0-668.0","0","0","63243","","null","","","null","74","","","","","","","","","","","","","","","",""
"","ISI","","html-keyboard-response","489","538035","0.0-1.0-669.0","0","0","63243","","null","","","null","74","NaN","","","","","","","","","","","","","","",""
"","S2","","html-keyboard-response","490","538295","0.0-1.0-670.0","0","0","63243","","null","","","null","74","","NaN","","","","","","","","","","","","","",""
"","response","","html-keyboard-response","491","539524","0.0-1.0-671.0-0.0","0","0","63243","","1226","","","75","74","","","2","74","training","adjacent","BC","2","3","Q.jpg","M.jpg","1","1","1","",""
"","feedback","","html-keyboard-response","492","540531","0.0-1.0-672.0-0.0","0","0","63243","","null","","","null","74","","","","","","","","","","","","","","","",""
"","ITI","","html-keyboard-response","493","541540","0.0-1.0-675.0","0","0","63243","","null","","","null","74","","","","","","","","","","","","","","","NaN",""
"","S1","","html-keyboard-response","494","541805","0.0-1.0-677.0","0","0","63243","","null","","","null","75","","","","","","","","","","","","","","","",""
"","ISI","","html-keyboard-response","495","542315","0.0-1.0-678.0","0","0","63243","","null","","","null","75","NaN","","","","","","","","","","","","","","",""
"","S2","","html-keyboard-response","496","542572","0.0-1.0-679.0","0","0","63243","","null","","","null","75","","NaN","","","","","","","","","","","","","",""
"","response","","html-keyboard-response","497","543668","0.0-1.0-680.0-0.0","0","0","63243","","1094","","","68","75","","","2","75","training","adjacent","AB","1","2","L.jpg","Q.jpg","0","1","0","",""
"","feedback","","html-keyboard-response","498","544677","0.0-1.0-681.0-0.0","0","0","63243","","null","","","null","75","","","","","","","","","","","","","","","",""
"","time_out","","html-keyboard-response","499","546685","0.0-1.0-683.0-0.0","0","0","63243","","null","","","null","75","","","","","","","","","","","","","","","",""
"","ITI","","html-keyboard-response","500","547693","0.0-1.0-684.0","0","0","63243","","null","","","null","75","","","","","","","","","","","","","","","NaN",""
"","S1","","html-keyboard-response","501","547956","0.0-1.0-686.0","0","0","63243","","null","","","null","76","","","","","","","","","","","","","","","",""
"","ISI","","html-keyboard-response","502","548469","0.0-1.0-687.0","0","0","63243","","null","","","null","76","NaN","","","","","","","","","","","","","","",""
"","S2","","html-keyboard-response","503","548733","0.0-1.0-688.0","0","0","63243","","null","","","null","76","","NaN","","","","","","","","","","","","","",""
"","response","","html-keyboard-response","504","549179","0.0-1.0-689.0-0.0","0","0","63243","","444","","","75","76","","","2","76","training","adjacent","AB","1","2","L.jpg","Q.jpg","1","1","1","",""
"","feedback","","html-keyboard-response","505","550189","0.0-1.0-690.0-0.0","0","0","63243","","null","","","null","76","","","","","","","","","","","","","","","",""
"","ITI","","html-keyboard-response","506","551200","0.0-1.0-693.0","0","0","63243","","null","","","null","76","","","","","","","","","","","","","","","NaN",""
"","S1","","html-keyboard-response","507","551460","0.0-1.0-695.0","0","0","63243","","null","","","null","77","","","","","","","","","","","","","","","",""
"","ISI","","html-keyboard-response","508","551972","0.0-1.0-696.0","0","0","63243","","null","","","null","77","NaN","","","","","","","","","","","","","","",""
"","S2","","html-keyboard-response","509","552228","0.0-1.0-697.0","0","0","63243","","null","","","null","77","","NaN","","","","","","","","","","","","","",""
"","response","","html-keyboard-response","510","552748","0.0-1.0-698.0-0.0","0","0","63243","","518","","","75","77","","","2","77","training","adjacent","DC","4","3","P.jpg","M.jpg","1","0","0","",""
"","feedback","","html-keyboard-response","511","553754","0.0-1.0-699.0-0.0","0","0","63243","","null","","","null","77","","","","","","","","","","","","","","","",""
"","time_out","","html-keyboard-response","512","555757","0.0-1.0-701.0-0.0","0","0","63243","","null","","","null","77","","","","","","","","","","","","","","","",""
"","ITI","","html-keyboard-response","513","556765","0.0-1.0-702.0","0","0","63243","","null","","","null","77","","","","","","","","","","","","","","","NaN",""
"","S1","","html-keyboard-response","514","557029","0.0-1.0-704.0","0","0","63243","","null","","","null","78","","","","","","","","","","","","","","","",""
"","ISI","","html-keyboard-response","515","557540","0.0-1.0-705.0","0","0","63243","","null","","","null","78","NaN","","","","","","","","","","","","","","",""
"","S2","","html-keyboard-response","516","557797","0.0-1.0-706.0","0","0","63243","","null","","","null","78","","NaN","","","","","","","","","","","","","",""
"","response","","html-keyboard-response","517","559226","0.0-1.0-707.0-0.0","0","0","63243","","1428","","","75","78","","","2","78","training","adjacent","CB","3","2","M.jpg","Q.jpg","1","0","0","",""
"","feedback","","html-keyboard-response","518","560237","0.0-1.0-708.0-0.0","0","0","63243","","null","","","null","78","","","","","","","","","","","","","","","",""
"","time_out","","html-keyboard-response","519","562244","0.0-1.0-710.0-0.0","0","0","63243","","null","","","null","78","","","","","","","","","","","","","","","",""
"","ITI","","html-keyboard-response","520","563252","0.0-1.0-711.0","0","0","63243","","null","","","null","78","","","","","","","","","","","","","","","NaN",""
"","S1","","html-keyboard-response","521","563509","0.0-1.0-713.0","0","0","63243","","null","","","null","79","","","","","","","","","","","","","","","",""
"","ISI","","html-keyboard-response","522","564021","0.0-1.0-714.0","0","0","63243","","null","","","null","79","NaN","","","","","","","","","","","","","","",""
"","S2","","html-keyboard-response","523","564282","0.0-1.0-715.0","0","0","63243","","null","","","null","79","","NaN","","","","","","","","","","","","","",""
"","response","","html-keyboard-response","524","565350","0.0-1.0-716.0-0.0","0","0","63243","","1066","","","68","79","","","2","79","training","adjacent","BA","2","1","Q.jpg","L.jpg","0","0","1","",""
"","feedback","","html-keyboard-response","525","566357","0.0-1.0-717.0-0.0","0","0","63243","","null","","","null","79","","","","","","","","","","","","","","","",""
"","ITI","","html-keyboard-response","526","567365","0.0-1.0-720.0","0","0","63243","","null","","","null","79","","","","","","","","","","","","","","","NaN",""
"","S1","","html-keyboard-response","527","567629","0.0-1.0-722.0","0","0","63243","","null","","","null","80","","","","","","","","","","","","","","","",""
"","ISI","","html-keyboard-response","528","568141","0.0-1.0-723.0","0","0","63243","","null","","","null","80","NaN","","","","","","","","","","","","","","",""
"","S2","","html-keyboard-response","529","568405","0.0-1.0-724.0","0","0","63243","","null","","","null","80","","NaN","","","","","","","","","","","","","",""
"","response","","html-keyboard-response","530","568797","0.0-1.0-725.0-0.0","0","0","63243","","391","","","75","80","","","2","80","training","adjacent","DE","4","5","P.jpg","R.jpg","1","1","1","",""
"","feedback","","html-keyboard-response","531","569805","0.0-1.0-726.0-0.0","0","0","63243","","null","","","null","80","","","","","","","","","","","","","","","",""
"","ITI","","html-keyboard-response","532","570813","0.0-1.0-729.0","0","0","63243","","null","","","null","80","","","","","","","","","","","","","","","NaN",""
"","S1","","html-keyboard-response","533","571077","0.0-1.0-731.0","0","0","63243","","null","","","null","81","","","","","","","","","","","","","","","",""
"","ISI","","html-keyboard-response","534","571589","0.0-1.0-732.0","0","0","63243","","null","","","null","81","NaN","","","","","","","","","","","","","","",""
"","S2","","html-keyboard-response","535","571853","0.0-1.0-733.0","0","0","63243","","null","","","null","81","","NaN","","","","","","","","","","","","","",""
"","response","","html-keyboard-response","536","572301","0.0-1.0-734.0-0.0","0","0","63243","","446","","","68","81","","","2","81","training","adjacent","AB","1","2","L.jpg","Q.jpg","0","1","0","",""
"","feedback","","html-keyboard-response","537","573314","0.0-1.0-735.0-0.0","0","0","63243","","null","","","null","81","","","","","","","","","","","","","","","",""
"","time_out","","html-keyboard-response","538","575325","0.0-1.0-737.0-0.0","0","0","63243","","null","","","null","81","","","","","","","","","","","","","","","",""
"","ITI","","html-keyboard-response","539","576334","0.0-1.0-738.0","0","0","63243","","null","","","null","81","","","","","","","","","","","","","","","NaN",""
"","S1","","html-keyboard-response","540","576597","0.0-1.0-740.0","0","0","63243","","null","","","null","82","","","","","","","","","","","","","","","",""
"","ISI","","html-keyboard-response","541","577109","0.0-1.0-741.0","0","0","63243","","null","","","null","82","NaN","","","","","","","","","","","","","","",""
"","S2","","html-keyboard-response","542","577363","0.0-1.0-742.0","0","0","63243","","null","","","null","82","","NaN","","","","","","","","","","","","","",""
"","response","","html-keyboard-response","543","578150","0.0-1.0-743.0-0.0","0","0","63243","","784","","","68","82","","","2","82","training","adjacent","FG","6","7","N.jpg","O.jpg","0","1","0","",""
"","feedback","","html-keyboard-response","544","579157","0.0-1.0-744.0-0.0","0","0","63243","","null","","","null","82","","","","","","","","","","","","","","","",""
"","time_out","","html-keyboard-response","545","581165","0.0-1.0-746.0-0.0","0","0","63243","","null","","","null","82","","","","","","","","","","","","","","","",""
"","ITI","","html-keyboard-response","546","582168","0.0-1.0-747.0","0","0","63243","","null","","","null","82","","","","","","","","","","","","","","","NaN",""
"","S1","","html-keyboard-response","547","582430","0.0-1.0-749.0","0","0","63243","","null","","","null","83","","","","","","","","","","","","","","","",""
"","ISI","","html-keyboard-response","548","582942","0.0-1.0-750.0","0","0","63243","","null","","","null","83","NaN","","","","","","","","","","","","","","",""
"","S2","","html-keyboard-response","549","583205","0.0-1.0-751.0","0","0","63243","","null","","","null","83","","NaN","","","","","","","","","","","","","",""
"","response","","html-keyboard-response","550","583909","0.0-1.0-752.0-0.0","0","0","63243","","702","","","75","83","","","2","83","training","adjacent","FE","6","5","N.jpg","R.jpg","1","0","0","",""
"","feedback","","html-keyboard-response","551","584917","0.0-1.0-753.0-0.0","0","0","63243","","null","","","null","83","","","","","","","","","","","","","","","",""
"","time_out","","html-keyboard-response","552","586925","0.0-1.0-755.0-0.0","0","0","63243","","null","","","null","83","","","","","","","","","","","","","","","",""
"","ITI","","html-keyboard-response","553","587934","0.0-1.0-756.0","0","0","63243","","null","","","null","83","","","","","","","","","","","","","","","NaN",""
"","S1","","html-keyboard-response","554","588197","0.0-1.0-758.0","0","0","63243","","null","","","null","84","","","","","","","","","","","","","","","",""
"","ISI","","html-keyboard-response","555","588709","0.0-1.0-759.0","0","0","63243","","null","","","null","84","NaN","","","","","","","","","","","","","","",""
"","S2","","html-keyboard-response","556","588974","0.0-1.0-760.0","0","0","63243","","null","","","null","84","","NaN","","","","","","","","","","","","","",""
"","response","","html-keyboard-response","557","589741","0.0-1.0-761.0-0.0","0","0","63243","","765","","","68","84","","","2","84","training","adjacent","FE","6","5","N.jpg","R.jpg","0","0","1","",""
"","feedback","","html-keyboard-response","558","590750","0.0-1.0-762.0-0.0","0","0","63243","","null","","","null","84","","","","","","","","","","","","","","","",""
"","ITI","","html-keyboard-response","559","591758","0.0-1.0-765.0","0","0","63243","","null","","","null","84","","","","","","","","","","","","","","","NaN",""
"","S1","","html-keyboard-response","560","592021","0.0-1.0-767.0","0","0","63243","","null","","","null","85","","","","","","","","","","","","","","","",""
"","ISI","","html-keyboard-response","561","592533","0.0-1.0-768.0","0","0","63243","","null","","","null","85","NaN","","","","","","","","","","","","","","",""
"","S2","","html-keyboard-response","562","592789","0.0-1.0-769.0","0","0","63243","","null","","","null","85","","NaN","","","","","","","","","","","","","",""
"","response","","html-keyboard-response","563","593365","0.0-1.0-770.0-0.0","0","0","63243","","574","","","68","85","","","2","85","training","adjacent","GF","7","6","O.jpg","N.jpg","0","0","1","",""
"","feedback","","html-keyboard-response","564","594373","0.0-1.0-771.0-0.0","0","0","63243","","null","","","null","85","","","","","","","","","","","","","","","",""
"","ITI","","html-keyboard-response","565","595381","0.0-1.0-774.0","0","0","63243","","null","","","null","85","","","","","","","","","","","","","","","NaN",""
"","S1","","html-keyboard-response","566","595638","0.0-1.0-776.0","0","0","63243","","null","","","null","86","","","","","","","","","","","","","","","",""
"","ISI","","html-keyboard-response","567","596149","0.0-1.0-777.0","0","0","63243","","null","","","null","86","NaN","","","","","","","","","","","","","","",""
"","S2","","html-keyboard-response","568","596414","0.0-1.0-778.0","0","0","63243","","null","","","null","86","","NaN","","","","","","","","","","","","","",""
"","response","","html-keyboard-response","569","597357","0.0-1.0-779.0-0.0","0","0","63243","","941","","","68","86","","","2","86","training","adjacent","ED","5","4","R.jpg","P.jpg","0","0","1","",""
"","feedback","","html-keyboard-response","570","598366","0.0-1.0-780.0-0.0","0","0","63243","","null","","","null","86","","","","","","","","","","","","","","","",""
"","ITI","","html-keyboard-response","571","599374","0.0-1.0-783.0","0","0","63243","","null","","","null","86","","","","","","","","","","","","","","","NaN",""
"","S1","","html-keyboard-response","572","599638","0.0-1.0-785.0","0","0","63243","","null","","","null","87","","","","","","","","","","","","","","","",""
"","ISI","","html-keyboard-response","573","600150","0.0-1.0-786.0","0","0","63243","","null","","","null","87","NaN","","","","","","","","","","","","","","",""
"","S2","","html-keyboard-response","574","600418","0.0-1.0-787.0","0","0","63243","","null","","","null","87","","NaN","","","","","","","","","","","","","",""
"","response","","html-keyboard-response","575","601380","0.0-1.0-788.0-0.0","0","0","63243","","960","","","75","87","","","2","87","training","adjacent","EF","5","6","R.jpg","N.jpg","1","1","1","",""
"","feedback","","html-keyboard-response","576","602390","0.0-1.0-789.0-0.0","0","0","63243","","null","","","null","87","","","","","","","","","","","","","","","",""
"","ITI","","html-keyboard-response","577","603397","0.0-1.0-792.0","0","0","63243","","null","","","null","87","","","","","","","","","","","","","","","NaN",""
"","S1","","html-keyboard-response","578","603654","0.0-1.0-794.0","0","0","63243","","null","","","null","88","","","","","","","","","","","","","","","",""
"","ISI","","html-keyboard-response","579","604166","0.0-1.0-795.0","0","0","63243","","null","","","null","88","NaN","","","","","","","","","","","","","","",""
"","S2","","html-keyboard-response","580","604430","0.0-1.0-796.0","0","0","63243","","null","","","null","88","","NaN","","","","","","","","","","","","","",""
