"success","ttype","start_time","trial_type","trial_index","time_elapsed","internal_node_id","warning","missed_checkup","PID","view_history","rt","responses","repeat_instructions","key_press","index","keypress_isi","keypress_S2","block","trial_num","phase","group_type","pair_type","S1_stim","S2_stim","S1_img","S2_img","S1_chosen","S1_higher","accuracy","keypress_iti","total_bonus_tally"
"true","full_screen","d08052022hr1253","fullscreen","0","9190","0.0-0.0","0","0","92102","","","","","","","","","","","","","","","","","","","","","",""
"","instructions","","instructions","1","35386","0.0-1.0-0.0-0.0","0","0","92102","[{""page_index"":0,""viewing_time"":4942},{""page_index"":1,""viewing_time"":12219},{""page_index"":2,""viewing_time"":7521},{""page_index"":3,""viewing_time"":1507}]","26191","","","","","","","","","","","","","","","","","","","",""
"","comprehension_check","","survey-multi-choice","2","69715","0.0-1.0-0.0-1.0","0","0","92102","","34316","{""Q0"":""True"",""Q1"":""D"",""Q2"":""Only when the screen 'MAKE A CHOICE' is shown"",""Q3"":""Green mark"",""Q4"":""either D or K""}","1","","","","","","","","","","","","","","","","","",""
"","missed_instruction_checkup","","html-keyboard-response","3","71608","0.0-1.0-0.0-2.0-0.0","0","1","92102","","1884","","","32","","","","","","","","","","","","","","","","",""
"","instructions","","instructions","4","84066","0.0-1.0-0.1-0.1","0","0","92102","[{""page_index"":0,""viewing_time"":4248},{""page_index"":1,""viewing_time"":6043},{""page_index"":2,""viewing_time"":1322},{""page_index"":3,""viewing_time"":841}]","12454","","","","","","","","","","","","","","","","","","","",""
"","comprehension_check","","survey-multi-choice","5","92462","0.0-1.0-0.1-1.1","0","0","92102","","8383","{""Q0"":""True"",""Q1"":""D"",""Q2"":""Once the second image appears and while the screen 'MAKE A CHOICE' is shown"",""Q3"":""Green mark"",""Q4"":""either D or K""}","0","","","","","","","","","","","","","","","","","",""
"","start_exp","","html-keyboard-response","6","93606","0.0-1.0-1.0","0","0","92102","","1141","","","32","","","","","","","","","","","","","","","","",""
"","S1","","html-keyboard-response","7","93861","0.0-1.0-2.0","0","0","92102","","null","","","null","0","","","","","","","","","","","","","","","",""
"","ISI","","html-keyboard-response","8","95865","0.0-1.0-3.0","0","0","92102","","null","","","null","0","NaN","","","","","","","","","","","","","","",""
"","S2","","html-keyboard-response","9","96121","0.0-1.0-4.0","0","0","92102","","null","","","null","0","","NaN","","","","","","","","","","","","","",""
"","response","","html-keyboard-response","10","97304","0.0-1.0-5.0-0.0","0","0","92102","","1179","","","68","0","","","1","0","training","adjacent","DC","4","3","N.jpg","O.jpg","1","0","0","",""
"","feedback","","html-keyboard-response","11","98309","0.0-1.0-6.0-0.0","0","0","92102","","null","","","null","0","","","","","","","","","","","","","","","",""
"","time_out","","html-keyboard-response","12","100314","0.0-1.0-8.0-0.0","0","0","92102","","null","","","null","0","","","","","","","","","","","","","","","",""
"","ITI","","html-keyboard-response","13","101318","0.0-1.0-9.0","0","0","92102","","null","","","null","0","","","","","","","","","","","","","","","NaN",""
"","S1","","html-keyboard-response","14","101572","0.0-1.0-11.0","0","0","92102","","null","","","null","1","","","","","","","","","","","","","","","",""
"","ISI","","html-keyboard-response","15","103576","0.0-1.0-12.0","0","0","92102","","null","","","null","1","NaN","","","","","","","","","","","","","","",""
"","S2","","html-keyboard-response","16","103832","0.0-1.0-13.0","0","0","92102","","null","","","null","1","","NaN","","","","","","","","","","","","","",""
"","response","","html-keyboard-response","17","104762","0.0-1.0-14.0-0.0","0","0","92102","","926","","","68","1","","","1","1","training","adjacent","CD","3","4","O.jpg","N.jpg","1","1","1","",""
"","feedback","","html-keyboard-response","18","105766","0.0-1.0-15.0-0.0","0","0","92102","","null","","","null","1","","","","","","","","","","","","","","","",""
"","ITI","","html-keyboard-response","19","106770","0.0-1.0-18.0","0","0","92102","","null","","","null","1","","","","","","","","","","","","","","","NaN",""
"","S1","","html-keyboard-response","20","107024","0.0-1.0-20.0","0","0","92102","","null","","","null","2","","","","","","","","","","","","","","","",""
"","ISI","","html-keyboard-response","21","109028","0.0-1.0-21.0","0","0","92102","","null","","","null","2","NaN","","","","","","","","","","","","","","",""
"","S2","","html-keyboard-response","22","109283","0.0-1.0-22.0","0","0","92102","","null","","","null","2","","NaN","","","","","","","","","","","","","",""
"","response","","html-keyboard-response","23","109562","0.0-1.0-23.0-0.0","0","0","92102","","275","","","75","2","","","1","2","training","adjacent","EF","5","6","L.jpg","Q.jpg","0","1","0","",""
"","feedback","","html-keyboard-response","24","110567","0.0-1.0-24.0-0.0","0","0","92102","","null","","","null","2","","","","","","","","","","","","","","","",""
"","time_out","","html-keyboard-response","25","112570","0.0-1.0-26.0-0.0","0","0","92102","","null","","","null","2","","","","","","","","","","","","","","","",""
"","ITI","","html-keyboard-response","26","113574","0.0-1.0-27.0","0","0","92102","","null","","","null","2","","","","","","","","","","","","","","","NaN",""
"","S1","","html-keyboard-response","27","113827","0.0-1.0-29.0","0","0","92102","","null","","","null","3","","","","","","","","","","","","","","","",""
"","ISI","","html-keyboard-response","28","115831","0.0-1.0-30.0","0","0","92102","","null","","","null","3","NaN","","","","","","","","","","","","","","",""
"","S2","","html-keyboard-response","29","116085","0.0-1.0-31.0","0","0","92102","","null","","","null","3","","NaN","","","","","","","","","","","","","",""
"","response","","html-keyboard-response","30","116535","0.0-1.0-32.0-0.0","0","0","92102","","445","","","75","3","","","1","3","training","adjacent","CB","3","2","O.jpg","P.jpg","0","0","1","",""
"","feedback","","html-keyboard-response","31","117540","0.0-1.0-33.0-0.0","0","0","92102","","null","","","null","3","","","","","","","","","","","","","","","",""
"","ITI","","html-keyboard-response","32","118544","0.0-1.0-36.0","0","0","92102","","null","","","null","3","","","","","","","","","","","","","","","NaN",""
"","S1","","html-keyboard-response","33","118798","0.0-1.0-38.0","0","0","92102","","null","","","null","4","","","","","","","","","","","","","","","",""
"","ISI","","html-keyboard-response","34","120802","0.0-1.0-39.0","0","0","92102","","null","","","null","4","NaN","","","","","","","","","","","","","","",""
"","S2","","html-keyboard-response","35","121056","0.0-1.0-40.0","0","0","92102","","null","","","null","4","","NaN","","","","","","","","","","","","","",""
"","response","","html-keyboard-response","36","122016","0.0-1.0-41.0-0.0","0","0","92102","","956","","","68","4","","","1","4","training","adjacent","CD","3","4","O.jpg","N.jpg","1","1","1","",""
"","feedback","","html-keyboard-response","37","123021","0.0-1.0-42.0-0.0","0","0","92102","","null","","","null","4","","","","","","","","","","","","","","","",""
"","ITI","","html-keyboard-response","38","124026","0.0-1.0-45.0","0","0","92102","","null","","","null","4","","","","","","","","","","","","","","","NaN",""
"","S1","","html-keyboard-response","39","124280","0.0-1.0-47.0","0","0","92102","","null","","","null","5","","","","","","","","","","","","","","","",""
"","ISI","","html-keyboard-response","40","126284","0.0-1.0-48.0","0","0","92102","","null","","","null","5","NaN","","","","","","","","","","","","","","",""
"","S2","","html-keyboard-response","41","126538","0.0-1.0-49.0","0","0","92102","","null","","","null","5","","NaN","","","","","","","","","","","","","",""
"","response","","html-keyboard-response","42","127297","0.0-1.0-50.0-0.0","0","0","92102","","755","","","75","5","","","1","5","training","adjacent","FE","6","5","Q.jpg","L.jpg","0","0","1","",""
"","feedback","","html-keyboard-response","43","128303","0.0-1.0-51.0-0.0","0","0","92102","","null","","","null","5","","","","","","","","","","","","","","","",""
"","ITI","","html-keyboard-response","44","129305","0.0-1.0-54.0","0","0","92102","","null","","","null","5","","","","","","","","","","","","","","","NaN",""
"","S1","","html-keyboard-response","45","129558","0.0-1.0-56.0","0","0","92102","","null","","","null","6","","","","","","","","","","","","","","","",""
"","ISI","","html-keyboard-response","46","131564","0.0-1.0-57.0","0","0","92102","","null","","","null","6","NaN","","","","","","","","","","","","","","",""
"","S2","","html-keyboard-response","47","131819","0.0-1.0-58.0","0","0","92102","","null","","","null","6","","NaN","","","","","","","","","","","","","",""
"","response","","html-keyboard-response","48","132177","0.0-1.0-59.0-0.0","0","0","92102","","354","","","68","6","","","1","6","training","adjacent","BC","2","3","P.jpg","O.jpg","1","1","1","",""
"","feedback","","html-keyboard-response","49","133183","0.0-1.0-60.0-0.0","0","0","92102","","null","","","null","6","","","","","","","","","","","","","","","",""
"","ITI","","html-keyboard-response","50","134186","0.0-1.0-63.0","0","0","92102","","null","","","null","6","","","","","","","","","","","","","","","NaN",""
"","S1","","html-keyboard-response","51","134441","0.0-1.0-65.0","0","0","92102","","null","","","null","7","","","","","","","","","","","","","","","",""
"","ISI","","html-keyboard-response","52","136445","0.0-1.0-66.0","0","0","92102","","null","","","null","7","NaN","","","","","","","","","","","","","","",""
"","S2","","html-keyboard-response","53","136700","0.0-1.0-67.0","0","0","92102","","null","","","null","7","","NaN","","","","","","","","","","","","","",""
"","response","","html-keyboard-response","54","137167","0.0-1.0-68.0-0.0","0","0","92102","","463","","","75","7","","","1","7","training","adjacent","BA","2","1","P.jpg","R.jpg","0","0","1","",""
"","feedback","","html-keyboard-response","55","138171","0.0-1.0-69.0-0.0","0","0","92102","","null","","","null","7","","","","","","","","","","","","","","","",""
"","ITI","","html-keyboard-response","56","139175","0.0-1.0-72.0","0","0","92102","","null","","","null","7","","","","","","","","","","","","","","","NaN",""
"","S1","","html-keyboard-response","57","139429","0.0-1.0-74.0","0","0","92102","","null","","","null","8","","","","","","","","","","","","","","","",""
"","ISI","","html-keyboard-response","58","141433","0.0-1.0-75.0","0","0","92102","","null","","","null","8","NaN","","","","","","","","","","","","","","",""
"","S2","","html-keyboard-response","59","141689","0.0-1.0-76.0","0","0","92102","","null","","","null","8","","NaN","","","","","","","","","","","","","",""
"","response","","html-keyboard-response","60","142201","0.0-1.0-77.0-0.0","0","0","92102","","507","","","68","8","","","1","8","training","adjacent","GF","7","6","M.jpg","Q.jpg","1","0","0","",""
"","feedback","","html-keyboard-response","61","143205","0.0-1.0-78.0-0.0","0","0","92102","","null","","","null","8","","","","","","","","","","","","","","","",""
"","time_out","","html-keyboard-response","62","145209","0.0-1.0-80.0-0.0","0","0","92102","","null","","","null","8","","","","","","","","","","","","","","","",""
"","ITI","","html-keyboard-response","63","146213","0.0-1.0-81.0","0","0","92102","","null","","","null","8","","","","","","","","","","","","","","","NaN",""
"","S1","","html-keyboard-response","64","146468","0.0-1.0-83.0","0","0","92102","","null","","","null","9","","","","","","","","","","","","","","","",""
"","ISI","","html-keyboard-response","65","148472","0.0-1.0-84.0","0","0","92102","","null","","","null","9","NaN","","","","","","","","","","","","","","",""
"","S2","","html-keyboard-response","66","148726","0.0-1.0-85.0","0","0","92102","","null","","","null","9","","NaN","","","","","","","","","","","","","",""
"","response","","html-keyboard-response","67","148876","0.0-1.0-86.0-0.0","0","0","92102","","145","","","75","9","","","1","9","training","adjacent","CB","3","2","O.jpg","P.jpg","0","0","1","",""
"","feedback","","html-keyboard-response","68","149881","0.0-1.0-87.0-0.0","0","0","92102","","null","","","null","9","","","","","","","","","","","","","","","",""
"","ITI","","html-keyboard-response","69","150885","0.0-1.0-90.0","0","0","92102","","null","","","null","9","","","","","","","","","","","","","","","NaN",""
"","S1","","html-keyboard-response","70","151139","0.0-1.0-92.0","0","0","92102","","null","","","null","10","","","","","","","","","","","","","","","",""
"","ISI","","html-keyboard-response","71","153143","0.0-1.0-93.0","0","0","92102","","null","","","null","10","NaN","","","","","","","","","","","","","","",""
"","S2","","html-keyboard-response","72","153397","0.0-1.0-94.0","0","0","92102","","null","","","null","10","","NaN","","","","","","","","","","","","","",""
"","response","","html-keyboard-response","73","153815","0.0-1.0-95.0-0.0","0","0","92102","","414","","","68","10","","","1","10","training","adjacent","ED","5","4","L.jpg","N.jpg","1","0","0","",""
"","feedback","","html-keyboard-response","74","154818","0.0-1.0-96.0-0.0","0","0","92102","","null","","","null","10","","","","","","","","","","","","","","","",""
"","time_out","","html-keyboard-response","75","156820","0.0-1.0-98.0-0.0","0","0","92102","","null","","","null","10","","","","","","","","","","","","","","","",""
"","ITI","","html-keyboard-response","76","157822","0.0-1.0-99.0","0","0","92102","","null","","","null","10","","","","","","","","","","","","","","","NaN",""
"","S1","","html-keyboard-response","77","158076","0.0-1.0-101.0","0","0","92102","","null","","","null","11","","","","","","","","","","","","","","","",""
"","ISI","","html-keyboard-response","78","160079","0.0-1.0-102.0","0","0","92102","","null","","","null","11","NaN","","","","","","","","","","","","","","",""
"","S2","","html-keyboard-response","79","160334","0.0-1.0-103.0","0","0","92102","","null","","","null","11","","NaN","","","","","","","","","","","","","",""
"","response","","html-keyboard-response","80","160604","0.0-1.0-104.0-0.0","0","0","92102","","265","","","68","11","","","1","11","training","adjacent","AB","1","2","R.jpg","P.jpg","1","1","1","",""
"","feedback","","html-keyboard-response","81","161608","0.0-1.0-105.0-0.0","0","0","92102","","null","","","null","11","","","","","","","","","","","","","","","",""
"","ITI","","html-keyboard-response","82","162612","0.0-1.0-108.0","0","0","92102","","null","","","null","11","","","","","","","","","","","","","","","NaN",""
"","S1","","html-keyboard-response","83","162866","0.0-1.0-110.0","0","0","92102","","null","","","null","12","","","","","","","","","","","","","","","",""
"","ISI","","html-keyboard-response","84","164870","0.0-1.0-111.0","0","0","92102","","null","","","null","12","NaN","","","","","","","","","","","","","","",""
"","S2","","html-keyboard-response","85","165124","0.0-1.0-112.0","0","0","92102","","null","","","null","12","","NaN","","","","","","","","","","","","","",""
"","response","","html-keyboard-response","86","165875","0.0-1.0-113.0-0.0","0","0","92102","","747","","","68","12","","","1","12","training","adjacent","DC","4","3","N.jpg","O.jpg","1","0","0","",""
"","feedback","","html-keyboard-response","87","166880","0.0-1.0-114.0-0.0","0","0","92102","","null","","","null","12","","","","","","","","","","","","","","","",""
"","time_out","","html-keyboard-response","88","168884","0.0-1.0-116.0-0.0","0","0","92102","","null","","","null","12","","","","","","","","","","","","","","","",""
"","ITI","","html-keyboard-response","89","169889","0.0-1.0-117.0","0","0","92102","","null","","","null","12","","","","","","","","","","","","","","","NaN",""
"","S1","","html-keyboard-response","90","170144","0.0-1.0-119.0","0","0","92102","","null","","","null","13","","","","","","","","","","","","","","","",""
"","ISI","","html-keyboard-response","91","172148","0.0-1.0-120.0","0","0","92102","","null","","","null","13","NaN","","","","","","","","","","","","","","",""
"","S2","","html-keyboard-response","92","172403","0.0-1.0-121.0","0","0","92102","","null","","","null","13","","NaN","","","","","","","","","","","","","",""
"","response","","html-keyboard-response","93","173081","0.0-1.0-122.0-0.0","0","0","92102","","673","","","68","13","","","1","13","training","adjacent","EF","5","6","L.jpg","Q.jpg","1","1","1","",""
"","feedback","","html-keyboard-response","94","174084","0.0-1.0-123.0-0.0","0","0","92102","","null","","","null","13","","","","","","","","","","","","","","","",""
"","ITI","","html-keyboard-response","95","175089","0.0-1.0-126.0","0","0","92102","","null","","","null","13","","","","","","","","","","","","","","","NaN",""
"","S1","","html-keyboard-response","96","175343","0.0-1.0-128.0","0","0","92102","","null","","","null","14","","","","","","","","","","","","","","","",""
"","ISI","","html-keyboard-response","97","177347","0.0-1.0-129.0","0","0","92102","","null","","","null","14","NaN","","","","","","","","","","","","","","",""
"","S2","","html-keyboard-response","98","177601","0.0-1.0-130.0","0","0","92102","","null","","","null","14","","NaN","","","","","","","","","","","","","",""
"","response","","html-keyboard-response","99","178671","0.0-1.0-131.0-0.0","0","0","92102","","1066","","","68","14","","","1","14","training","adjacent","DC","4","3","N.jpg","O.jpg","1","0","0","",""
"","feedback","","html-keyboard-response","100","179675","0.0-1.0-132.0-0.0","0","0","92102","","null","","","null","14","","","","","","","","","","","","","","","",""
"","time_out","","html-keyboard-response","101","181678","0.0-1.0-134.0-0.0","0","0","92102","","null","","","null","14","","","","","","","","","","","","","","","",""
"","ITI","","html-keyboard-response","102","182682","0.0-1.0-135.0","0","0","92102","","null","","","null","14","","","","","","","","","","","","","","","NaN",""
"","S1","","html-keyboard-response","103","182937","0.0-1.0-137.0","0","0","92102","","null","","","null","15","","","","","","","","","","","","","","","",""
"","ISI","","html-keyboard-response","104","184941","0.0-1.0-138.0","0","0","92102","","null","","","null","15","NaN","","","","","","","","","","","","","","",""
"","S2","","html-keyboard-response","105","185195","0.0-1.0-139.0","0","0","92102","","null","","","null","15","","NaN","","","","","","","","","","","","","",""
"","response","","html-keyboard-response","106","185413","0.0-1.0-140.0-0.0","0","0","92102","","215","","","68","15","","","1","15","training","adjacent","DE","4","5","N.jpg","L.jpg","1","1","1","",""
"","feedback","","html-keyboard-response","107","186416","0.0-1.0-141.0-0.0","0","0","92102","","null","","","null","15","","","","","","","","","","","","","","","",""
"","ITI","","html-keyboard-response","108","187421","0.0-1.0-144.0","0","0","92102","","null","","","null","15","","","","","","","","","","","","","","","NaN",""
"","S1","","html-keyboard-response","109","187675","0.0-1.0-146.0","0","0","92102","","null","","","null","16","","","","","","","","","","","","","","","",""
"","ISI","","html-keyboard-response","110","189679","0.0-1.0-147.0","0","0","92102","","null","","","null","16","NaN","","","","","","","","","","","","","","",""
"","S2","","html-keyboard-response","111","189933","0.0-1.0-148.0","0","0","92102","","null","","","null","16","","NaN","","","","","","","","","","","","","",""
"","response","","html-keyboard-response","112","190430","0.0-1.0-149.0-0.0","0","0","92102","","493","","","75","16","","","1","16","training","adjacent","BA","2","1","P.jpg","R.jpg","0","0","1","",""
"","feedback","","html-keyboard-response","113","191435","0.0-1.0-150.0-0.0","0","0","92102","","null","","","null","16","","","","","","","","","","","","","","","",""
"","ITI","","html-keyboard-response","114","192439","0.0-1.0-153.0","0","0","92102","","null","","","null","16","","","","","","","","","","","","","","","NaN",""
"","S1","","html-keyboard-response","115","192693","0.0-1.0-155.0","0","0","92102","","null","","","null","17","","","","","","","","","","","","","","","",""
"","ISI","","html-keyboard-response","116","194697","0.0-1.0-156.0","0","0","92102","","null","","","null","17","NaN","","","","","","","","","","","","","","",""
"","S2","","html-keyboard-response","117","194951","0.0-1.0-157.0","0","0","92102","","null","","","null","17","","NaN","","","","","","","","","","","","","",""
"","response","","html-keyboard-response","118","195877","0.0-1.0-158.0-0.0","0","0","92102","","921","","","68","17","","","1","17","training","adjacent","EF","5","6","L.jpg","Q.jpg","1","1","1","",""
"","feedback","","html-keyboard-response","119","196881","0.0-1.0-159.0-0.0","0","0","92102","","null","","","null","17","","","","","","","","","","","","","","","",""
"","ITI","","html-keyboard-response","120","197885","0.0-1.0-162.0","0","0","92102","","null","","","null","17","","","","","","","","","","","","","","","NaN",""
"","S1","","html-keyboard-response","121","198139","0.0-1.0-164.0","0","0","92102","","null","","","null","18","","","","","","","","","","","","","","","",""
"","ISI","","html-keyboard-response","122","200143","0.0-1.0-165.0","0","0","92102","","null","","","null","18","NaN","","","","","","","","","","","","","","",""
"","S2","","html-keyboard-response","123","200398","0.0-1.0-166.0","0","0","92102","","null","","","null","18","","NaN","","","","","","","","","","","","","",""
"","response","","html-keyboard-response","124","200660","0.0-1.0-167.0-0.0","0","0","92102","","258","","","68","18","","","1","18","training","adjacent","GF","7","6","M.jpg","Q.jpg","1","0","0","",""
"","feedback","","html-keyboard-response","125","201665","0.0-1.0-168.0-0.0","0","0","92102","","null","","","null","18","","","","","","","","","","","","","","","",""
"","time_out","","html-keyboard-response","126","203669","0.0-1.0-170.0-0.0","0","0","92102","","null","","","null","18","","","","","","","","","","","","","","","",""
"","ITI","","html-keyboard-response","127","204673","0.0-1.0-171.0","0","0","92102","","null","","","null","18","","","","","","","","","","","","","","","NaN",""
"","S1","","html-keyboard-response","128","204926","0.0-1.0-173.0","0","0","92102","","null","","","null","19","","","","","","","","","","","","","","","",""
"","ISI","","html-keyboard-response","129","206931","0.0-1.0-174.0","0","0","92102","","null","","","null","19","NaN","","","","","","","","","","","","","","",""
"","S2","","html-keyboard-response","130","207186","0.0-1.0-175.0","0","0","92102","","null","","","null","19","","NaN","","","","","","","","","","","","","",""
"","response","","html-keyboard-response","131","208143","0.0-1.0-176.0-0.0","0","0","92102","","953","","","75","19","","","1","19","training","adjacent","BA","2","1","P.jpg","R.jpg","0","0","1","",""
"","feedback","","html-keyboard-response","132","209147","0.0-1.0-177.0-0.0","0","0","92102","","null","","","null","19","","","","","","","","","","","","","","","",""
"","ITI","","html-keyboard-response","133","210152","0.0-1.0-180.0","0","0","92102","","null","","","null","19","","","","","","","","","","","","","","","NaN",""
"","S1","","html-keyboard-response","134","210406","0.0-1.0-182.0","0","0","92102","","null","","","null","20","","","","","","","","","","","","","","","",""
"","ISI","","html-keyboard-response","135","212410","0.0-1.0-183.0","0","0","92102","","null","","","null","20","NaN","","","","","","","","","","","","","","",""
"","S2","","html-keyboard-response","136","212664","0.0-1.0-184.0","0","0","92102","","null","","","null","20","","NaN","","","","","","","","","","","","","",""
"","response","","html-keyboard-response","137","213806","0.0-1.0-185.0-0.0","0","0","92102","","1139","","","75","20","","","1","20","training","adjacent","CD","3","4","O.jpg","N.jpg","0","1","0","",""
"","feedback","","html-keyboard-response","138","214809","0.0-1.0-186.0-0.0","0","0","92102","","null","","","null","20","","","","","","","","","","","","","","","",""
"","time_out","","html-keyboard-response","139","216811","0.0-1.0-188.0-0.0","0","0","92102","","null","","","null","20","","","","","","","","","","","","","","","",""
"","ITI","","html-keyboard-response","140","217814","0.0-1.0-189.0","0","0","92102","","null","","","null","20","","","","","","","","","","","","","","","NaN",""
"","S1","","html-keyboard-response","141","218068","0.0-1.0-191.0","0","0","92102","","null","","","null","21","","","","","","","","","","","","","","","",""
"","ISI","","html-keyboard-response","142","220071","0.0-1.0-192.0","0","0","92102","","null","","","null","21","NaN","","","","","","","","","","","","","","",""
"","S2","","html-keyboard-response","143","220326","0.0-1.0-193.0","0","0","92102","","null","","","null","21","","NaN","","","","","","","","","","","","","",""
"","response","","html-keyboard-response","144","221076","0.0-1.0-194.0-0.0","0","0","92102","","746","","","68","21","","","1","21","training","adjacent","GF","7","6","M.jpg","Q.jpg","1","0","0","",""
"","feedback","","html-keyboard-response","145","222081","0.0-1.0-195.0-0.0","0","0","92102","","null","","","null","21","","","","","","","","","","","","","","","",""
"","time_out","","html-keyboard-response","146","224085","0.0-1.0-197.0-0.0","0","0","92102","","null","","","null","21","","","","","","","","","","","","","","","",""
"","ITI","","html-keyboard-response","147","225089","0.0-1.0-198.0","0","0","92102","","null","","","null","21","","","","","","","","","","","","","","","NaN",""
"","S1","","html-keyboard-response","148","225343","0.0-1.0-200.0","0","0","92102","","null","","","null","22","","","","","","","","","","","","","","","",""
"","ISI","","html-keyboard-response","149","227347","0.0-1.0-201.0","0","0","92102","","324","","","75","22","k","","","","","","","","","","","","","","",""
"","S2","","html-keyboard-response","150","227582","0.0-1.0-202.0","0","0","92102","","230","","","75","22","","k","1","22","training","adjacent","ED","5","4","L.jpg","N.jpg","0","0","1","",""
"","feedback","","html-keyboard-response","151","228587","0.0-1.0-204.0-0.0","0","0","92102","","null","","","null","22","","","","","","","","","","","","","","","",""
"","ITI","","html-keyboard-response","152","229591","0.0-1.0-207.0","0","0","92102","","null","","","null","22","","","","","","","","","","","","","","","NaN",""
"","S1","","html-keyboard-response","153","229844","0.0-1.0-209.0","0","0","92102","","null","","","null","23","","","","","","","","","","","","","","","",""
"","ISI","","html-keyboard-response","154","231847","0.0-1.0-210.0","0","0","92102","","null","","","null","23","NaN","","","","","","","","","","","","","","",""
"","S2","","html-keyboard-response","155","232102","0.0-1.0-211.0","0","0","92102","","null","","","null","23","","NaN","","","","","","","","","","","","","",""
"","response","","html-keyboard-response","156","232656","0.0-1.0-212.0-0.0","0","0","92102","","546","","","75","23","","","1","23","training","adjacent","ED","5","4","L.jpg","N.jpg","0","0","1","",""
"","feedback","","html-keyboard-response","157","233660","0.0-1.0-213.0-0.0","0","0","92102","","null","","","null","23","","","","","","","","","","","","","","","",""
"","ITI","","html-keyboard-response","158","234664","0.0-1.0-216.0","0","0","92102","","null","","","null","23","","","","","","","","","","","","","","","NaN",""
"","S1","","html-keyboard-response","159","234918","0.0-1.0-218.0","0","0","92102","","null","","","null","24","","","","","","","","","","","","","","","",""
"","ISI","","html-keyboard-response","160","236922","0.0-1.0-219.0","0","0","92102","","null","","","null","24","NaN","","","","","","","","","","","","","","",""
"","S2","","html-keyboard-response","161","237177","0.0-1.0-220.0","0","0","92102","","null","","","null","24","","NaN","","","","","","","","","","","","","",""
"","response","","html-keyboard-response","162","237545","0.0-1.0-221.0-0.0","0","0","92102","","364","","","68","24","","","1","24","training","adjacent","CB","3","2","O.jpg","P.jpg","1","0","0","",""
"","feedback","","html-keyboard-response","163","238550","0.0-1.0-222.0-0.0","0","0","92102","","null","","","null","24","","","","","","","","","","","","","","","",""
"","time_out","","html-keyboard-response","164","240554","0.0-1.0-224.0-0.0","0","0","92102","","null","","","null","24","","","","","","","","","","","","","","","",""
"","ITI","","html-keyboard-response","165","241558","0.0-1.0-225.0","0","0","92102","","null","","","null","24","","","","","","","","","","","","","","","NaN",""
"","S1","","html-keyboard-response","166","241813","0.0-1.0-227.0","0","0","92102","","null","","","null","25","","","","","","","","","","","","","","","",""
"","ISI","","html-keyboard-response","167","243815","0.0-1.0-228.0","0","0","92102","","null","","","null","25","NaN","","","","","","","","","","","","","","",""
"","S2","","html-keyboard-response","168","244069","0.0-1.0-229.0","0","0","92102","","null","","","null","25","","NaN","","","","","","","","","","","","","",""
"","response","","html-keyboard-response","169","244106","0.0-1.0-230.0-0.0","0","0","92102","","33","","","68","25","","","1","25","training","adjacent","BC","2","3","P.jpg","O.jpg","1","1","1","",""
"","feedback","","html-keyboard-response","170","245110","0.0-1.0-231.0-0.0","0","0","92102","","null","","","null","25","","","","","","","","","","","","","","","",""
"","ITI","","html-keyboard-response","171","246114","0.0-1.0-234.0","0","0","92102","","null","","","null","25","","","","","","","","","","","","","","","NaN",""
"","S1","","html-keyboard-response","172","246369","0.0-1.0-236.0","0","0","92102","","null","","","null","26","","","","","","","","","","","","","","","",""
"","ISI","","html-keyboard-response","173","248373","0.0-1.0-237.0","0","0","92102","","null","","","null","26","NaN","","","","","","","","","","","","","","",""
"","S2","","html-keyboard-response","174","248627","0.0-1.0-238.0","0","0","92102","","null","","","null","26","","NaN","","","","","","","","","","","","","",""
"","response","","html-keyboard-response","175","248637","0.0-1.0-239.0-0.0","0","0","92102","","8","","","68","26","","","1","26","training","adjacent","AB","1","2","R.jpg","P.jpg","1","1","1","",""
"","feedback","","html-keyboard-response","176","249641","0.0-1.0-240.0-0.0","0","0","92102","","null","","","null","26","","","","","","","","","","","","","","","",""
"","ITI","","html-keyboard-response","177","250645","0.0-1.0-243.0","0","0","92102","","null","","","null","26","","","","","","","","","","","","","","","NaN",""
"","S1","","html-keyboard-response","178","250900","0.0-1.0-245.0","0","0","92102","","null","","","null","27","","","","","","","","","","","","","","","",""
"","ISI","","html-keyboard-response","179","252903","0.0-1.0-246.0","0","0","92102","","null","","","null","27","NaN","","","","","","","","","","","","","","",""
"","S2","","html-keyboard-response","180","253157","0.0-1.0-247.0","0","0","92102","","null","","","null","27","","NaN","","","","","","","","","","","","","",""
"","response","","html-keyboard-response","181","253496","0.0-1.0-248.0-0.0","0","0","92102","","334","","","68","27","","","1","27","training","adjacent","FG","6","7","Q.jpg","M.jpg","1","1","1","",""
"","feedback","","html-keyboard-response","182","254500","0.0-1.0-249.0-0.0","0","0","92102","","null","","","null","27","","","","","","","","","","","","","","","",""
"","ITI","","html-keyboard-response","183","255504","0.0-1.0-252.0","0","0","92102","","null","","","null","27","","","","","","","","","","","","","","","NaN",""
"","S1","","html-keyboard-response","184","255758","0.0-1.0-254.0","0","0","92102","","null","","","null","28","","","","","","","","","","","","","","","",""
"","ISI","","html-keyboard-response","185","257762","0.0-1.0-255.0","0","0","92102","","null","","","null","28","NaN","","","","","","","","","","","","","","",""
"","S2","","html-keyboard-response","186","258017","0.0-1.0-256.0","0","0","92102","","null","","","null","28","","NaN","","","","","","","","","","","","","",""
"","response","","html-keyboard-response","187","258425","0.0-1.0-257.0-0.0","0","0","92102","","404","","","75","28","","","1","28","training","adjacent","FG","6","7","Q.jpg","M.jpg","0","1","0","",""
"","feedback","","html-keyboard-response","188","259429","0.0-1.0-258.0-0.0","0","0","92102","","null","","","null","28","","","","","","","","","","","","","","","",""
"","time_out","","html-keyboard-response","189","261433","0.0-1.0-260.0-0.0","0","0","92102","","null","","","null","28","","","","","","","","","","","","","","","",""
"","ITI","","html-keyboard-response","190","262437","0.0-1.0-261.0","0","0","92102","","null","","","null","28","","","","","","","","","","","","","","","NaN",""
"","S1","","html-keyboard-response","191","262691","0.0-1.0-263.0","0","0","92102","","null","","","null","29","","","","","","","","","","","","","","","",""
"","ISI","","html-keyboard-response","192","264695","0.0-1.0-264.0","0","0","92102","","null","","","null","29","NaN","","","","","","","","","","","","","","",""
"","S2","","html-keyboard-response","193","264950","0.0-1.0-265.0","0","0","92102","","null","","","null","29","","NaN","","","","","","","","","","","","","",""
"","response","","html-keyboard-response","194","265211","0.0-1.0-266.0-0.0","0","0","92102","","257","","","68","29","","","1","29","training","adjacent","EF","5","6","L.jpg","Q.jpg","1","1","1","",""
"","feedback","","html-keyboard-response","195","266215","0.0-1.0-267.0-0.0","0","0","92102","","null","","","null","29","","","","","","","","","","","","","","","",""
"","ITI","","html-keyboard-response","196","267220","0.0-1.0-270.0","0","0","92102","","null","","","null","29","","","","","","","","","","","","","","","NaN",""
"","S1","","html-keyboard-response","197","267474","0.0-1.0-272.0","0","0","92102","","null","","","null","30","","","","","","","","","","","","","","","",""
"","ISI","","html-keyboard-response","198","269478","0.0-1.0-273.0","0","0","92102","","null","","","null","30","NaN","","","","","","","","","","","","","","",""
"","S2","","html-keyboard-response","199","269733","0.0-1.0-274.0","0","0","92102","","null","","","null","30","","NaN","","","","","","","","","","","","","",""
"","response","","html-keyboard-response","200","269960","0.0-1.0-275.0-0.0","0","0","92102","","222","","","68","30","","","1","30","training","adjacent","BA","2","1","P.jpg","R.jpg","1","0","0","",""
"","feedback","","html-keyboard-response","201","270965","0.0-1.0-276.0-0.0","0","0","92102","","null","","","null","30","","","","","","","","","","","","","","","",""
"","time_out","","html-keyboard-response","202","272970","0.0-1.0-278.0-0.0","0","0","92102","","null","","","null","30","","","","","","","","","","","","","","","",""
"","ITI","","html-keyboard-response","203","273974","0.0-1.0-279.0","0","0","92102","","null","","","null","30","","","","","","","","","","","","","","","NaN",""
"","S1","","html-keyboard-response","204","274228","0.0-1.0-281.0","0","0","92102","","null","","","null","31","","","","","","","","","","","","","","","",""
"","ISI","","html-keyboard-response","205","276232","0.0-1.0-282.0","0","0","92102","","null","","","null","31","NaN","","","","","","","","","","","","","","",""
"","S2","","html-keyboard-response","206","276486","0.0-1.0-283.0","0","0","92102","","null","","","null","31","","NaN","","","","","","","","","","","","","",""
"","response","","html-keyboard-response","207","276605","0.0-1.0-284.0-0.0","0","0","92102","","115","","","75","31","","","1","31","training","adjacent","FG","6","7","Q.jpg","M.jpg","0","1","0","",""
"","feedback","","html-keyboard-response","208","277610","0.0-1.0-285.0-0.0","0","0","92102","","null","","","null","31","","","","","","","","","","","","","","","",""
"","time_out","","html-keyboard-response","209","279614","0.0-1.0-287.0-0.0","0","0","92102","","null","","","null","31","","","","","","","","","","","","","","","",""
"","ITI","","html-keyboard-response","210","280618","0.0-1.0-288.0","0","0","92102","","null","","","null","31","","","","","","","","","","","","","","","NaN",""
"","S1","","html-keyboard-response","211","280872","0.0-1.0-290.0","0","0","92102","","null","","","null","32","","","","","","","","","","","","","","","",""
"","ISI","","html-keyboard-response","212","282876","0.0-1.0-291.0","0","0","92102","","null","","","null","32","NaN","","","","","","","","","","","","","","",""
"","S2","","html-keyboard-response","213","283131","0.0-1.0-292.0","0","0","92102","","null","","","null","32","","NaN","","","","","","","","","","","","","",""
"","response","","html-keyboard-response","214","283678","0.0-1.0-293.0-0.0","0","0","92102","","543","","","75","32","","","1","32","training","adjacent","CD","3","4","O.jpg","N.jpg","0","1","0","",""
"","feedback","","html-keyboard-response","215","284683","0.0-1.0-294.0-0.0","0","0","92102","","null","","","null","32","","","","","","","","","","","","","","","",""
"","time_out","","html-keyboard-response","216","286687","0.0-1.0-296.0-0.0","0","0","92102","","null","","","null","32","","","","","","","","","","","","","","","",""
"","ITI","","html-keyboard-response","217","287692","0.0-1.0-297.0","0","0","92102","","null","","","null","32","","","","","","","","","","","","","","","NaN",""
"","S1","","html-keyboard-response","218","287946","0.0-1.0-299.0","0","0","92102","","null","","","null","33","","","","","","","","","","","","","","","",""
"","ISI","","html-keyboard-response","219","289950","0.0-1.0-300.0","0","0","92102","","483","","","75","33","k","","","","","","","","","","","","","","",""
"","S2","","html-keyboard-response","220","290204","0.0-1.0-301.0","0","0","92102","","null","","","null","33","","NaN","","","","","","","","","","","","","",""
"","response","","html-keyboard-response","221","290237","0.0-1.0-302.0-0.0","0","0","92102","","29","","","75","33","","","1","33","training","adjacent","BC","2","3","P.jpg","O.jpg","0","1","0","",""
"","feedback","","html-keyboard-response","222","291243","0.0-1.0-303.0-0.0","0","0","92102","","null","","","null","33","","","","","","","","","","","","","","","",""
"","time_out","","html-keyboard-response","223","293247","0.0-1.0-305.0-0.0","0","0","92102","","null","","","null","33","","","","","","","","","","","","","","","",""
"","ITI","","html-keyboard-response","224","294251","0.0-1.0-306.0","0","0","92102","","null","","","null","33","","","","","","","","","","","","","","","NaN",""
"","S1","","html-keyboard-response","225","294505","0.0-1.0-308.0","0","0","92102","","null","","","null","34","","","","","","","","","","","","","","","",""
"","ISI","","html-keyboard-response","226","296510","0.0-1.0-309.0","0","0","92102","","null","","","null","34","NaN","","","","","","","","","","","","","","",""
"","S2","","html-keyboard-response","227","296764","0.0-1.0-310.0","0","0","92102","","null","","","null","34","","NaN","","","","","","","","","","","","","",""
"","response","","html-keyboard-response","228","296911","0.0-1.0-311.0-0.0","0","0","92102","","141","","","68","34","","","1","34","training","adjacent","BC","2","3","P.jpg","O.jpg","1","1","1","",""
"","feedback","","html-keyboard-response","229","297915","0.0-1.0-312.0-0.0","0","0","92102","","null","","","null","34","","","","","","","","","","","","","","","",""
"","ITI","","html-keyboard-response","230","298919","0.0-1.0-315.0","0","0","92102","","null","","","null","34","","","","","","","","","","","","","","","NaN",""
"","S1","","html-keyboard-response","231","299173","0.0-1.0-317.0","0","0","92102","","null","","","null","35","","","","","","","","","","","","","","","",""
"","ISI","","html-keyboard-response","232","301178","0.0-1.0-318.0","0","0","92102","","null","","","null","35","NaN","","","","","","","","","","","","","","",""
"","S2","","html-keyboard-response","233","301433","0.0-1.0-319.0","0","0","92102","","null","","","null","35","","NaN","","","","","","","","","","","","","",""
"","response","","html-keyboard-response","234","301591","0.0-1.0-320.0-0.0","0","0","92102","","155","","","75","35","","","1","35","training","adjacent","FE","6","5","Q.jpg","L.jpg","0","0","1","",""
"","feedback","","html-keyboard-response","235","302597","0.0-1.0-321.0-0.0","0","0","92102","","null","","","null","35","","","","","","","","","","","","","","","",""
"","ITI","","html-keyboard-response","236","303602","0.0-1.0-324.0","0","0","92102","","null","","","null","35","","","","","","","","","","","","","","","NaN",""
"","S1","","html-keyboard-response","237","303856","0.0-1.0-326.0","0","0","92102","","null","","","null","36","","","","","","","","","","","","","","","",""
"","ISI","","html-keyboard-response","238","305859","0.0-1.0-327.0","0","0","92102","","null","","","null","36","NaN","","","","","","","","","","","","","","",""
"","S2","","html-keyboard-response","239","306113","0.0-1.0-328.0","0","0","92102","","null","","","null","36","","NaN","","","","","","","","","","","","","",""
"","response","","html-keyboard-response","240","306488","0.0-1.0-329.0-0.0","0","0","92102","","373","","","68","36","","","1","36","training","adjacent","DE","4","5","N.jpg","L.jpg","1","1","1","",""
"","feedback","","html-keyboard-response","241","307492","0.0-1.0-330.0-0.0","0","0","92102","","null","","","null","36","","","","","","","","","","","","","","","",""
"","ITI","","html-keyboard-response","242","308496","0.0-1.0-333.0","0","0","92102","","null","","","null","36","","","","","","","","","","","","","","","NaN",""
"","S1","","html-keyboard-response","243","308751","0.0-1.0-335.0","0","0","92102","","null","","","null","37","","","","","","","","","","","","","","","",""
"","ISI","","html-keyboard-response","244","310753","0.0-1.0-336.0","0","0","92102","","null","","","null","37","NaN","","","","","","","","","","","","","","",""
"","S2","","html-keyboard-response","245","311007","0.0-1.0-337.0","0","0","92102","","null","","","null","37","","NaN","","","","","","","","","","","","","",""
"","response","","html-keyboard-response","246","311278","0.0-1.0-338.0-0.0","0","0","92102","","268","","","68","37","","","1","37","training","adjacent","DE","4","5","N.jpg","L.jpg","1","1","1","",""
"","feedback","","html-keyboard-response","247","312283","0.0-1.0-339.0-0.0","0","0","92102","","null","","","null","37","","","","","","","","","","","","","","","",""
"","ITI","","html-keyboard-response","248","313288","0.0-1.0-342.0","0","0","92102","","null","","","null","37","","","","","","","","","","","","","","","NaN",""
"","S1","","html-keyboard-response","249","313542","0.0-1.0-344.0","0","0","92102","","null","","","null","38","","","","","","","","","","","","","","","",""
"","ISI","","html-keyboard-response","250","315546","0.0-1.0-345.0","0","0","92102","","null","","","null","38","NaN","","","","","","","","","","","","","","",""
"","S2","","html-keyboard-response","251","315804","0.0-1.0-346.0","0","0","92102","","null","","","null","38","","NaN","","","","","","","","","","","","","",""
"","response","","html-keyboard-response","252","316230","0.0-1.0-347.0-0.0","0","0","92102","","421","","","68","38","","","1","38","training","adjacent","ED","5","4","L.jpg","N.jpg","1","0","0","",""
"","feedback","","html-keyboard-response","253","317234","0.0-1.0-348.0-0.0","0","0","92102","","null","","","null","38","","","","","","","","","","","","","","","",""
"","time_out","","html-keyboard-response","254","319238","0.0-1.0-350.0-0.0","0","0","92102","","null","","","null","38","","","","","","","","","","","","","","","",""
"","ITI","","html-keyboard-response","255","320242","0.0-1.0-351.0","0","0","92102","","null","","","null","38","","","","","","","","","","","","","","","NaN",""
"","S1","","html-keyboard-response","256","320496","0.0-1.0-353.0","0","0","92102","","null","","","null","39","","","","","","","","","","","","","","","",""
"","ISI","","html-keyboard-response","257","322500","0.0-1.0-354.0","0","0","92102","","470","","","75","39","k","","","","","","","","","","","","","","",""
"","S2","","html-keyboard-response","258","322756","0.0-1.0-355.0","0","0","92102","","null","","","null","39","","NaN","","","","","","","","","","","","","",""
"","response","","html-keyboard-response","259","323168","0.0-1.0-356.0-0.0","0","0","92102","","408","","","75","39","","","1","39","training","adjacent","FE","6","5","Q.jpg","L.jpg","0","0","1","",""
"","feedback","","html-keyboard-response","260","324173","0.0-1.0-357.0-0.0","0","0","92102","","null","","","null","39","","","","","","","","","","","","","","","",""
"","ITI","","html-keyboard-response","261","325179","0.0-1.0-360.0","0","0","92102","","null","","","null","39","","","","","","","","","","","","","","","NaN",""
"","S1","","html-keyboard-response","262","325434","0.0-1.0-362.0","0","0","92102","","null","","","null","40","","","","","","","","","","","","","","","",""
"","ISI","","html-keyboard-response","263","327438","0.0-1.0-363.0","0","0","92102","","null","","","null","40","NaN","","","","","","","","","","","","","","",""
"","S2","","html-keyboard-response","264","327692","0.0-1.0-364.0","0","0","92102","","null","","","null","40","","NaN","","","","","","","","","","","","","",""
"","response","","html-keyboard-response","265","327947","0.0-1.0-365.0-0.0","0","0","92102","","246","","","75","40","","","1","40","training","adjacent","DE","4","5","N.jpg","L.jpg","0","1","0","",""
"","feedback","","html-keyboard-response","266","328952","0.0-1.0-366.0-0.0","0","0","92102","","null","","","null","40","","","","","","","","","","","","","","","",""
"","time_out","","html-keyboard-response","267","330957","0.0-1.0-368.0-0.0","0","0","92102","","null","","","null","40","","","","","","","","","","","","","","","",""
"","ITI","","html-keyboard-response","268","331962","0.0-1.0-369.0","0","0","92102","","null","","","null","40","","","","","","","","","","","","","","","NaN",""
"","S1","","html-keyboard-response","269","332216","0.0-1.0-371.0","0","0","92102","","null","","","null","41","","","","","","","","","","","","","","","",""
"","ISI","","html-keyboard-response","270","334220","0.0-1.0-372.0","0","0","92102","","null","","","null","41","NaN","","","","","","","","","","","","","","",""
"","S2","","html-keyboard-response","271","334475","0.0-1.0-373.0","0","0","92102","","null","","","null","41","","NaN","","","","","","","","","","","","","",""
"","response","","html-keyboard-response","272","335029","0.0-1.0-374.0-0.0","0","0","92102","","550","","","68","41","","","1","41","training","adjacent","DC","4","3","N.jpg","O.jpg","1","0","0","",""
"","feedback","","html-keyboard-response","273","336034","0.0-1.0-375.0-0.0","0","0","92102","","null","","","null","41","","","","","","","","","","","","","","","",""
"","time_out","","html-keyboard-response","274","338038","0.0-1.0-377.0-0.0","0","0","92102","","null","","","null","41","","","","","","","","","","","","","","","",""
"","ITI","","html-keyboard-response","275","339042","0.0-1.0-378.0","0","0","92102","","null","","","null","41","","","","","","","","","","","","","","","NaN",""
"","S1","","html-keyboard-response","276","339297","0.0-1.0-380.0","0","0","92102","","null","","","null","42","","","","","","","","","","","","","","","",""
"","ISI","","html-keyboard-response","277","341301","0.0-1.0-381.0","0","0","92102","","null","","","null","42","NaN","","","","","","","","","","","","","","",""
"","S2","","html-keyboard-response","278","341555","0.0-1.0-382.0","0","0","92102","","null","","","null","42","","NaN","","","","","","","","","","","","","",""
"","response","","html-keyboard-response","279","342108","0.0-1.0-383.0-0.0","0","0","92102","","549","","","68","42","","","1","42","training","adjacent","GF","7","6","M.jpg","Q.jpg","1","0","0","",""
"","feedback","","html-keyboard-response","280","343113","0.0-1.0-384.0-0.0","0","0","92102","","null","","","null","42","","","","","","","","","","","","","","","",""
"","time_out","","html-keyboard-response","281","345117","0.0-1.0-386.0-0.0","0","0","92102","","null","","","null","42","","","","","","","","","","","","","","","",""
"","ITI","","html-keyboard-response","282","346121","0.0-1.0-387.0","0","0","92102","","null","","","null","42","","","","","","","","","","","","","","","NaN",""
"","S1","","html-keyboard-response","283","346376","0.0-1.0-389.0","0","0","92102","","null","","","null","43","","","","","","","","","","","","","","","",""
"","ISI","","html-keyboard-response","284","348380","0.0-1.0-390.0","0","0","92102","","null","","","null","43","NaN","","","","","","","","","","","","","","",""
"","S2","","html-keyboard-response","285","348634","0.0-1.0-391.0","0","0","92102","","null","","","null","43","","NaN","","","","","","","","","","","","","",""
"","response","","html-keyboard-response","286","348747","0.0-1.0-392.0-0.0","0","0","92102","","108","","","75","43","","","1","43","training","adjacent","FG","6","7","Q.jpg","M.jpg","0","1","0","",""
"","feedback","","html-keyboard-response","287","349751","0.0-1.0-393.0-0.0","0","0","92102","","null","","","null","43","","","","","","","","","","","","","","","",""
"","time_out","","html-keyboard-response","288","351756","0.0-1.0-395.0-0.0","0","0","92102","","null","","","null","43","","","","","","","","","","","","","","","",""
"","ITI","","html-keyboard-response","289","352760","0.0-1.0-396.0","0","0","92102","","null","","","null","43","","","","","","","","","","","","","","","NaN",""
"","S1","","html-keyboard-response","290","353014","0.0-1.0-398.0","0","0","92102","","null","","","null","44","","","","","","","","","","","","","","","",""
"","ISI","","html-keyboard-response","291","355018","0.0-1.0-399.0","0","0","92102","","null","","","null","44","NaN","","","","","","","","","","","","","","",""
"","S2","","html-keyboard-response","292","355273","0.0-1.0-400.0","0","0","92102","","null","","","null","44","","NaN","","","","","","","","","","","","","",""
"","response","","html-keyboard-response","293","355618","0.0-1.0-401.0-0.0","0","0","92102","","342","","","68","44","","","1","44","training","adjacent","AB","1","2","R.jpg","P.jpg","1","1","1","",""
"","feedback","","html-keyboard-response","294","356623","0.0-1.0-402.0-0.0","0","0","92102","","null","","","null","44","","","","","","","","","","","","","","","",""
"","ITI","","html-keyboard-response","295","357626","0.0-1.0-405.0","0","0","92102","","null","","","null","44","","","","","","","","","","","","","","","NaN",""
"","S1","","html-keyboard-response","296","357881","0.0-1.0-407.0","0","0","92102","","null","","","null","45","","","","","","","","","","","","","","","",""
"","ISI","","html-keyboard-response","297","359885","0.0-1.0-408.0","0","0","92102","","null","","","null","45","NaN","","","","","","","","","","","","","","",""
"","S2","","html-keyboard-response","298","360140","0.0-1.0-409.0","0","0","92102","","null","","","null","45","","NaN","","","","","","","","","","","","","",""
"","response","","html-keyboard-response","299","360914","0.0-1.0-410.0-0.0","0","0","92102","","768","","","75","45","","","1","45","training","adjacent","CB","3","2","O.jpg","P.jpg","0","0","1","",""
"","feedback","","html-keyboard-response","300","361918","0.0-1.0-411.0-0.0","0","0","92102","","null","","","null","45","","","","","","","","","","","","","","","",""
"","ITI","","html-keyboard-response","301","362923","0.0-1.0-414.0","0","0","92102","","null","","","null","45","","","","","","","","","","","","","","","NaN",""
"","S1","","html-keyboard-response","302","363177","0.0-1.0-416.0","0","0","92102","","null","","","null","46","","","","","","","","","","","","","","","",""
"","ISI","","html-keyboard-response","303","365181","0.0-1.0-417.0","0","0","92102","","null","","","null","46","NaN","","","","","","","","","","","","","","",""
"","S2","","html-keyboard-response","304","365435","0.0-1.0-418.0","0","0","92102","","null","","","null","46","","NaN","","","","","","","","","","","","","",""
"","response","","html-keyboard-response","305","365951","0.0-1.0-419.0-0.0","0","0","92102","","512","","","68","46","","","1","46","training","adjacent","AB","1","2","R.jpg","P.jpg","1","1","1","",""
"","feedback","","html-keyboard-response","306","366957","0.0-1.0-420.0-0.0","0","0","92102","","null","","","null","46","","","","","","","","","","","","","","","",""
"","ITI","","html-keyboard-response","307","367962","0.0-1.0-423.0","0","0","92102","","null","","","null","46","","","","","","","","","","","","","","","NaN",""
"","S1","","html-keyboard-response","308","368217","0.0-1.0-425.0","0","0","92102","","null","","","null","47","","","","","","","","","","","","","","","",""
"","ISI","","html-keyboard-response","309","370221","0.0-1.0-426.0","0","0","92102","","null","","","null","47","NaN","","","","","","","","","","","","","","",""
"","S2","","html-keyboard-response","310","370476","0.0-1.0-427.0","0","0","92102","","null","","","null","47","","NaN","","","","","","","","","","","","","",""
"","response","","html-keyboard-response","311","371044","0.0-1.0-428.0-0.0","0","0","92102","","564","","","75","47","","","1","47","training","adjacent","FE","6","5","Q.jpg","L.jpg","0","0","1","",""
"","feedback","","html-keyboard-response","312","372048","0.0-1.0-429.0-0.0","0","0","92102","","null","","","null","47","","","","","","","","","","","","","","","",""
"","ITI","","html-keyboard-response","313","373052","0.0-1.0-432.0","0","0","92102","","null","","","null","47","","","","","","","","","","","","","","","NaN",""
"","block_over","","html-keyboard-response","314","475155","0.0-1.0-433.0-0.0","0","0","92102","","102096","","","32","47","","","","","","","","","","","","","","","",""
"","S1","","html-keyboard-response","315","475409","0.0-1.0-434.0","0","0","92102","","null","","","null","48","","","","","","","","","","","","","","","",""
"","ISI","","html-keyboard-response","316","477413","0.0-1.0-435.0","0","0","92102","","null","","","null","48","NaN","","","","","","","","","","","","","","",""
"","S2","","html-keyboard-response","317","477668","0.0-1.0-436.0","0","0","92102","","null","","","null","48","","NaN","","","","","","","","","","","","","",""
"","response","","html-keyboard-response","318","478428","0.0-1.0-437.0-0.0","0","0","92102","","756","","","68","48","","","2","48","training","adjacent","EF","5","6","L.jpg","Q.jpg","1","1","1","",""
"","feedback","","html-keyboard-response","319","479432","0.0-1.0-438.0-0.0","0","0","92102","","null","","","null","48","","","","","","","","","","","","","","","",""
"","ITI","","html-keyboard-response","320","480436","0.0-1.0-441.0","0","0","92102","","null","","","null","48","","","","","","","","","","","","","","","NaN",""
"","S1","","html-keyboard-response","321","480690","0.0-1.0-443.0","0","0","92102","","null","","","null","49","","","","","","","","","","","","","","","",""
"","ISI","","html-keyboard-response","322","482694","0.0-1.0-444.0","0","0","92102","","null","","","null","49","NaN","","","","","","","","","","","","","","",""
"","S2","","html-keyboard-response","323","482948","0.0-1.0-445.0","0","0","92102","","null","","","null","49","","NaN","","","","","","","","","","","","","",""
"","response","","html-keyboard-response","324","483718","0.0-1.0-446.0-0.0","0","0","92102","","766","","","75","49","","","2","49","training","adjacent","FE","6","5","Q.jpg","L.jpg","0","0","1","",""
"","feedback","","html-keyboard-response","325","484722","0.0-1.0-447.0-0.0","0","0","92102","","null","","","null","49","","","","","","","","","","","","","","","",""
"","ITI","","html-keyboard-response","326","485727","0.0-1.0-450.0","0","0","92102","","null","","","null","49","","","","","","","","","","","","","","","NaN",""
"","S1","","html-keyboard-response","327","485980","0.0-1.0-452.0","0","0","92102","","null","","","null","50","","","","","","","","","","","","","","","",""
"","ISI","","html-keyboard-response","328","487983","0.0-1.0-453.0","0","0","92102","","null","","","null","50","NaN","","","","","","","","","","","","","","",""
"","S2","","html-keyboard-response","329","488238","0.0-1.0-454.0","0","0","92102","","null","","","null","50","","NaN","","","","","","","","","","","","","",""
"","response","","html-keyboard-response","330","488793","0.0-1.0-455.0-0.0","0","0","92102","","551","","","75","50","","","2","50","training","adjacent","DE","4","5","N.jpg","L.jpg","0","1","0","",""
"","feedback","","html-keyboard-response","331","489797","0.0-1.0-456.0-0.0","0","0","92102","","null","","","null","50","","","","","","","","","","","","","","","",""
"","time_out","","html-keyboard-response","332","491801","0.0-1.0-458.0-0.0","0","0","92102","","null","","","null","50","","","","","","","","","","","","","","","",""
"","ITI","","html-keyboard-response","333","492805","0.0-1.0-459.0","0","0","92102","","null","","","null","50","","","","","","","","","","","","","","","NaN",""
"","S1","","html-keyboard-response","334","493058","0.0-1.0-461.0","0","0","92102","","null","","","null","51","","","","","","","","","","","","","","","",""
"","ISI","","html-keyboard-response","335","495062","0.0-1.0-462.0","0","0","92102","","1354","","","75","51","k","","","","","","","","","","","","","","",""
"","S2","","html-keyboard-response","336","495316","0.0-1.0-463.0","0","0","92102","","null","","","null","51","","NaN","","","","","","","","","","","","","",""
"","response","","html-keyboard-response","337","495625","0.0-1.0-464.0-0.0","0","0","92102","","305","","","68","51","","","2","51","training","adjacent","BC","2","3","P.jpg","O.jpg","1","1","1","",""
"","feedback","","html-keyboard-response","338","496630","0.0-1.0-465.0-0.0","0","0","92102","","null","","","null","51","","","","","","","","","","","","","","","",""
"","ITI","","html-keyboard-response","339","497634","0.0-1.0-468.0","0","0","92102","","null","","","null","51","","","","","","","","","","","","","","","NaN",""
"","S1","","html-keyboard-response","340","497888","0.0-1.0-470.0","0","0","92102","","null","","","null","52","","","","","","","","","","","","","","","",""
"","ISI","","html-keyboard-response","341","499891","0.0-1.0-471.0","0","0","92102","","null","","","null","52","NaN","","","","","","","","","","","","","","",""
"","S2","","html-keyboard-response","342","500146","0.0-1.0-472.0","0","0","92102","","null","","","null","52","","NaN","","","","","","","","","","","","","",""
"","response","","html-keyboard-response","343","500758","0.0-1.0-473.0-0.0","0","0","92102","","608","","","75","52","","","2","52","training","adjacent","FE","6","5","Q.jpg","L.jpg","0","0","1","",""
"","feedback","","html-keyboard-response","344","501763","0.0-1.0-474.0-0.0","0","0","92102","","null","","","null","52","","","","","","","","","","","","","","","",""
"","ITI","","html-keyboard-response","345","502766","0.0-1.0-477.0","0","0","92102","","null","","","null","52","","","","","","","","","","","","","","","NaN",""
"","S1","","html-keyboard-response","346","503018","0.0-1.0-479.0","0","0","92102","","null","","","null","53","","","","","","","","","","","","","","","",""
"","ISI","","html-keyboard-response","347","505020","0.0-1.0-480.0","0","0","92102","","null","","","null","53","NaN","","","","","","","","","","","","","","",""
"","S2","","html-keyboard-response","348","505274","0.0-1.0-481.0","0","0","92102","","null","","","null","53","","NaN","","","","","","","","","","","","","",""
"","response","","html-keyboard-response","349","505829","0.0-1.0-482.0-0.0","0","0","92102","","549","","","68","53","","","2","53","training","adjacent","EF","5","6","L.jpg","Q.jpg","1","1","1","",""
"","feedback","","html-keyboard-response","350","506834","0.0-1.0-483.0-0.0","0","0","92102","","null","","","null","53","","","","","","","","","","","","","","","",""
"","ITI","","html-keyboard-response","351","507839","0.0-1.0-486.0","0","0","92102","","null","","","null","53","","","","","","","","","","","","","","","NaN",""
"","S1","","html-keyboard-response","352","508093","0.0-1.0-488.0","0","0","92102","","null","","","null","54","","","","","","","","","","","","","","","",""
"","ISI","","html-keyboard-response","353","510096","0.0-1.0-489.0","0","0","92102","","null","","","null","54","NaN","","","","","","","","","","","","","","",""
"","S2","","html-keyboard-response","354","510351","0.0-1.0-490.0","0","0","92102","","null","","","null","54","","NaN","","","","","","","","","","","","","",""
"","response","","html-keyboard-response","355","510852","0.0-1.0-491.0-0.0","0","0","92102","","499","","","75","54","","","2","54","training","adjacent","BA","2","1","P.jpg","R.jpg","0","0","1","",""
"","feedback","","html-keyboard-response","356","511856","0.0-1.0-492.0-0.0","0","0","92102","","null","","","null","54","","","","","","","","","","","","","","","",""
"","ITI","","html-keyboard-response","357","512860","0.0-1.0-495.0","0","0","92102","","null","","","null","54","","","","","","","","","","","","","","","NaN",""
"","S1","","html-keyboard-response","358","513114","0.0-1.0-497.0","0","0","92102","","null","","","null","55","","","","","","","","","","","","","","","",""
"","ISI","","html-keyboard-response","359","515118","0.0-1.0-498.0","0","0","92102","","null","","","null","55","NaN","","","","","","","","","","","","","","",""
"","S2","","html-keyboard-response","360","515372","0.0-1.0-499.0","0","0","92102","","null","","","null","55","","NaN","","","","","","","","","","","","","",""
"","response","","html-keyboard-response","361","515845","0.0-1.0-500.0-0.0","0","0","92102","","470","","","68","55","","","2","55","training","adjacent","FE","6","5","Q.jpg","L.jpg","1","0","0","",""
"","feedback","","html-keyboard-response","362","516848","0.0-1.0-501.0-0.0","0","0","92102","","null","","","null","55","","","","","","","","","","","","","","","",""
"","time_out","","html-keyboard-response","363","518852","0.0-1.0-503.0-0.0","0","0","92102","","null","","","null","55","","","","","","","","","","","","","","","",""
"","ITI","","html-keyboard-response","364","519856","0.0-1.0-504.0","0","0","92102","","null","","","null","55","","","","","","","","","","","","","","","NaN",""
"","S1","","html-keyboard-response","365","520110","0.0-1.0-506.0","0","0","92102","","null","","","null","56","","","","","","","","","","","","","","","",""
"","ISI","","html-keyboard-response","366","522114","0.0-1.0-507.0","0","0","92102","","null","","","null","56","NaN","","","","","","","","","","","","","","",""
"","S2","","html-keyboard-response","367","522368","0.0-1.0-508.0","0","0","92102","","null","","","null","56","","NaN","","","","","","","","","","","","","",""
"","response","","html-keyboard-response","368","523011","0.0-1.0-509.0-0.0","0","0","92102","","639","","","75","56","","","2","56","training","adjacent","CD","3","4","O.jpg","N.jpg","0","1","0","",""
"","feedback","","html-keyboard-response","369","524016","0.0-1.0-510.0-0.0","0","0","92102","","null","","","null","56","","","","","","","","","","","","","","","",""
"","time_out","","html-keyboard-response","370","526021","0.0-1.0-512.0-0.0","0","0","92102","","null","","","null","56","","","","","","","","","","","","","","","",""
"","ITI","","html-keyboard-response","371","527025","0.0-1.0-513.0","0","0","92102","","null","","","null","56","","","","","","","","","","","","","","","NaN",""
"","S1","","html-keyboard-response","372","527279","0.0-1.0-515.0","0","0","92102","","null","","","null","57","","","","","","","","","","","","","","","",""
"","ISI","","html-keyboard-response","373","529282","0.0-1.0-516.0","0","0","92102","","null","","","null","57","NaN","","","","","","","","","","","","","","",""
"","S2","","html-keyboard-response","374","529537","0.0-1.0-517.0","0","0","92102","","null","","","null","57","","NaN","","","","","","","","","","","","","",""
"","response","","html-keyboard-response","375","530021","0.0-1.0-518.0-0.0","0","0","92102","","480","","","68","57","","","2","57","training","adjacent","AB","1","2","R.jpg","P.jpg","1","1","1","",""
"","feedback","","html-keyboard-response","376","531026","0.0-1.0-519.0-0.0","0","0","92102","","null","","","null","57","","","","","","","","","","","","","","","",""
"","ITI","","html-keyboard-response","377","532031","0.0-1.0-522.0","0","0","92102","","null","","","null","57","","","","","","","","","","","","","","","NaN",""
"","S1","","html-keyboard-response","378","532285","0.0-1.0-524.0","0","0","92102","","null","","","null","58","","","","","","","","","","","","","","","",""
"","ISI","","html-keyboard-response","379","534289","0.0-1.0-525.0","0","0","92102","","null","","","null","58","NaN","","","","","","","","","","","","","","",""
"","S2","","html-keyboard-response","380","534543","0.0-1.0-526.0","0","0","92102","","null","","","null","58","","NaN","","","","","","","","","","","","","",""
"","response","","html-keyboard-response","381","535090","0.0-1.0-527.0-0.0","0","0","92102","","544","","","75","58","","","2","58","training","adjacent","CB","3","2","O.jpg","P.jpg","0","0","1","",""
"","feedback","","html-keyboard-response","382","536095","0.0-1.0-528.0-0.0","0","0","92102","","null","","","null","58","","","","","","","","","","","","","","","",""
"","ITI","","html-keyboard-response","383","537099","0.0-1.0-531.0","0","0","92102","","null","","","null","58","","","","","","","","","","","","","","","NaN",""
"","S1","","html-keyboard-response","384","537353","0.0-1.0-533.0","0","0","92102","","null","","","null","59","","","","","","","","","","","","","","","",""
"","ISI","","html-keyboard-response","385","539357","0.0-1.0-534.0","0","0","92102","","null","","","null","59","NaN","","","","","","","","","","","","","","",""
"","S2","","html-keyboard-response","386","539611","0.0-1.0-535.0","0","0","92102","","null","","","null","59","","NaN","","","","","","","","","","","","","",""
"","response","","html-keyboard-response","387","540112","0.0-1.0-536.0-0.0","0","0","92102","","497","","","75","59","","","2","59","training","adjacent","BA","2","1","P.jpg","R.jpg","0","0","1","",""
"","feedback","","html-keyboard-response","388","541117","0.0-1.0-537.0-0.0","0","0","92102","","null","","","null","59","","","","","","","","","","","","","","","",""
"","ITI","","html-keyboard-response","389","542123","0.0-1.0-540.0","0","0","92102","","null","","","null","59","","","","","","","","","","","","","","","NaN",""
"","S1","","html-keyboard-response","390","542378","0.0-1.0-542.0","0","0","92102","","null","","","null","60","","","","","","","","","","","","","","","",""
"","ISI","","html-keyboard-response","391","544381","0.0-1.0-543.0","0","0","92102","","null","","","null","60","NaN","","","","","","","","","","","","","","",""
"","S2","","html-keyboard-response","392","544636","0.0-1.0-544.0","0","0","92102","","null","","","null","60","","NaN","","","","","","","","","","","","","",""
"","response","","html-keyboard-response","393","545124","0.0-1.0-545.0-0.0","0","0","92102","","484","","","75","60","","","2","60","training","adjacent","FG","6","7","Q.jpg","M.jpg","0","1","0","",""
"","feedback","","html-keyboard-response","394","546130","0.0-1.0-546.0-0.0","0","0","92102","","null","","","null","60","","","","","","","","","","","","","","","",""
"","time_out","","html-keyboard-response","395","548134","0.0-1.0-548.0-0.0","0","0","92102","","null","","","null","60","","","","","","","","","","","","","","","",""
"","ITI","","html-keyboard-response","396","549138","0.0-1.0-549.0","0","0","92102","","null","","","null","60","","","","","","","","","","","","","","","NaN",""
"","S1","","html-keyboard-response","397","549392","0.0-1.0-551.0","0","0","92102","","null","","","null","61","","","","","","","","","","","","","","","",""
"","ISI","","html-keyboard-response","398","551396","0.0-1.0-552.0","0","0","92102","","null","","","null","61","NaN","","","","","","","","","","","","","","",""
"","S2","","html-keyboard-response","399","551650","0.0-1.0-553.0","0","0","92102","","null","","","null","61","","NaN","","","","","","","","","","","","","",""
"","response","","html-keyboard-response","400","552239","0.0-1.0-554.0-0.0","0","0","92102","","585","","","68","61","","","2","61","training","adjacent","DC","4","3","N.jpg","O.jpg","1","0","0","",""
"","feedback","","html-keyboard-response","401","553243","0.0-1.0-555.0-0.0","0","0","92102","","null","","","null","61","","","","","","","","","","","","","","","",""
"","time_out","","html-keyboard-response","402","555247","0.0-1.0-557.0-0.0","0","0","92102","","null","","","null","61","","","","","","","","","","","","","","","",""
"","ITI","","html-keyboard-response","403","556252","0.0-1.0-558.0","0","0","92102","","null","","","null","61","","","","","","","","","","","","","","","NaN",""
"","S1","","html-keyboard-response","404","556506","0.0-1.0-560.0","0","0","92102","","null","","","null","62","","","","","","","","","","","","","","","",""
"","ISI","","html-keyboard-response","405","558510","0.0-1.0-561.0","0","0","92102","","null","","","null","62","NaN","","","","","","","","","","","","","","",""
"","S2","","html-keyboard-response","406","558765","0.0-1.0-562.0","0","0","92102","","null","","","null","62","","NaN","","","","","","","","","","","","","",""
"","response","","html-keyboard-response","407","559355","0.0-1.0-563.0-0.0","0","0","92102","","586","","","68","62","","","2","62","training","adjacent","DC","4","3","N.jpg","O.jpg","1","0","0","",""
"","feedback","","html-keyboard-response","408","560360","0.0-1.0-564.0-0.0","0","0","92102","","null","","","null","62","","","","","","","","","","","","","","","",""
"","time_out","","html-keyboard-response","409","562364","0.0-1.0-566.0-0.0","0","0","92102","","null","","","null","62","","","","","","","","","","","","","","","",""
"","ITI","","html-keyboard-response","410","563368","0.0-1.0-567.0","0","0","92102","","null","","","null","62","","","","","","","","","","","","","","","NaN",""
"","S1","","html-keyboard-response","411","563622","0.0-1.0-569.0","0","0","92102","","null","","","null","63","","","","","","","","","","","","","","","",""
"","ISI","","html-keyboard-response","412","565626","0.0-1.0-570.0","0","0","92102","","null","","","null","63","NaN","","","","","","","","","","","","","","",""
"","S2","","html-keyboard-response","413","565881","0.0-1.0-571.0","0","0","92102","","null","","","null","63","","NaN","","","","","","","","","","","","","",""
"","response","","html-keyboard-response","414","566389","0.0-1.0-572.0-0.0","0","0","92102","","504","","","75","63","","","2","63","training","adjacent","FG","6","7","Q.jpg","M.jpg","0","1","0","",""
"","feedback","","html-keyboard-response","415","567393","0.0-1.0-573.0-0.0","0","0","92102","","null","","","null","63","","","","","","","","","","","","","","","",""
"","time_out","","html-keyboard-response","416","569397","0.0-1.0-575.0-0.0","0","0","92102","","null","","","null","63","","","","","","","","","","","","","","","",""
"","ITI","","html-keyboard-response","417","570401","0.0-1.0-576.0","0","0","92102","","null","","","null","63","","","","","","","","","","","","","","","NaN",""
"","S1","","html-keyboard-response","418","570655","0.0-1.0-578.0","0","0","92102","","null","","","null","64","","","","","","","","","","","","","","","",""
"","ISI","","html-keyboard-response","419","572659","0.0-1.0-579.0","0","0","92102","","null","","","null","64","NaN","","","","","","","","","","","","","","",""
"","S2","","html-keyboard-response","420","572914","0.0-1.0-580.0","0","0","92102","","null","","","null","64","","NaN","","","","","","","","","","","","","",""
"","response","","html-keyboard-response","421","573557","0.0-1.0-581.0-0.0","0","0","92102","","639","","","75","64","","","2","64","training","adjacent","CD","3","4","O.jpg","N.jpg","0","1","0","",""
"","feedback","","html-keyboard-response","422","574562","0.0-1.0-582.0-0.0","0","0","92102","","null","","","null","64","","","","","","","","","","","","","","","",""
"","time_out","","html-keyboard-response","423","576567","0.0-1.0-584.0-0.0","0","0","92102","","null","","","null","64","","","","","","","","","","","","","","","",""
"","ITI","","html-keyboard-response","424","577571","0.0-1.0-585.0","0","0","92102","","null","","","null","64","","","","","","","","","","","","","","","NaN",""
"","S1","","html-keyboard-response","425","577825","0.0-1.0-587.0","0","0","92102","","null","","","null","65","","","","","","","","","","","","","","","",""
"","ISI","","html-keyboard-response","426","579830","0.0-1.0-588.0","0","0","92102","","null","","","null","65","NaN","","","","","","","","","","","","","","",""
"","S2","","html-keyboard-response","427","580084","0.0-1.0-589.0","0","0","92102","","null","","","null","65","","NaN","","","","","","","","","","","","","",""
"","response","","html-keyboard-response","428","580188","0.0-1.0-590.0-0.0","0","0","92102","","101","","","68","65","","","2","65","training","adjacent","ED","5","4","L.jpg","N.jpg","1","0","0","",""
"","feedback","","html-keyboard-response","429","581193","0.0-1.0-591.0-0.0","0","0","92102","","null","","","null","65","","","","","","","","","","","","","","","",""
"","time_out","","html-keyboard-response","430","583199","0.0-1.0-593.0-0.0","0","0","92102","","null","","","null","65","","","","","","","","","","","","","","","",""
"","ITI","","html-keyboard-response","431","584202","0.0-1.0-594.0","0","0","92102","","null","","","null","65","","","","","","","","","","","","","","","NaN",""
"","S1","","html-keyboard-response","432","584457","0.0-1.0-596.0","0","0","92102","","null","","","null","66","","","","","","","","","","","","","","","",""
"","ISI","","html-keyboard-response","433","586460","0.0-1.0-597.0","0","0","92102","","null","","","null","66","NaN","","","","","","","","","","","","","","",""
"","S2","","html-keyboard-response","434","586714","0.0-1.0-598.0","0","0","92102","","null","","","null","66","","NaN","","","","","","","","","","","","","",""
"","response","","html-keyboard-response","435","587152","0.0-1.0-599.0-0.0","0","0","92102","","433","","","68","66","","","2","66","training","adjacent","BC","2","3","P.jpg","O.jpg","1","1","1","",""
"","feedback","","html-keyboard-response","436","588156","0.0-1.0-600.0-0.0","0","0","92102","","null","","","null","66","","","","","","","","","","","","","","","",""
"","ITI","","html-keyboard-response","437","589161","0.0-1.0-603.0","0","0","92102","","null","","","null","66","","","","","","","","","","","","","","","NaN",""
"","S1","","html-keyboard-response","438","589416","0.0-1.0-605.0","0","0","92102","","null","","","null","67","","","","","","","","","","","","","","","",""
"","ISI","","html-keyboard-response","439","591419","0.0-1.0-606.0","0","0","92102","","null","","","null","67","NaN","","","","","","","","","","","","","","",""
"","S2","","html-keyboard-response","440","591674","0.0-1.0-607.0","0","0","92102","","null","","","null","67","","NaN","","","","","","","","","","","","","",""
"","response","","html-keyboard-response","441","592182","0.0-1.0-608.0-0.0","0","0","92102","","505","","","68","67","","","2","67","training","adjacent","ED","5","4","L.jpg","N.jpg","1","0","0","",""
"","feedback","","html-keyboard-response","442","593188","0.0-1.0-609.0-0.0","0","0","92102","","null","","","null","67","","","","","","","","","","","","","","","",""
"","time_out","","html-keyboard-response","443","595192","0.0-1.0-611.0-0.0","0","0","92102","","null","","","null","67","","","","","","","","","","","","","","","",""
"","ITI","","html-keyboard-response","444","596197","0.0-1.0-612.0","0","0","92102","","null","","","null","67","","","","","","","","","","","","","","","NaN",""
"","S1","","html-keyboard-response","445","596451","0.0-1.0-614.0","0","0","92102","","null","","","null","68","","","","","","","","","","","","","","","",""
"","ISI","","html-keyboard-response","446","598455","0.0-1.0-615.0","0","0","92102","","null","","","null","68","NaN","","","","","","","","","","","","","","",""
"","S2","","html-keyboard-response","447","598710","0.0-1.0-616.0","0","0","92102","","null","","","null","68","","NaN","","","","","","","","","","","","","",""
"","response","","html-keyboard-response","448","599135","0.0-1.0-617.0-0.0","0","0","92102","","422","","","68","68","","","2","68","training","adjacent","ED","5","4","L.jpg","N.jpg","1","0","0","",""
"","feedback","","html-keyboard-response","449","600139","0.0-1.0-618.0-0.0","0","0","92102","","null","","","null","68","","","","","","","","","","","","","","","",""
"","time_out","","html-keyboard-response","450","602143","0.0-1.0-620.0-0.0","0","0","92102","","null","","","null","68","","","","","","","","","","","","","","","",""
"","ITI","","html-keyboard-response","451","603147","0.0-1.0-621.0","0","0","92102","","null","","","null","68","","","","","","","","","","","","","","","NaN",""
"","S1","","html-keyboard-response","452","603401","0.0-1.0-623.0","0","0","92102","","null","","","null","69","","","","","","","","","","","","","","","",""
"","ISI","","html-keyboard-response","453","605405","0.0-1.0-624.0","0","0","92102","","null","","","null","69","NaN","","","","","","","","","","","","","","",""
"","S2","","html-keyboard-response","454","605659","0.0-1.0-625.0","0","0","92102","","null","","","null","69","","NaN","","","","","","","","","","","","","",""
"","response","","html-keyboard-response","455","606026","0.0-1.0-626.0-0.0","0","0","92102","","363","","","75","69","","","2","69","training","adjacent","BA","2","1","P.jpg","R.jpg","0","0","1","",""
"","feedback","","html-keyboard-response","456","607031","0.0-1.0-627.0-0.0","0","0","92102","","null","","","null","69","","","","","","","","","","","","","","","",""
"","ITI","","html-keyboard-response","457","608036","0.0-1.0-630.0","0","0","92102","","null","","","null","69","","","","","","","","","","","","","","","NaN",""
"","S1","","html-keyboard-response","458","608290","0.0-1.0-632.0","0","0","92102","","null","","","null","70","","","","","","","","","","","","","","","",""
"","ISI","","html-keyboard-response","459","610294","0.0-1.0-633.0","0","0","92102","","null","","","null","70","NaN","","","","","","","","","","","","","","",""
"","S2","","html-keyboard-response","460","610549","0.0-1.0-634.0","0","0","92102","","null","","","null","70","","NaN","","","","","","","","","","","","","",""
"","response","","html-keyboard-response","461","611572","0.0-1.0-635.0-0.0","0","0","92102","","1019","","","75","70","","","2","70","training","adjacent","DE","4","5","N.jpg","L.jpg","0","1","0","",""
"","feedback","","html-keyboard-response","462","612576","0.0-1.0-636.0-0.0","0","0","92102","","null","","","null","70","","","","","","","","","","","","","","","",""
"","time_out","","html-keyboard-response","463","614581","0.0-1.0-638.0-0.0","0","0","92102","","null","","","null","70","","","","","","","","","","","","","","","",""
"","ITI","","html-keyboard-response","464","615585","0.0-1.0-639.0","0","0","92102","","null","","","null","70","","","","","","","","","","","","","","","NaN",""
"","S1","","html-keyboard-response","465","615838","0.0-1.0-641.0","0","0","92102","","null","","","null","71","","","","","","","","","","","","","","","",""
"","ISI","","html-keyboard-response","466","617841","0.0-1.0-642.0","0","0","92102","","null","","","null","71","NaN","","","","","","","","","","","","","","",""
"","S2","","html-keyboard-response","467","618096","0.0-1.0-643.0","0","0","92102","","null","","","null","71","","NaN","","","","","","","","","","","","","",""
"","response","","html-keyboard-response","468","618542","0.0-1.0-644.0-0.0","0","0","92102","","442","","","75","71","","","2","71","training","adjacent","CB","3","2","O.jpg","P.jpg","0","0","1","",""
"","feedback","","html-keyboard-response","469","619547","0.0-1.0-645.0-0.0","0","0","92102","","null","","","null","71","","","","","","","","","","","","","","","",""
"","ITI","","html-keyboard-response","470","620551","0.0-1.0-648.0","0","0","92102","","null","","","null","71","","","","","","","","","","","","","","","NaN",""
"","S1","","html-keyboard-response","471","620805","0.0-1.0-650.0","0","0","92102","","null","","","null","72","","","","","","","","","","","","","","","",""
"","ISI","","html-keyboard-response","472","622808","0.0-1.0-651.0","0","0","92102","","null","","","null","72","NaN","","","","","","","","","","","","","","",""
"","S2","","html-keyboard-response","473","623061","0.0-1.0-652.0","0","0","92102","","null","","","null","72","","NaN","","","","","","","","","","","","","",""
"","response","","html-keyboard-response","474","623846","0.0-1.0-653.0-0.0","0","0","92102","","780","","","68","72","","","2","72","training","adjacent","BC","2","3","P.jpg","O.jpg","1","1","1","",""
"","feedback","","html-keyboard-response","475","624851","0.0-1.0-654.0-0.0","0","0","92102","","null","","","null","72","","","","","","","","","","","","","","","",""
"","ITI","","html-keyboard-response","476","625856","0.0-1.0-657.0","0","0","92102","","null","","","null","72","","","","","","","","","","","","","","","NaN",""
"","S1","","html-keyboard-response","477","626110","0.0-1.0-659.0","0","0","92102","","null","","","null","73","","","","","","","","","","","","","","","",""
"","ISI","","html-keyboard-response","478","628114","0.0-1.0-660.0","0","0","92102","","null","","","null","73","NaN","","","","","","","","","","","","","","",""
"","S2","","html-keyboard-response","479","628368","0.0-1.0-661.0","0","0","92102","","null","","","null","73","","NaN","","","","","","","","","","","","","",""
"","response","","html-keyboard-response","480","629035","0.0-1.0-662.0-0.0","0","0","92102","","662","","","75","73","","","2","73","training","adjacent","CD","3","4","O.jpg","N.jpg","0","1","0","",""
"","feedback","","html-keyboard-response","481","630039","0.0-1.0-663.0-0.0","0","0","92102","","null","","","null","73","","","","","","","","","","","","","","","",""
"","time_out","","html-keyboard-response","482","632044","0.0-1.0-665.0-0.0","0","0","92102","","null","","","null","73","","","","","","","","","","","","","","","",""
"","ITI","","html-keyboard-response","483","633049","0.0-1.0-666.0","0","0","92102","","null","","","null","73","","","","","","","","","","","","","","","NaN",""
"","S1","","html-keyboard-response","484","633303","0.0-1.0-668.0","0","0","92102","","null","","","null","74","","","","","","","","","","","","","","","",""
"","ISI","","html-keyboard-response","485","635307","0.0-1.0-669.0","0","0","92102","","null","","","null","74","NaN","","","","","","","","","","","","","","",""
"","S2","","html-keyboard-response","486","635561","0.0-1.0-670.0","0","0","92102","","null","","","null","74","","NaN","","","","","","","","","","","","","",""
"","response","","html-keyboard-response","487","635983","0.0-1.0-671.0-0.0","0","0","92102","","418","","","68","74","","","2","74","training","adjacent","GF","7","6","M.jpg","Q.jpg","1","0","0","",""
"","feedback","","html-keyboard-response","488","636989","0.0-1.0-672.0-0.0","0","0","92102","","null","","","null","74","","","","","","","","","","","","","","","",""
"","time_out","","html-keyboard-response","489","638994","0.0-1.0-674.0-0.0","0","0","92102","","null","","","null","74","","","","","","","","","","","","","","","",""
"","ITI","","html-keyboard-response","490","639998","0.0-1.0-675.0","0","0","92102","","null","","","null","74","","","","","","","","","","","","","","","NaN",""
"","S1","","html-keyboard-response","491","640252","0.0-1.0-677.0","0","0","92102","","null","","","null","75","","","","","","","","","","","","","","","",""
"","ISI","","html-keyboard-response","492","642256","0.0-1.0-678.0","0","0","92102","","null","","","null","75","NaN","","","","","","","","","","","","","","",""
"","S2","","html-keyboard-response","493","642510","0.0-1.0-679.0","0","0","92102","","null","","","null","75","","NaN","","","","","","","","","","","","","",""
"","response","","html-keyboard-response","494","643240","0.0-1.0-680.0-0.0","0","0","92102","","726","","","75","75","","","2","75","training","adjacent","CD","3","4","O.jpg","N.jpg","0","1","0","",""
"","feedback","","html-keyboard-response","495","644245","0.0-1.0-681.0-0.0","0","0","92102","","null","","","null","75","","","","","","","","","","","","","","","",""
"","time_out","","html-keyboard-response","496","646250","0.0-1.0-683.0-0.0","0","0","92102","","null","","","null","75","","","","","","","","","","","","","","","",""
"","ITI","","html-keyboard-response","497","647253","0.0-1.0-684.0","0","0","92102","","null","","","null","75","","","","","","","","","","","","","","","NaN",""
"","S1","","html-keyboard-response","498","647508","0.0-1.0-686.0","0","0","92102","","null","","","null","76","","","","","","","","","","","","","","","",""
"","ISI","","html-keyboard-response","499","649512","0.0-1.0-687.0","0","0","92102","","null","","","null","76","NaN","","","","","","","","","","","","","","",""
"","S2","","html-keyboard-response","500","649767","0.0-1.0-688.0","0","0","92102","","null","","","null","76","","NaN","","","","","","","","","","","","","",""
"","response","","html-keyboard-response","501","650281","0.0-1.0-689.0-0.0","0","0","92102","","510","","","75","76","","","2","76","training","adjacent","FE","6","5","Q.jpg","L.jpg","0","0","1","",""
"","feedback","","html-keyboard-response","502","651286","0.0-1.0-690.0-0.0","0","0","92102","","null","","","null","76","","","","","","","","","","","","","","","",""
"","ITI","","html-keyboard-response","503","652291","0.0-1.0-693.0","0","0","92102","","null","","","null","76","","","","","","","","","","","","","","","NaN",""
"","S1","","html-keyboard-response","504","652546","0.0-1.0-695.0","0","0","92102","","null","","","null","77","","","","","","","","","","","","","","","",""
"","ISI","","html-keyboard-response","505","654550","0.0-1.0-696.0","0","0","92102","","null","","","null","77","NaN","","","","","","","","","","","","","","",""
"","S2","","html-keyboard-response","506","654804","0.0-1.0-697.0","0","0","92102","","null","","","null","77","","NaN","","","","","","","","","","","","","",""
"","response","","html-keyboard-response","507","655270","0.0-1.0-698.0-0.0","0","0","92102","","462","","","68","77","","","2","77","training","adjacent","AB","1","2","R.jpg","P.jpg","1","1","1","",""
"","feedback","","html-keyboard-response","508","656275","0.0-1.0-699.0-0.0","0","0","92102","","null","","","null","77","","","","","","","","","","","","","","","",""
"","ITI","","html-keyboard-response","509","657280","0.0-1.0-702.0","0","0","92102","","null","","","null","77","","","","","","","","","","","","","","","NaN",""
"","S1","","html-keyboard-response","510","657534","0.0-1.0-704.0","0","0","92102","","null","","","null","78","","","","","","","","","","","","","","","",""
"","ISI","","html-keyboard-response","511","659538","0.0-1.0-705.0","0","0","92102","","null","","","null","78","NaN","","","","","","","","","","","","","","",""
"","S2","","html-keyboard-response","512","659792","0.0-1.0-706.0","0","0","92102","","null","","","null","78","","NaN","","","","","","","","","","","","","",""
"","response","","html-keyboard-response","513","660337","0.0-1.0-707.0-0.0","0","0","92102","","541","","","68","78","","","2","78","training","adjacent","GF","7","6","M.jpg","Q.jpg","1","0","0","",""
"","feedback","","html-keyboard-response","514","661342","0.0-1.0-708.0-0.0","0","0","92102","","null","","","null","78","","","","","","","","","","","","","","","",""
"","time_out","","html-keyboard-response","515","663347","0.0-1.0-710.0-0.0","0","0","92102","","null","","","null","78","","","","","","","","","","","","","","","",""
"","ITI","","html-keyboard-response","516","664351","0.0-1.0-711.0","0","0","92102","","null","","","null","78","","","","","","","","","","","","","","","NaN",""
"","S1","","html-keyboard-response","517","664606","0.0-1.0-713.0","0","0","92102","","null","","","null","79","","","","","","","","","","","","","","","",""
"","ISI","","html-keyboard-response","518","666610","0.0-1.0-714.0","0","0","92102","","null","","","null","79","NaN","","","","","","","","","","","","","","",""
"","S2","","html-keyboard-response","519","666864","0.0-1.0-715.0","0","0","92102","","null","","","null","79","","NaN","","","","","","","","","","","","","",""
"","response","","html-keyboard-response","520","667285","0.0-1.0-716.0-0.0","0","0","92102","","417","","","75","79","","","2","79","training","adjacent","DE","4","5","N.jpg","L.jpg","0","1","0","",""
"","feedback","","html-keyboard-response","521","668292","0.0-1.0-717.0-0.0","0","0","92102","","null","","","null","79","","","","","","","","","","","","","","","",""
"","time_out","","html-keyboard-response","522","670296","0.0-1.0-719.0-0.0","0","0","92102","","null","","","null","79","","","","","","","","","","","","","","","",""
"","ITI","","html-keyboard-response","523","671300","0.0-1.0-720.0","0","0","92102","","null","","","null","79","","","","","","","","","","","","","","","NaN",""
"","S1","","html-keyboard-response","524","671554","0.0-1.0-722.0","0","0","92102","","null","","","null","80","","","","","","","","","","","","","","","",""
"","ISI","","html-keyboard-response","525","673558","0.0-1.0-723.0","0","0","92102","","null","","","null","80","NaN","","","","","","","","","","","","","","",""
"","S2","","html-keyboard-response","526","673816","0.0-1.0-724.0","0","0","92102","","null","","","null","80","","NaN","","","","","","","","","","","","","",""
"","response","","html-keyboard-response","527","674192","0.0-1.0-725.0-0.0","0","0","92102","","371","","","68","80","","","2","80","training","adjacent","GF","7","6","M.jpg","Q.jpg","1","0","0","",""
"","feedback","","html-keyboard-response","528","675197","0.0-1.0-726.0-0.0","0","0","92102","","null","","","null","80","","","","","","","","","","","","","","","",""
"","time_out","","html-keyboard-response","529","677202","0.0-1.0-728.0-0.0","0","0","92102","","null","","","null","80","","","","","","","","","","","","","","","",""
"","ITI","","html-keyboard-response","530","678206","0.0-1.0-729.0","0","0","92102","","499","","","75","80","","","","","","","","","","","","","","","k",""
"","S1","","html-keyboard-response","531","678461","0.0-1.0-731.0","0","0","92102","","null","","","null","81","","","","","","","","","","","","","","","",""
"","ISI","","html-keyboard-response","532","680464","0.0-1.0-732.0","0","0","92102","","null","","","null","81","NaN","","","","","","","","","","","","","","",""
"","S2","","html-keyboard-response","533","680719","0.0-1.0-733.0","0","0","92102","","null","","","null","81","","NaN","","","","","","","","","","","","","",""
"","response","","html-keyboard-response","534","681265","0.0-1.0-734.0-0.0","0","0","92102","","541","","","75","81","","","2","81","training","adjacent","BA","2","1","P.jpg","R.jpg","0","0","1","",""
"","feedback","","html-keyboard-response","535","682269","0.0-1.0-735.0-0.0","0","0","92102","","null","","","null","81","","","","","","","","","","","","","","","",""
"","ITI","","html-keyboard-response","536","683274","0.0-1.0-738.0","0","0","92102","","null","","","null","81","","","","","","","","","","","","","","","NaN",""
"","S1","","html-keyboard-response","537","683527","0.0-1.0-740.0","0","0","92102","","null","","","null","82","","","","","","","","","","","","","","","",""
"","ISI","","html-keyboard-response","538","685531","0.0-1.0-741.0","0","0","92102","","null","","","null","82","NaN","","","","","","","","","","","","","","",""
"","S2","","html-keyboard-response","539","685784","0.0-1.0-742.0","0","0","92102","","null","","","null","82","","NaN","","","","","","","","","","","","","",""
"","response","","html-keyboard-response","540","686481","0.0-1.0-743.0-0.0","0","0","92102","","693","","","68","82","","","2","82","training","adjacent","DC","4","3","N.jpg","O.jpg","1","0","0","",""
"","feedback","","html-keyboard-response","541","687486","0.0-1.0-744.0-0.0","0","0","92102","","null","","","null","82","","","","","","","","","","","","","","","",""
"","time_out","","html-keyboard-response","542","689490","0.0-1.0-746.0-0.0","0","0","92102","","null","","","null","82","","","","","","","","","","","","","","","",""
"","ITI","","html-keyboard-response","543","690495","0.0-1.0-747.0","0","0","92102","","null","","","null","82","","","","","","","","","","","","","","","NaN",""
"","S1","","html-keyboard-response","544","690749","0.0-1.0-749.0","0","0","92102","","null","","","null","83","","","","","","","","","","","","","","","",""
"","ISI","","html-keyboard-response","545","692753","0.0-1.0-750.0","0","0","92102","","null","","","null","83","NaN","","","","","","","","","","","","","","",""
"","S2","","html-keyboard-response","546","693007","0.0-1.0-751.0","0","0","92102","","null","","","null","83","","NaN","","","","","","","","","","","","","",""
"","response","","html-keyboard-response","547","693924","0.0-1.0-752.0-0.0","0","0","92102","","913","","","68","83","","","2","83","training","adjacent","DC","4","3","N.jpg","O.jpg","1","0","0","",""
"","feedback","","html-keyboard-response","548","694929","0.0-1.0-753.0-0.0","0","0","92102","","null","","","null","83","","","","","","","","","","","","","","","",""
"","time_out","","html-keyboard-response","549","696935","0.0-1.0-755.0-0.0","0","0","92102","","null","","","null","83","","","","","","","","","","","","","","","",""
"","ITI","","html-keyboard-response","550","697939","0.0-1.0-756.0","0","0","92102","","null","","","null","83","","","","","","","","","","","","","","","NaN",""
"","S1","","html-keyboard-response","551","698193","0.0-1.0-758.0","0","0","92102","","null","","","null","84","","","","","","","","","","","","","","","",""
"","ISI","","html-keyboard-response","552","700197","0.0-1.0-759.0","0","0","92102","","null","","","null","84","NaN","","","","","","","","","","","","","","",""
"","S2","","html-keyboard-response","553","700452","0.0-1.0-760.0","0","0","92102","","null","","","null","84","","NaN","","","","","","","","","","","","","",""
"","response","","html-keyboard-response","554","700843","0.0-1.0-761.0-0.0","0","0","92102","","387","","","75","84","","","2","84","training","adjacent","CB","3","2","O.jpg","P.jpg","0","0","1","",""
"","feedback","","html-keyboard-response","555","701848","0.0-1.0-762.0-0.0","0","0","92102","","null","","","null","84","","","","","","","","","","","","","","","",""
"","ITI","","html-keyboard-response","556","702853","0.0-1.0-765.0","0","0","92102","","null","","","null","84","","","","","","","","","","","","","","","NaN",""
"","S1","","html-keyboard-response","557","703108","0.0-1.0-767.0","0","0","92102","","null","","","null","85","","","","","","","","","","","","","","","",""
"","ISI","","html-keyboard-response","558","705112","0.0-1.0-768.0","0","0","92102","","null","","","null","85","NaN","","","","","","","","","","","","","","",""
"","S2","","html-keyboard-response","559","705366","0.0-1.0-769.0","0","0","92102","","null","","","null","85","","NaN","","","","","","","","","","","","","",""
"","response","","html-keyboard-response","560","705669","0.0-1.0-770.0-0.0","0","0","92102","","299","","","68","85","","","2","85","training","adjacent","EF","5","6","L.jpg","Q.jpg","1","1","1","",""
"","feedback","","html-keyboard-response","561","706675","0.0-1.0-771.0-0.0","0","0","92102","","null","","","null","85","","","","","","","","","","","","","","","",""
"","ITI","","html-keyboard-response","562","707679","0.0-1.0-774.0","0","0","92102","","null","","","null","85","","","","","","","","","","","","","","","NaN",""
"","S1","","html-keyboard-response","563","707933","0.0-1.0-776.0","0","0","92102","","null","","","null","86","","","","","","","","","","","","","","","",""
"","ISI","","html-keyboard-response","564","709937","0.0-1.0-777.0","0","0","92102","","null","","","null","86","NaN","","","","","","","","","","","","","","",""
"","S2","","html-keyboard-response","565","710192","0.0-1.0-778.0","0","0","92102","","null","","","null","86","","NaN","","","","","","","","","","","","","",""
"","response","","html-keyboard-response","566","710702","0.0-1.0-779.0-0.0","0","0","92102","","506","","","68","86","","","2","86","training","adjacent","AB","1","2","R.jpg","P.jpg","1","1","1","",""
"","feedback","","html-keyboard-response","567","711706","0.0-1.0-780.0-0.0","0","0","92102","","null","","","null","86","","","","","","","","","","","","","","","",""
"","ITI","","html-keyboard-response","568","712711","0.0-1.0-783.0","0","0","92102","","null","","","null","86","","","","","","","","","","","","","","","NaN",""
"","S1","","html-keyboard-response","569","712965","0.0-1.0-785.0","0","0","92102","","null","","","null","87","","","","","","","","","","","","","","","",""
"","ISI","","html-keyboard-response","570","714969","0.0-1.0-786.0","0","0","92102","","null","","","null","87","NaN","","","","","","","","","","","","","","",""
"","S2","","html-keyboard-response","571","715224","0.0-1.0-787.0","0","0","92102","","null","","","null","87","","NaN","","","","","","","","","","","","","",""
"","response","","html-keyboard-response","572","715690","0.0-1.0-788.0-0.0","0","0","92102","","462","","","68","87","","","2","87","training","adjacent","ED","5","4","L.jpg","N.jpg","1","0","0","",""
"","feedback","","html-keyboard-response","573","716696","0.0-1.0-789.0-0.0","0","0","92102","","null","","","null","87","","","","","","","","","","","","","","","",""
"","time_out","","html-keyboard-response","574","718701","0.0-1.0-791.0-0.0","0","0","92102","","null","","","null","87","","","","","","","","","","","","","","","",""
"","ITI","","html-keyboard-response","575","719704","0.0-1.0-792.0","0","0","92102","","null","","","null","87","","","","","","","","","","","","","","","NaN",""
"","S1","","html-keyboard-response","576","719959","0.0-1.0-794.0","0","0","92102","","null","","","null","88","","","","","","","","","","","","","","","",""
"","ISI","","html-keyboard-response","577","721963","0.0-1.0-795.0","0","0","92102","","null","","","null","88","NaN","","","","","","","","","","","","","","",""
"","S2","","html-keyboard-response","578","722218","0.0-1.0-796.0","0","0","92102","","null","","","null","88","","NaN","","","","","","","","","","","","","",""
"","response","","html-keyboard-response","579","722629","0.0-1.0-797.0-0.0","0","0","92102","","406","","","75","88","","","2","88","training","adjacent","FG","6","7","Q.jpg","M.jpg","0","1","0","",""
"","feedback","","html-keyboard-response","580","723634","0.0-1.0-798.0-0.0","0","0","92102","","null","","","null","88","","","","","","","","","","","","","","","",""
"","time_out","","html-keyboard-response","581","725639","0.0-1.0-800.0-0.0","0","0","92102","","null","","","null","88","","","","","","","","","","","","","","","",""
