"success","ttype","start_time","trial_type","trial_index","time_elapsed","internal_node_id","warning","missed_checkup","PID","view_history","rt","responses","repeat_instructions","key_press","index","keypress_isi","keypress_S2","block","trial_num","phase","group_type","pair_type","S1_stim","S2_stim","S1_img","S2_img","S1_chosen","S1_higher","accuracy","keypress_iti","total_bonus_tally"
"true","full_screen","d03082023hr1442","fullscreen","0","8507","0.0-0.0","0","0","55547","","","","","","","","","","","","","","","","","","","","","",""
"","instructions","","instructions","1","44826","0.0-1.0-0.0-0.0","0","0","55547","[{""page_index"":0,""viewing_time"":3138},{""page_index"":1,""viewing_time"":20863},{""page_index"":2,""viewing_time"":10774},{""page_index"":3,""viewing_time"":1540}]","36317","","","","","","","","","","","","","","","","","","","",""
"","comprehension_check","","survey-multi-choice","2","63003","0.0-1.0-0.0-1.0","0","0","55547","","18173","{""Q0"":""True"",""Q1"":""K"",""Q2"":""Once the second image appears and while the screen 'MAKE A CHOICE' is shown"",""Q3"":""Green mark"",""Q4"":""either D or K""}","0","","","","","","","","","","","","","","","","","",""
"","start_exp","","html-keyboard-response","3","65028","0.0-1.0-1.0","0","0","55547","","2021","","","32","","","","","","","","","","","","","","","","",""
"","S1","","html-keyboard-response","4","65285","0.0-1.0-2.0","0","0","55547","","null","","","null","0","","","","","","","","","","","","","","","",""
"","ISI","","html-keyboard-response","5","65439","0.0-1.0-3.0","0","0","55547","","null","","","null","0","NaN","","","","","","","","","","","","","","",""
"","S2","","html-keyboard-response","6","65693","0.0-1.0-4.0","0","0","55547","","null","","","null","0","","NaN","","","","","","","","","","","","","",""
"","response","","html-keyboard-response","7","66336","0.0-1.0-5.0-0.0","0","0","55547","","640","","","75","0","","","1","0","training","adjacent","EF","5","6","R.jpg","M.jpg","1","1","1","",""
"","feedback","","html-keyboard-response","8","67341","0.0-1.0-6.0-0.0","0","0","55547","","null","","","null","0","","","","","","","","","","","","","","","",""
"","ITI","","html-keyboard-response","9","68347","0.0-1.0-9.0","0","0","55547","","null","","","null","0","","","","","","","","","","","","","","","NaN",""
"","S1","","html-keyboard-response","10","68603","0.0-1.0-11.0","0","0","55547","","null","","","null","1","","","","","","","","","","","","","","","",""
"","ISI","","html-keyboard-response","11","68765","0.0-1.0-12.0","0","0","55547","","null","","","null","1","NaN","","","","","","","","","","","","","","",""
"","S2","","html-keyboard-response","12","69020","0.0-1.0-13.0","0","0","55547","","null","","","null","1","","NaN","","","","","","","","","","","","","",""
"","response","","html-keyboard-response","13","69570","0.0-1.0-14.0-0.0","0","0","55547","","544","","","75","1","","","1","1","training","adjacent","EF","5","6","R.jpg","M.jpg","1","1","1","",""
"","feedback","","html-keyboard-response","14","70573","0.0-1.0-15.0-0.0","0","0","55547","","null","","","null","1","","","","","","","","","","","","","","","",""
"","ITI","","html-keyboard-response","15","71576","0.0-1.0-18.0","0","0","55547","","null","","","null","1","","","","","","","","","","","","","","","NaN",""
"","S1","","html-keyboard-response","16","71830","0.0-1.0-20.0","0","0","55547","","null","","","null","2","","","","","","","","","","","","","","","",""
"","ISI","","html-keyboard-response","17","71984","0.0-1.0-21.0","0","0","55547","","null","","","null","2","NaN","","","","","","","","","","","","","","",""
"","S2","","html-keyboard-response","18","72239","0.0-1.0-22.0","0","0","55547","","null","","","null","2","","NaN","","","","","","","","","","","","","",""
"","response","","html-keyboard-response","19","73037","0.0-1.0-23.0-0.0","0","0","55547","","797","","","68","2","","","1","2","training","adjacent","DE","4","5","N.jpg","R.jpg","0","1","0","",""
"","feedback","","html-keyboard-response","20","74040","0.0-1.0-24.0-0.0","0","0","55547","","null","","","null","2","","","","","","","","","","","","","","","",""
"","time_out","","html-keyboard-response","21","76044","0.0-1.0-26.0-0.0","0","0","55547","","null","","","null","2","","","","","","","","","","","","","","","",""
"","ITI","","html-keyboard-response","22","77046","0.0-1.0-27.0","0","0","55547","","null","","","null","2","","","","","","","","","","","","","","","NaN",""
"","S1","","html-keyboard-response","23","77298","0.0-1.0-29.0","0","0","55547","","null","","","null","3","","","","","","","","","","","","","","","",""
"","ISI","","html-keyboard-response","24","77450","0.0-1.0-30.0","0","0","55547","","null","","","null","3","NaN","","","","","","","","","","","","","","",""
"","S2","","html-keyboard-response","25","77705","0.0-1.0-31.0","0","0","55547","","null","","","null","3","","NaN","","","","","","","","","","","","","",""
"","response","","html-keyboard-response","26","78388","0.0-1.0-32.0-0.0","0","0","55547","","679","","","68","3","","","1","3","training","adjacent","ED","5","4","R.jpg","N.jpg","0","0","1","",""
"","feedback","","html-keyboard-response","27","79391","0.0-1.0-33.0-0.0","0","0","55547","","null","","","null","3","","","","","","","","","","","","","","","",""
"","ITI","","html-keyboard-response","28","80395","0.0-1.0-36.0","0","0","55547","","null","","","null","3","","","","","","","","","","","","","","","NaN",""
"","S1","","html-keyboard-response","29","80648","0.0-1.0-38.0","0","0","55547","","null","","","null","4","","","","","","","","","","","","","","","",""
"","ISI","","html-keyboard-response","30","80802","0.0-1.0-39.0","0","0","55547","","null","","","null","4","NaN","","","","","","","","","","","","","","",""
"","S2","","html-keyboard-response","31","81057","0.0-1.0-40.0","0","0","55547","","null","","","null","4","","NaN","","","","","","","","","","","","","",""
"","response","","html-keyboard-response","32","81522","0.0-1.0-41.0-0.0","0","0","55547","","461","","","75","4","","","1","4","training","adjacent","AB","1","2","Q.jpg","O.jpg","1","1","1","",""
"","feedback","","html-keyboard-response","33","82526","0.0-1.0-42.0-0.0","0","0","55547","","null","","","null","4","","","","","","","","","","","","","","","",""
"","ITI","","html-keyboard-response","34","83529","0.0-1.0-45.0","0","0","55547","","null","","","null","4","","","","","","","","","","","","","","","NaN",""
"","S1","","html-keyboard-response","35","83783","0.0-1.0-47.0","0","0","55547","","null","","","null","5","","","","","","","","","","","","","","","",""
"","ISI","","html-keyboard-response","36","83935","0.0-1.0-48.0","0","0","55547","","null","","","null","5","NaN","","","","","","","","","","","","","","",""
"","S2","","html-keyboard-response","37","84191","0.0-1.0-49.0","0","0","55547","","null","","","null","5","","NaN","","","","","","","","","","","","","",""
"","response","","html-keyboard-response","38","84821","0.0-1.0-50.0-0.0","0","0","55547","","628","","","75","5","","","1","5","training","adjacent","DE","4","5","N.jpg","R.jpg","1","1","1","",""
"","feedback","","html-keyboard-response","39","85826","0.0-1.0-51.0-0.0","0","0","55547","","null","","","null","5","","","","","","","","","","","","","","","",""
"","ITI","","html-keyboard-response","40","86830","0.0-1.0-54.0","0","0","55547","","null","","","null","5","","","","","","","","","","","","","","","NaN",""
"","S1","","html-keyboard-response","41","87083","0.0-1.0-56.0","0","0","55547","","null","","","null","6","","","","","","","","","","","","","","","",""
"","ISI","","html-keyboard-response","42","87247","0.0-1.0-57.0","0","0","55547","","null","","","null","6","NaN","","","","","","","","","","","","","","",""
"","S2","","html-keyboard-response","43","87500","0.0-1.0-58.0","0","0","55547","","null","","","null","6","","NaN","","","","","","","","","","","","","",""
"","response","","html-keyboard-response","44","87855","0.0-1.0-59.0-0.0","0","0","55547","","352","","","68","6","","","1","6","training","adjacent","DC","4","3","N.jpg","P.jpg","0","0","1","",""
"","feedback","","html-keyboard-response","45","88860","0.0-1.0-60.0-0.0","0","0","55547","","null","","","null","6","","","","","","","","","","","","","","","",""
"","ITI","","html-keyboard-response","46","89863","0.0-1.0-63.0","0","0","55547","","null","","","null","6","","","","","","","","","","","","","","","NaN",""
"","S1","","html-keyboard-response","47","90115","0.0-1.0-65.0","0","0","55547","","null","","","null","7","","","","","","","","","","","","","","","",""
"","ISI","","html-keyboard-response","48","90267","0.0-1.0-66.0","0","0","55547","","null","","","null","7","NaN","","","","","","","","","","","","","","",""
"","S2","","html-keyboard-response","49","90520","0.0-1.0-67.0","0","0","55547","","null","","","null","7","","NaN","","","","","","","","","","","","","",""
"","response","","html-keyboard-response","50","90844","0.0-1.0-68.0-0.0","0","0","55547","","321","","","75","7","","","1","7","training","adjacent","CD","3","4","P.jpg","N.jpg","1","1","1","",""
"","feedback","","html-keyboard-response","51","91847","0.0-1.0-69.0-0.0","0","0","55547","","null","","","null","7","","","","","","","","","","","","","","","",""
"","ITI","","html-keyboard-response","52","92849","0.0-1.0-72.0","0","0","55547","","null","","","null","7","","","","","","","","","","","","","","","NaN",""
"","S1","","html-keyboard-response","53","93102","0.0-1.0-74.0","0","0","55547","","null","","","null","8","","","","","","","","","","","","","","","",""
"","ISI","","html-keyboard-response","54","93255","0.0-1.0-75.0","0","0","55547","","null","","","null","8","NaN","","","","","","","","","","","","","","",""
"","S2","","html-keyboard-response","55","93523","0.0-1.0-76.0","0","0","55547","","null","","","null","8","","NaN","","","","","","","","","","","","","",""
"","response","","html-keyboard-response","56","93791","0.0-1.0-77.0-0.0","0","0","55547","","266","","","75","8","","","1","8","training","adjacent","AB","1","2","Q.jpg","O.jpg","1","1","1","",""
"","feedback","","html-keyboard-response","57","94800","0.0-1.0-78.0-0.0","0","0","55547","","null","","","null","8","","","","","","","","","","","","","","","",""
"","ITI","","html-keyboard-response","58","95803","0.0-1.0-81.0","0","0","55547","","null","","","null","8","","","","","","","","","","","","","","","NaN",""
"","S1","","html-keyboard-response","59","96057","0.0-1.0-83.0","0","0","55547","","null","","","null","9","","","","","","","","","","","","","","","",""
"","ISI","","html-keyboard-response","60","96211","0.0-1.0-84.0","0","0","55547","","null","","","null","9","NaN","","","","","","","","","","","","","","",""
"","S2","","html-keyboard-response","61","96464","0.0-1.0-85.0","0","0","55547","","null","","","null","9","","NaN","","","","","","","","","","","","","",""
"","response","","html-keyboard-response","62","96748","0.0-1.0-86.0-0.0","0","0","55547","","282","","","75","9","","","1","9","training","adjacent","CD","3","4","P.jpg","N.jpg","1","1","1","",""
"","feedback","","html-keyboard-response","63","97750","0.0-1.0-87.0-0.0","0","0","55547","","null","","","null","9","","","","","","","","","","","","","","","",""
"","ITI","","html-keyboard-response","64","98753","0.0-1.0-90.0","0","0","55547","","null","","","null","9","","","","","","","","","","","","","","","NaN",""
"","S1","","html-keyboard-response","65","99006","0.0-1.0-92.0","0","0","55547","","null","","","null","10","","","","","","","","","","","","","","","",""
"","ISI","","html-keyboard-response","66","99159","0.0-1.0-93.0","0","0","55547","","null","","","null","10","NaN","","","","","","","","","","","","","","",""
"","S2","","html-keyboard-response","67","99414","0.0-1.0-94.0","0","0","55547","","null","","","null","10","","NaN","","","","","","","","","","","","","",""
"","response","","html-keyboard-response","68","99783","0.0-1.0-95.0-0.0","0","0","55547","","367","","","75","10","","","1","10","training","adjacent","FE","6","5","M.jpg","R.jpg","1","0","0","",""
"","feedback","","html-keyboard-response","69","100787","0.0-1.0-96.0-0.0","0","0","55547","","null","","","null","10","","","","","","","","","","","","","","","",""
"","time_out","","html-keyboard-response","70","102790","0.0-1.0-98.0-0.0","0","0","55547","","null","","","null","10","","","","","","","","","","","","","","","",""
"","ITI","","html-keyboard-response","71","103793","0.0-1.0-99.0","0","0","55547","","null","","","null","10","","","","","","","","","","","","","","","NaN",""
"","S1","","html-keyboard-response","72","104048","0.0-1.0-101.0","0","0","55547","","null","","","null","11","","","","","","","","","","","","","","","",""
"","ISI","","html-keyboard-response","73","104200","0.0-1.0-102.0","0","0","55547","","null","","","null","11","NaN","","","","","","","","","","","","","","",""
"","S2","","html-keyboard-response","74","104454","0.0-1.0-103.0","0","0","55547","","null","","","null","11","","NaN","","","","","","","","","","","","","",""
"","response","","html-keyboard-response","75","104771","0.0-1.0-104.0-0.0","0","0","55547","","314","","","68","11","","","1","11","training","adjacent","BA","2","1","O.jpg","Q.jpg","0","0","1","",""
"","feedback","","html-keyboard-response","76","105775","0.0-1.0-105.0-0.0","0","0","55547","","null","","","null","11","","","","","","","","","","","","","","","",""
"","ITI","","html-keyboard-response","77","106779","0.0-1.0-108.0","0","0","55547","","null","","","null","11","","","","","","","","","","","","","","","NaN",""
"","S1","","html-keyboard-response","78","107035","0.0-1.0-110.0","0","0","55547","","null","","","null","12","","","","","","","","","","","","","","","",""
"","ISI","","html-keyboard-response","79","107188","0.0-1.0-111.0","0","0","55547","","null","","","null","12","NaN","","","","","","","","","","","","","","",""
"","S2","","html-keyboard-response","80","107442","0.0-1.0-112.0","0","0","55547","","null","","","null","12","","NaN","","","","","","","","","","","","","",""
"","response","","html-keyboard-response","81","107738","0.0-1.0-113.0-0.0","0","0","55547","","294","","","75","12","","","1","12","training","adjacent","CB","3","2","P.jpg","O.jpg","1","0","0","",""
"","feedback","","html-keyboard-response","82","108742","0.0-1.0-114.0-0.0","0","0","55547","","null","","","null","12","","","","","","","","","","","","","","","",""
"","time_out","","html-keyboard-response","83","110750","0.0-1.0-116.0-0.0","0","0","55547","","null","","","null","12","","","","","","","","","","","","","","","",""
"","ITI","","html-keyboard-response","84","111754","0.0-1.0-117.0","0","0","55547","","null","","","null","12","","","","","","","","","","","","","","","NaN",""
"","S1","","html-keyboard-response","85","112007","0.0-1.0-119.0","0","0","55547","","null","","","null","13","","","","","","","","","","","","","","","",""
"","ISI","","html-keyboard-response","86","112161","0.0-1.0-120.0","0","0","55547","","null","","","null","13","NaN","","","","","","","","","","","","","","",""
"","S2","","html-keyboard-response","87","112414","0.0-1.0-121.0","0","0","55547","","null","","","null","13","","NaN","","","","","","","","","","","","","",""
"","response","","html-keyboard-response","88","112755","0.0-1.0-122.0-0.0","0","0","55547","","338","","","68","13","","","1","13","training","adjacent","CD","3","4","P.jpg","N.jpg","0","1","0","",""
"","feedback","","html-keyboard-response","89","113770","0.0-1.0-123.0-0.0","0","0","55547","","null","","","null","13","","","","","","","","","","","","","","","",""
"","time_out","","html-keyboard-response","90","115774","0.0-1.0-125.0-0.0","0","0","55547","","null","","","null","13","","","","","","","","","","","","","","","",""
"","ITI","","html-keyboard-response","91","116777","0.0-1.0-126.0","0","0","55547","","null","","","null","13","","","","","","","","","","","","","","","NaN",""
"","S1","","html-keyboard-response","92","117029","0.0-1.0-128.0","0","0","55547","","null","","","null","14","","","","","","","","","","","","","","","",""
"","ISI","","html-keyboard-response","93","117183","0.0-1.0-129.0","0","0","55547","","null","","","null","14","NaN","","","","","","","","","","","","","","",""
"","S2","","html-keyboard-response","94","117438","0.0-1.0-130.0","0","0","55547","","null","","","null","14","","NaN","","","","","","","","","","","","","",""
"","response","","html-keyboard-response","95","117864","0.0-1.0-131.0-0.0","0","0","55547","","424","","","68","14","","","1","14","training","adjacent","CB","3","2","P.jpg","O.jpg","0","0","1","",""
"","feedback","","html-keyboard-response","96","118867","0.0-1.0-132.0-0.0","0","0","55547","","null","","","null","14","","","","","","","","","","","","","","","",""
"","ITI","","html-keyboard-response","97","119871","0.0-1.0-135.0","0","0","55547","","null","","","null","14","","","","","","","","","","","","","","","NaN",""
"","S1","","html-keyboard-response","98","120124","0.0-1.0-137.0","0","0","55547","","null","","","null","15","","","","","","","","","","","","","","","",""
"","ISI","","html-keyboard-response","99","120284","0.0-1.0-138.0","0","0","55547","","null","","","null","15","NaN","","","","","","","","","","","","","","",""
"","S2","","html-keyboard-response","100","120539","0.0-1.0-139.0","0","0","55547","","null","","","null","15","","NaN","","","","","","","","","","","","","",""
"","response","","html-keyboard-response","101","121477","0.0-1.0-140.0-0.0","0","0","55547","","937","","","68","15","","","1","15","training","adjacent","BA","2","1","O.jpg","Q.jpg","0","0","1","",""
"","feedback","","html-keyboard-response","102","122480","0.0-1.0-141.0-0.0","0","0","55547","","null","","","null","15","","","","","","","","","","","","","","","",""
"","ITI","","html-keyboard-response","103","123484","0.0-1.0-144.0","0","0","55547","","null","","","null","15","","","","","","","","","","","","","","","NaN",""
"","S1","","html-keyboard-response","104","123740","0.0-1.0-146.0","0","0","55547","","null","","","null","16","","","","","","","","","","","","","","","",""
"","ISI","","html-keyboard-response","105","123893","0.0-1.0-147.0","0","0","55547","","null","","","null","16","NaN","","","","","","","","","","","","","","",""
"","S2","","html-keyboard-response","106","124148","0.0-1.0-148.0","0","0","55547","","null","","","null","16","","NaN","","","","","","","","","","","","","",""
"","response","","html-keyboard-response","107","124692","0.0-1.0-149.0-0.0","0","0","55547","","542","","","75","16","","","1","16","training","adjacent","DE","4","5","N.jpg","R.jpg","1","1","1","",""
"","feedback","","html-keyboard-response","108","125696","0.0-1.0-150.0-0.0","0","0","55547","","null","","","null","16","","","","","","","","","","","","","","","",""
"","ITI","","html-keyboard-response","109","126700","0.0-1.0-153.0","0","0","55547","","null","","","null","16","","","","","","","","","","","","","","","NaN",""
"","S1","","html-keyboard-response","110","126954","0.0-1.0-155.0","0","0","55547","","null","","","null","17","","","","","","","","","","","","","","","",""
"","ISI","","html-keyboard-response","111","127108","0.0-1.0-156.0","0","0","55547","","null","","","null","17","NaN","","","","","","","","","","","","","","",""
"","S2","","html-keyboard-response","112","127361","0.0-1.0-157.0","0","0","55547","","null","","","null","17","","NaN","","","","","","","","","","","","","",""
"","response","","html-keyboard-response","113","127725","0.0-1.0-158.0-0.0","0","0","55547","","362","","","68","17","","","1","17","training","adjacent","BA","2","1","O.jpg","Q.jpg","0","0","1","",""
"","feedback","","html-keyboard-response","114","128729","0.0-1.0-159.0-0.0","0","0","55547","","null","","","null","17","","","","","","","","","","","","","","","",""
"","ITI","","html-keyboard-response","115","129732","0.0-1.0-162.0","0","0","55547","","null","","","null","17","","","","","","","","","","","","","","","NaN",""
"","S1","","html-keyboard-response","116","129987","0.0-1.0-164.0","0","0","55547","","null","","","null","18","","","","","","","","","","","","","","","",""
"","ISI","","html-keyboard-response","117","130142","0.0-1.0-165.0","0","0","55547","","null","","","null","18","NaN","","","","","","","","","","","","","","",""
"","S2","","html-keyboard-response","118","130396","0.0-1.0-166.0","0","0","55547","","null","","","null","18","","NaN","","","","","","","","","","","","","",""
"","response","","html-keyboard-response","119","130705","0.0-1.0-167.0-0.0","0","0","55547","","306","","","75","18","","","1","18","training","adjacent","GF","7","6","L.jpg","M.jpg","1","0","0","",""
"","feedback","","html-keyboard-response","120","131710","0.0-1.0-168.0-0.0","0","0","55547","","null","","","null","18","","","","","","","","","","","","","","","",""
"","time_out","","html-keyboard-response","121","133714","0.0-1.0-170.0-0.0","0","0","55547","","null","","","null","18","","","","","","","","","","","","","","","",""
"","ITI","","html-keyboard-response","122","134717","0.0-1.0-171.0","0","0","55547","","null","","","null","18","","","","","","","","","","","","","","","NaN",""
"","S1","","html-keyboard-response","123","134978","0.0-1.0-173.0","0","0","55547","","null","","","null","19","","","","","","","","","","","","","","","",""
"","ISI","","html-keyboard-response","124","135131","0.0-1.0-174.0","0","0","55547","","null","","","null","19","NaN","","","","","","","","","","","","","","",""
"","S2","","html-keyboard-response","125","135385","0.0-1.0-175.0","0","0","55547","","null","","","null","19","","NaN","","","","","","","","","","","","","",""
"","response","","html-keyboard-response","126","135797","0.0-1.0-176.0-0.0","0","0","55547","","409","","","75","19","","","1","19","training","adjacent","BC","2","3","O.jpg","P.jpg","1","1","1","",""
"","feedback","","html-keyboard-response","127","136801","0.0-1.0-177.0-0.0","0","0","55547","","null","","","null","19","","","","","","","","","","","","","","","",""
"","ITI","","html-keyboard-response","128","137805","0.0-1.0-180.0","0","0","55547","","null","","","null","19","","","","","","","","","","","","","","","NaN",""
"","S1","","html-keyboard-response","129","138058","0.0-1.0-182.0","0","0","55547","","null","","","null","20","","","","","","","","","","","","","","","",""
"","ISI","","html-keyboard-response","130","138213","0.0-1.0-183.0","0","0","55547","","null","","","null","20","NaN","","","","","","","","","","","","","","",""
"","S2","","html-keyboard-response","131","138467","0.0-1.0-184.0","0","0","55547","","null","","","null","20","","NaN","","","","","","","","","","","","","",""
"","response","","html-keyboard-response","132","138870","0.0-1.0-185.0-0.0","0","0","55547","","401","","","75","20","","","1","20","training","adjacent","DE","4","5","N.jpg","R.jpg","1","1","1","",""
"","feedback","","html-keyboard-response","133","139874","0.0-1.0-186.0-0.0","0","0","55547","","null","","","null","20","","","","","","","","","","","","","","","",""
"","ITI","","html-keyboard-response","134","140878","0.0-1.0-189.0","0","0","55547","","null","","","null","20","","","","","","","","","","","","","","","NaN",""
"","S1","","html-keyboard-response","135","141132","0.0-1.0-191.0","0","0","55547","","null","","","null","21","","","","","","","","","","","","","","","",""
"","ISI","","html-keyboard-response","136","141291","0.0-1.0-192.0","0","0","55547","","null","","","null","21","NaN","","","","","","","","","","","","","","",""
"","S2","","html-keyboard-response","137","141547","0.0-1.0-193.0","0","0","55547","","null","","","null","21","","NaN","","","","","","","","","","","","","",""
"","response","","html-keyboard-response","138","141757","0.0-1.0-194.0-0.0","0","0","55547","","208","","","75","21","","","1","21","training","adjacent","AB","1","2","Q.jpg","O.jpg","1","1","1","",""
"","feedback","","html-keyboard-response","139","142761","0.0-1.0-195.0-0.0","0","0","55547","","null","","","null","21","","","","","","","","","","","","","","","",""
"","ITI","","html-keyboard-response","140","143765","0.0-1.0-198.0","0","0","55547","","null","","","null","21","","","","","","","","","","","","","","","NaN",""
"","S1","","html-keyboard-response","141","144018","0.0-1.0-200.0","0","0","55547","","null","","","null","22","","","","","","","","","","","","","","","",""
"","ISI","","html-keyboard-response","142","144171","0.0-1.0-201.0","0","0","55547","","null","","","null","22","NaN","","","","","","","","","","","","","","",""
"","S2","","html-keyboard-response","143","144424","0.0-1.0-202.0","0","0","55547","","null","","","null","22","","NaN","","","","","","","","","","","","","",""
"","response","","html-keyboard-response","144","144760","0.0-1.0-203.0-0.0","0","0","55547","","335","","","75","22","","","1","22","training","adjacent","BC","2","3","O.jpg","P.jpg","1","1","1","",""
"","feedback","","html-keyboard-response","145","145765","0.0-1.0-204.0-0.0","0","0","55547","","null","","","null","22","","","","","","","","","","","","","","","",""
"","ITI","","html-keyboard-response","146","146767","0.0-1.0-207.0","0","0","55547","","null","","","null","22","","","","","","","","","","","","","","","NaN",""
"","S1","","html-keyboard-response","147","147020","0.0-1.0-209.0","0","0","55547","","null","","","null","23","","","","","","","","","","","","","","","",""
"","ISI","","html-keyboard-response","148","147172","0.0-1.0-210.0","0","0","55547","","null","","","null","23","NaN","","","","","","","","","","","","","","",""
"","S2","","html-keyboard-response","149","147425","0.0-1.0-211.0","0","0","55547","","null","","","null","23","","NaN","","","","","","","","","","","","","",""
"","response","","html-keyboard-response","150","148107","0.0-1.0-212.0-0.0","0","0","55547","","680","","","68","23","","","1","23","training","adjacent","ED","5","4","R.jpg","N.jpg","0","0","1","",""
"","feedback","","html-keyboard-response","151","149111","0.0-1.0-213.0-0.0","0","0","55547","","null","","","null","23","","","","","","","","","","","","","","","",""
"","ITI","","html-keyboard-response","152","150115","0.0-1.0-216.0","0","0","55547","","null","","","null","23","","","","","","","","","","","","","","","NaN",""
"","S1","","html-keyboard-response","153","150368","0.0-1.0-218.0","0","0","55547","","null","","","null","24","","","","","","","","","","","","","","","",""
"","ISI","","html-keyboard-response","154","150521","0.0-1.0-219.0","0","0","55547","","null","","","null","24","NaN","","","","","","","","","","","","","","",""
"","S2","","html-keyboard-response","155","150781","0.0-1.0-220.0","0","0","55547","","null","","","null","24","","NaN","","","","","","","","","","","","","",""
"","response","","html-keyboard-response","156","151126","0.0-1.0-221.0-0.0","0","0","55547","","341","","","68","24","","","1","24","training","adjacent","CB","3","2","P.jpg","O.jpg","0","0","1","",""
"","feedback","","html-keyboard-response","157","152130","0.0-1.0-222.0-0.0","0","0","55547","","null","","","null","24","","","","","","","","","","","","","","","",""
"","ITI","","html-keyboard-response","158","153135","0.0-1.0-225.0","0","0","55547","","null","","","null","24","","","","","","","","","","","","","","","NaN",""
"","S1","","html-keyboard-response","159","153387","0.0-1.0-227.0","0","0","55547","","null","","","null","25","","","","","","","","","","","","","","","",""
"","ISI","","html-keyboard-response","160","153540","0.0-1.0-228.0","0","0","55547","","null","","","null","25","NaN","","","","","","","","","","","","","","",""
"","S2","","html-keyboard-response","161","153793","0.0-1.0-229.0","0","0","55547","","null","","","null","25","","NaN","","","","","","","","","","","","","",""
"","response","","html-keyboard-response","162","154189","0.0-1.0-230.0-0.0","0","0","55547","","394","","","68","25","","","1","25","training","adjacent","GF","7","6","L.jpg","M.jpg","0","0","1","",""
"","feedback","","html-keyboard-response","163","155193","0.0-1.0-231.0-0.0","0","0","55547","","null","","","null","25","","","","","","","","","","","","","","","",""
"","ITI","","html-keyboard-response","164","156197","0.0-1.0-234.0","0","0","55547","","null","","","null","25","","","","","","","","","","","","","","","NaN",""
"","S1","","html-keyboard-response","165","156453","0.0-1.0-236.0","0","0","55547","","null","","","null","26","","","","","","","","","","","","","","","",""
"","ISI","","html-keyboard-response","166","156607","0.0-1.0-237.0","0","0","55547","","null","","","null","26","NaN","","","","","","","","","","","","","","",""
"","S2","","html-keyboard-response","167","156861","0.0-1.0-238.0","0","0","55547","","null","","","null","26","","NaN","","","","","","","","","","","","","",""
"","response","","html-keyboard-response","168","157186","0.0-1.0-239.0-0.0","0","0","55547","","323","","","75","26","","","1","26","training","adjacent","BC","2","3","O.jpg","P.jpg","1","1","1","",""
"","feedback","","html-keyboard-response","169","158189","0.0-1.0-240.0-0.0","0","0","55547","","null","","","null","26","","","","","","","","","","","","","","","",""
"","ITI","","html-keyboard-response","170","159192","0.0-1.0-243.0","0","0","55547","","null","","","null","26","","","","","","","","","","","","","","","NaN",""
"","S1","","html-keyboard-response","171","159445","0.0-1.0-245.0","0","0","55547","","null","","","null","27","","","","","","","","","","","","","","","",""
"","ISI","","html-keyboard-response","172","159598","0.0-1.0-246.0","0","0","55547","","null","","","null","27","NaN","","","","","","","","","","","","","","",""
"","S2","","html-keyboard-response","173","159852","0.0-1.0-247.0","0","0","55547","","null","","","null","27","","NaN","","","","","","","","","","","","","",""
"","response","","html-keyboard-response","174","160262","0.0-1.0-248.0-0.0","0","0","55547","","407","","","68","27","","","1","27","training","adjacent","ED","5","4","R.jpg","N.jpg","0","0","1","",""
"","feedback","","html-keyboard-response","175","161267","0.0-1.0-249.0-0.0","0","0","55547","","null","","","null","27","","","","","","","","","","","","","","","",""
"","ITI","","html-keyboard-response","176","162272","0.0-1.0-252.0","0","0","55547","","null","","","null","27","","","","","","","","","","","","","","","NaN",""
"","S1","","html-keyboard-response","177","162526","0.0-1.0-254.0","0","0","55547","","null","","","null","28","","","","","","","","","","","","","","","",""
"","ISI","","html-keyboard-response","178","162679","0.0-1.0-255.0","0","0","55547","","null","","","null","28","NaN","","","","","","","","","","","","","","",""
"","S2","","html-keyboard-response","179","162933","0.0-1.0-256.0","0","0","55547","","null","","","null","28","","NaN","","","","","","","","","","","","","",""
"","response","","html-keyboard-response","180","163275","0.0-1.0-257.0-0.0","0","0","55547","","339","","","68","28","","","1","28","training","adjacent","CD","3","4","P.jpg","N.jpg","0","1","0","",""
"","feedback","","html-keyboard-response","181","164292","0.0-1.0-258.0-0.0","0","0","55547","","null","","","null","28","","","","","","","","","","","","","","","",""
"","time_out","","html-keyboard-response","182","166295","0.0-1.0-260.0-0.0","0","0","55547","","null","","","null","28","","","","","","","","","","","","","","","",""
"","ITI","","html-keyboard-response","183","167297","0.0-1.0-261.0","0","0","55547","","null","","","null","28","","","","","","","","","","","","","","","NaN",""
"","S1","","html-keyboard-response","184","167552","0.0-1.0-263.0","0","0","55547","","null","","","null","29","","","","","","","","","","","","","","","",""
"","ISI","","html-keyboard-response","185","167706","0.0-1.0-264.0","0","0","55547","","null","","","null","29","NaN","","","","","","","","","","","","","","",""
"","S2","","html-keyboard-response","186","167960","0.0-1.0-265.0","0","0","55547","","null","","","null","29","","NaN","","","","","","","","","","","","","",""
"","response","","html-keyboard-response","187","168250","0.0-1.0-266.0-0.0","0","0","55547","","287","","","75","29","","","1","29","training","adjacent","FG","6","7","M.jpg","L.jpg","1","1","1","",""
"","feedback","","html-keyboard-response","188","169253","0.0-1.0-267.0-0.0","0","0","55547","","null","","","null","29","","","","","","","","","","","","","","","",""
"","ITI","","html-keyboard-response","189","170259","0.0-1.0-270.0","0","0","55547","","null","","","null","29","","","","","","","","","","","","","","","NaN",""
"","S1","","html-keyboard-response","190","170512","0.0-1.0-272.0","0","0","55547","","null","","","null","30","","","","","","","","","","","","","","","",""
"","ISI","","html-keyboard-response","191","170666","0.0-1.0-273.0","0","0","55547","","null","","","null","30","NaN","","","","","","","","","","","","","","",""
"","S2","","html-keyboard-response","192","170921","0.0-1.0-274.0","0","0","55547","","null","","","null","30","","NaN","","","","","","","","","","","","","",""
"","response","","html-keyboard-response","193","171381","0.0-1.0-275.0-0.0","0","0","55547","","456","","","75","30","","","1","30","training","adjacent","FE","6","5","M.jpg","R.jpg","1","0","0","",""
"","feedback","","html-keyboard-response","194","172385","0.0-1.0-276.0-0.0","0","0","55547","","null","","","null","30","","","","","","","","","","","","","","","",""
"","time_out","","html-keyboard-response","195","174389","0.0-1.0-278.0-0.0","0","0","55547","","null","","","null","30","","","","","","","","","","","","","","","",""
"","ITI","","html-keyboard-response","196","175394","0.0-1.0-279.0","0","0","55547","","null","","","null","30","","","","","","","","","","","","","","","NaN",""
"","S1","","html-keyboard-response","197","175648","0.0-1.0-281.0","0","0","55547","","null","","","null","31","","","","","","","","","","","","","","","",""
"","ISI","","html-keyboard-response","198","175801","0.0-1.0-282.0","0","0","55547","","null","","","null","31","NaN","","","","","","","","","","","","","","",""
"","S2","","html-keyboard-response","199","176055","0.0-1.0-283.0","0","0","55547","","null","","","null","31","","NaN","","","","","","","","","","","","","",""
"","response","","html-keyboard-response","200","177033","0.0-1.0-284.0-0.0","0","0","55547","","975","","","68","31","","","1","31","training","adjacent","EF","5","6","R.jpg","M.jpg","0","1","0","",""
"","feedback","","html-keyboard-response","201","178037","0.0-1.0-285.0-0.0","0","0","55547","","null","","","null","31","","","","","","","","","","","","","","","",""
"","time_out","","html-keyboard-response","202","180040","0.0-1.0-287.0-0.0","0","0","55547","","null","","","null","31","","","","","","","","","","","","","","","",""
"","ITI","","html-keyboard-response","203","181045","0.0-1.0-288.0","0","0","55547","","null","","","null","31","","","","","","","","","","","","","","","NaN",""
"","S1","","html-keyboard-response","204","181299","0.0-1.0-290.0","0","0","55547","","null","","","null","32","","","","","","","","","","","","","","","",""
"","ISI","","html-keyboard-response","205","181452","0.0-1.0-291.0","0","0","55547","","null","","","null","32","NaN","","","","","","","","","","","","","","",""
"","S2","","html-keyboard-response","206","181705","0.0-1.0-292.0","0","0","55547","","null","","","null","32","","NaN","","","","","","","","","","","","","",""
"","response","","html-keyboard-response","207","181965","0.0-1.0-293.0-0.0","0","0","55547","","257","","","75","32","","","1","32","training","adjacent","DC","4","3","N.jpg","P.jpg","1","0","0","",""
"","feedback","","html-keyboard-response","208","182983","0.0-1.0-294.0-0.0","0","0","55547","","null","","","null","32","","","","","","","","","","","","","","","",""
"","time_out","","html-keyboard-response","209","184985","0.0-1.0-296.0-0.0","0","0","55547","","null","","","null","32","","","","","","","","","","","","","","","",""
"","ITI","","html-keyboard-response","210","185989","0.0-1.0-297.0","0","0","55547","","null","","","null","32","","","","","","","","","","","","","","","NaN",""
"","S1","","html-keyboard-response","211","186244","0.0-1.0-299.0","0","0","55547","","null","","","null","33","","","","","","","","","","","","","","","",""
"","ISI","","html-keyboard-response","212","186398","0.0-1.0-300.0","0","0","55547","","null","","","null","33","NaN","","","","","","","","","","","","","","",""
"","S2","","html-keyboard-response","213","186652","0.0-1.0-301.0","0","0","55547","","null","","","null","33","","NaN","","","","","","","","","","","","","",""
"","response","","html-keyboard-response","214","187034","0.0-1.0-302.0-0.0","0","0","55547","","381","","","75","33","","","1","33","training","adjacent","GF","7","6","L.jpg","M.jpg","1","0","0","",""
"","feedback","","html-keyboard-response","215","188047","0.0-1.0-303.0-0.0","0","0","55547","","null","","","null","33","","","","","","","","","","","","","","","",""
"","time_out","","html-keyboard-response","216","190050","0.0-1.0-305.0-0.0","0","0","55547","","null","","","null","33","","","","","","","","","","","","","","","",""
"","ITI","","html-keyboard-response","217","191053","0.0-1.0-306.0","0","0","55547","","null","","","null","33","","","","","","","","","","","","","","","NaN",""
"","S1","","html-keyboard-response","218","191306","0.0-1.0-308.0","0","0","55547","","null","","","null","34","","","","","","","","","","","","","","","",""
"","ISI","","html-keyboard-response","219","191459","0.0-1.0-309.0","0","0","55547","","null","","","null","34","NaN","","","","","","","","","","","","","","",""
"","S2","","html-keyboard-response","220","191713","0.0-1.0-310.0","0","0","55547","","null","","","null","34","","NaN","","","","","","","","","","","","","",""
"","response","","html-keyboard-response","221","191922","0.0-1.0-311.0-0.0","0","0","55547","","205","","","75","34","","","1","34","training","adjacent","AB","1","2","Q.jpg","O.jpg","1","1","1","",""
"","feedback","","html-keyboard-response","222","192927","0.0-1.0-312.0-0.0","0","0","55547","","null","","","null","34","","","","","","","","","","","","","","","",""
"","ITI","","html-keyboard-response","223","193932","0.0-1.0-315.0","0","0","55547","","null","","","null","34","","","","","","","","","","","","","","","NaN",""
"","S1","","html-keyboard-response","224","194186","0.0-1.0-317.0","0","0","55547","","null","","","null","35","","","","","","","","","","","","","","","",""
"","ISI","","html-keyboard-response","225","194339","0.0-1.0-318.0","0","0","55547","","null","","","null","35","NaN","","","","","","","","","","","","","","",""
"","S2","","html-keyboard-response","226","194593","0.0-1.0-319.0","0","0","55547","","null","","","null","35","","NaN","","","","","","","","","","","","","",""
"","response","","html-keyboard-response","227","195074","0.0-1.0-320.0-0.0","0","0","55547","","478","","","75","35","","","1","35","training","adjacent","BC","2","3","O.jpg","P.jpg","1","1","1","",""
"","feedback","","html-keyboard-response","228","196077","0.0-1.0-321.0-0.0","0","0","55547","","null","","","null","35","","","","","","","","","","","","","","","",""
"","ITI","","html-keyboard-response","229","197081","0.0-1.0-324.0","0","0","55547","","null","","","null","35","","","","","","","","","","","","","","","NaN",""
"","S1","","html-keyboard-response","230","197334","0.0-1.0-326.0","0","0","55547","","null","","","null","36","","","","","","","","","","","","","","","",""
"","ISI","","html-keyboard-response","231","197487","0.0-1.0-327.0","0","0","55547","","null","","","null","36","NaN","","","","","","","","","","","","","","",""
"","S2","","html-keyboard-response","232","197740","0.0-1.0-328.0","0","0","55547","","null","","","null","36","","NaN","","","","","","","","","","","","","",""
"","response","","html-keyboard-response","233","198146","0.0-1.0-329.0-0.0","0","0","55547","","403","","","75","36","","","1","36","training","adjacent","DC","4","3","N.jpg","P.jpg","1","0","0","",""
"","feedback","","html-keyboard-response","234","199151","0.0-1.0-330.0-0.0","0","0","55547","","null","","","null","36","","","","","","","","","","","","","","","",""
"","time_out","","html-keyboard-response","235","201155","0.0-1.0-332.0-0.0","0","0","55547","","null","","","null","36","","","","","","","","","","","","","","","",""
"","ITI","","html-keyboard-response","236","202158","0.0-1.0-333.0","0","0","55547","","null","","","null","36","","","","","","","","","","","","","","","NaN",""
"","S1","","html-keyboard-response","237","202411","0.0-1.0-335.0","0","0","55547","","null","","","null","37","","","","","","","","","","","","","","","",""
"","ISI","","html-keyboard-response","238","202565","0.0-1.0-336.0","0","0","55547","","null","","","null","37","NaN","","","","","","","","","","","","","","",""
"","S2","","html-keyboard-response","239","202820","0.0-1.0-337.0","0","0","55547","","null","","","null","37","","NaN","","","","","","","","","","","","","",""
"","response","","html-keyboard-response","240","203653","0.0-1.0-338.0-0.0","0","0","55547","","829","","","68","37","","","1","37","training","adjacent","FE","6","5","M.jpg","R.jpg","0","0","1","",""
"","feedback","","html-keyboard-response","241","204656","0.0-1.0-339.0-0.0","0","0","55547","","null","","","null","37","","","","","","","","","","","","","","","",""
"","ITI","","html-keyboard-response","242","205664","0.0-1.0-342.0","0","0","55547","","null","","","null","37","","","","","","","","","","","","","","","NaN",""
"","S1","","html-keyboard-response","243","205917","0.0-1.0-344.0","0","0","55547","","null","","","null","38","","","","","","","","","","","","","","","",""
"","ISI","","html-keyboard-response","244","206072","0.0-1.0-345.0","0","0","55547","","null","","","null","38","NaN","","","","","","","","","","","","","","",""
"","S2","","html-keyboard-response","245","206325","0.0-1.0-346.0","0","0","55547","","null","","","null","38","","NaN","","","","","","","","","","","","","",""
"","response","","html-keyboard-response","246","206755","0.0-1.0-347.0-0.0","0","0","55547","","427","","","68","38","","","1","38","training","adjacent","CB","3","2","P.jpg","O.jpg","0","0","1","",""
"","feedback","","html-keyboard-response","247","207759","0.0-1.0-348.0-0.0","0","0","55547","","null","","","null","38","","","","","","","","","","","","","","","",""
"","ITI","","html-keyboard-response","248","208763","0.0-1.0-351.0","0","0","55547","","null","","","null","38","","","","","","","","","","","","","","","NaN",""
"","S1","","html-keyboard-response","249","209017","0.0-1.0-353.0","0","0","55547","","null","","","null","39","","","","","","","","","","","","","","","",""
"","ISI","","html-keyboard-response","250","209173","0.0-1.0-354.0","0","0","55547","","null","","","null","39","NaN","","","","","","","","","","","","","","",""
"","S2","","html-keyboard-response","251","209425","0.0-1.0-355.0","0","0","55547","","null","","","null","39","","NaN","","","","","","","","","","","","","",""
"","response","","html-keyboard-response","252","209972","0.0-1.0-356.0-0.0","0","0","55547","","544","","","68","39","","","1","39","training","adjacent","ED","5","4","R.jpg","N.jpg","0","0","1","",""
"","feedback","","html-keyboard-response","253","210974","0.0-1.0-357.0-0.0","0","0","55547","","null","","","null","39","","","","","","","","","","","","","","","",""
"","ITI","","html-keyboard-response","254","211981","0.0-1.0-360.0","0","0","55547","","null","","","null","39","","","","","","","","","","","","","","","NaN",""
"","S1","","html-keyboard-response","255","212235","0.0-1.0-362.0","0","0","55547","","null","","","null","40","","","","","","","","","","","","","","","",""
"","ISI","","html-keyboard-response","256","212388","0.0-1.0-363.0","0","0","55547","","null","","","null","40","NaN","","","","","","","","","","","","","","",""
"","S2","","html-keyboard-response","257","212642","0.0-1.0-364.0","0","0","55547","","null","","","null","40","","NaN","","","","","","","","","","","","","",""
"","response","","html-keyboard-response","258","213262","0.0-1.0-365.0-0.0","0","0","55547","","618","","","68","40","","","1","40","training","adjacent","FE","6","5","M.jpg","R.jpg","0","0","1","",""
"","feedback","","html-keyboard-response","259","214265","0.0-1.0-366.0-0.0","0","0","55547","","null","","","null","40","","","","","","","","","","","","","","","",""
"","ITI","","html-keyboard-response","260","215269","0.0-1.0-369.0","0","0","55547","","null","","","null","40","","","","","","","","","","","","","","","NaN",""
"","S1","","html-keyboard-response","261","215525","0.0-1.0-371.0","0","0","55547","","null","","","null","41","","","","","","","","","","","","","","","",""
"","ISI","","html-keyboard-response","262","215678","0.0-1.0-372.0","0","0","55547","","null","","","null","41","NaN","","","","","","","","","","","","","","",""
"","S2","","html-keyboard-response","263","215931","0.0-1.0-373.0","0","0","55547","","null","","","null","41","","NaN","","","","","","","","","","","","","",""
"","response","","html-keyboard-response","264","216426","0.0-1.0-374.0-0.0","0","0","55547","","493","","","75","41","","","1","41","training","adjacent","FG","6","7","M.jpg","L.jpg","1","1","1","",""
"","feedback","","html-keyboard-response","265","217429","0.0-1.0-375.0-0.0","0","0","55547","","null","","","null","41","","","","","","","","","","","","","","","",""
"","ITI","","html-keyboard-response","266","218432","0.0-1.0-378.0","0","0","55547","","null","","","null","41","","","","","","","","","","","","","","","NaN",""
"","S1","","html-keyboard-response","267","218685","0.0-1.0-380.0","0","0","55547","","null","","","null","42","","","","","","","","","","","","","","","",""
"","ISI","","html-keyboard-response","268","218838","0.0-1.0-381.0","0","0","55547","","null","","","null","42","NaN","","","","","","","","","","","","","","",""
"","S2","","html-keyboard-response","269","219094","0.0-1.0-382.0","0","0","55547","","null","","","null","42","","NaN","","","","","","","","","","","","","",""
"","response","","html-keyboard-response","270","219585","0.0-1.0-383.0-0.0","0","0","55547","","490","","","75","42","","","1","42","training","adjacent","FG","6","7","M.jpg","L.jpg","1","1","1","",""
"","feedback","","html-keyboard-response","271","220590","0.0-1.0-384.0-0.0","0","0","55547","","null","","","null","42","","","","","","","","","","","","","","","",""
"","ITI","","html-keyboard-response","272","221596","0.0-1.0-387.0","0","0","55547","","null","","","null","42","","","","","","","","","","","","","","","NaN",""
"","S1","","html-keyboard-response","273","221849","0.0-1.0-389.0","0","0","55547","","null","","","null","43","","","","","","","","","","","","","","","",""
"","ISI","","html-keyboard-response","274","222003","0.0-1.0-390.0","0","0","55547","","null","","","null","43","NaN","","","","","","","","","","","","","","",""
"","S2","","html-keyboard-response","275","222257","0.0-1.0-391.0","0","0","55547","","null","","","null","43","","NaN","","","","","","","","","","","","","",""
"","response","","html-keyboard-response","276","222679","0.0-1.0-392.0-0.0","0","0","55547","","417","","","68","43","","","1","43","training","adjacent","BA","2","1","O.jpg","Q.jpg","0","0","1","",""
"","feedback","","html-keyboard-response","277","223683","0.0-1.0-393.0-0.0","0","0","55547","","null","","","null","43","","","","","","","","","","","","","","","",""
"","ITI","","html-keyboard-response","278","224688","0.0-1.0-396.0","0","0","55547","","null","","","null","43","","","","","","","","","","","","","","","NaN",""
"","S1","","html-keyboard-response","279","224943","0.0-1.0-398.0","0","0","55547","","null","","","null","44","","","","","","","","","","","","","","","",""
"","ISI","","html-keyboard-response","280","225096","0.0-1.0-399.0","0","0","55547","","null","","","null","44","NaN","","","","","","","","","","","","","","",""
"","S2","","html-keyboard-response","281","225349","0.0-1.0-400.0","0","0","55547","","null","","","null","44","","NaN","","","","","","","","","","","","","",""
"","response","","html-keyboard-response","282","225756","0.0-1.0-401.0-0.0","0","0","55547","","404","","","75","44","","","1","44","training","adjacent","EF","5","6","R.jpg","M.jpg","1","1","1","",""
"","feedback","","html-keyboard-response","283","226762","0.0-1.0-402.0-0.0","0","0","55547","","null","","","null","44","","","","","","","","","","","","","","","",""
"","ITI","","html-keyboard-response","284","227766","0.0-1.0-405.0","0","0","55547","","null","","","null","44","","","","","","","","","","","","","","","NaN",""
"","S1","","html-keyboard-response","285","228020","0.0-1.0-407.0","0","0","55547","","null","","","null","45","","","","","","","","","","","","","","","",""
"","ISI","","html-keyboard-response","286","228175","0.0-1.0-408.0","0","0","55547","","null","","","null","45","NaN","","","","","","","","","","","","","","",""
"","S2","","html-keyboard-response","287","228430","0.0-1.0-409.0","0","0","55547","","null","","","null","45","","NaN","","","","","","","","","","","","","",""
"","response","","html-keyboard-response","288","228801","0.0-1.0-410.0-0.0","0","0","55547","","368","","","75","45","","","1","45","training","adjacent","FG","6","7","M.jpg","L.jpg","1","1","1","",""
"","feedback","","html-keyboard-response","289","229805","0.0-1.0-411.0-0.0","0","0","55547","","null","","","null","45","","","","","","","","","","","","","","","",""
"","ITI","","html-keyboard-response","290","230809","0.0-1.0-414.0","0","0","55547","","null","","","null","45","","","","","","","","","","","","","","","NaN",""
"","S1","","html-keyboard-response","291","231063","0.0-1.0-416.0","0","0","55547","","null","","","null","46","","","","","","","","","","","","","","","",""
"","ISI","","html-keyboard-response","292","231217","0.0-1.0-417.0","0","0","55547","","null","","","null","46","NaN","","","","","","","","","","","","","","",""
"","S2","","html-keyboard-response","293","231472","0.0-1.0-418.0","0","0","55547","","null","","","null","46","","NaN","","","","","","","","","","","","","",""
"","response","","html-keyboard-response","294","231835","0.0-1.0-419.0-0.0","0","0","55547","","360","","","68","46","","","1","46","training","adjacent","GF","7","6","L.jpg","M.jpg","0","0","1","",""
"","feedback","","html-keyboard-response","295","232839","0.0-1.0-420.0-0.0","0","0","55547","","null","","","null","46","","","","","","","","","","","","","","","",""
"","ITI","","html-keyboard-response","296","233843","0.0-1.0-423.0","0","0","55547","","null","","","null","46","","","","","","","","","","","","","","","NaN",""
"","S1","","html-keyboard-response","297","234098","0.0-1.0-425.0","0","0","55547","","null","","","null","47","","","","","","","","","","","","","","","",""
"","ISI","","html-keyboard-response","298","234252","0.0-1.0-426.0","0","0","55547","","null","","","null","47","NaN","","","","","","","","","","","","","","",""
"","S2","","html-keyboard-response","299","234505","0.0-1.0-427.0","0","0","55547","","null","","","null","47","","NaN","","","","","","","","","","","","","",""
"","response","","html-keyboard-response","300","234857","0.0-1.0-428.0-0.0","0","0","55547","","350","","","75","47","","","1","47","training","adjacent","DC","4","3","N.jpg","P.jpg","1","0","0","",""
"","feedback","","html-keyboard-response","301","235862","0.0-1.0-429.0-0.0","0","0","55547","","null","","","null","47","","","","","","","","","","","","","","","",""
"","time_out","","html-keyboard-response","302","237867","0.0-1.0-431.0-0.0","0","0","55547","","null","","","null","47","","","","","","","","","","","","","","","",""
"","ITI","","html-keyboard-response","303","238871","0.0-1.0-432.0","0","0","55547","","null","","","null","47","","","","","","","","","","","","","","","NaN",""
"","block_over","","html-keyboard-response","304","243958","0.0-1.0-433.0-0.0","0","0","55547","","5084","","","32","47","","","","","","","","","","","","","","","",""
"","S1","","html-keyboard-response","305","244213","0.0-1.0-434.0","0","0","55547","","null","","","null","48","","","","","","","","","","","","","","","",""
"","ISI","","html-keyboard-response","306","244367","0.0-1.0-435.0","0","0","55547","","null","","","null","48","NaN","","","","","","","","","","","","","","",""
"","S2","","html-keyboard-response","307","244620","0.0-1.0-436.0","0","0","55547","","null","","","null","48","","NaN","","","","","","","","","","","","","",""
"","response","","html-keyboard-response","308","245090","0.0-1.0-437.0-0.0","0","0","55547","","467","","","68","48","","","2","48","training","adjacent","FE","6","5","M.jpg","R.jpg","0","0","1","",""
"","feedback","","html-keyboard-response","309","246093","0.0-1.0-438.0-0.0","0","0","55547","","null","","","null","48","","","","","","","","","","","","","","","",""
"","ITI","","html-keyboard-response","310","247106","0.0-1.0-441.0","0","0","55547","","null","","","null","48","","","","","","","","","","","","","","","NaN",""
"","S1","","html-keyboard-response","311","247360","0.0-1.0-443.0","0","0","55547","","null","","","null","49","","","","","","","","","","","","","","","",""
"","ISI","","html-keyboard-response","312","247513","0.0-1.0-444.0","0","0","55547","","null","","","null","49","NaN","","","","","","","","","","","","","","",""
"","S2","","html-keyboard-response","313","247768","0.0-1.0-445.0","0","0","55547","","null","","","null","49","","NaN","","","","","","","","","","","","","",""
"","response","","html-keyboard-response","314","248725","0.0-1.0-446.0-0.0","0","0","55547","","953","","","68","49","","","2","49","training","adjacent","ED","5","4","R.jpg","N.jpg","0","0","1","",""
"","feedback","","html-keyboard-response","315","249729","0.0-1.0-447.0-0.0","0","0","55547","","null","","","null","49","","","","","","","","","","","","","","","",""
"","ITI","","html-keyboard-response","316","250738","0.0-1.0-450.0","0","0","55547","","null","","","null","49","","","","","","","","","","","","","","","NaN",""
"","S1","","html-keyboard-response","317","250991","0.0-1.0-452.0","0","0","55547","","null","","","null","50","","","","","","","","","","","","","","","",""
"","ISI","","html-keyboard-response","318","251144","0.0-1.0-453.0","0","0","55547","","null","","","null","50","NaN","","","","","","","","","","","","","","",""
"","S2","","html-keyboard-response","319","251398","0.0-1.0-454.0","0","0","55547","","null","","","null","50","","NaN","","","","","","","","","","","","","",""
"","response","","html-keyboard-response","320","251746","0.0-1.0-455.0-0.0","0","0","55547","","345","","","68","50","","","2","50","training","adjacent","GF","7","6","L.jpg","M.jpg","0","0","1","",""
"","feedback","","html-keyboard-response","321","252750","0.0-1.0-456.0-0.0","0","0","55547","","null","","","null","50","","","","","","","","","","","","","","","",""
"","ITI","","html-keyboard-response","322","253756","0.0-1.0-459.0","0","0","55547","","null","","","null","50","","","","","","","","","","","","","","","NaN",""
"","S1","","html-keyboard-response","323","254010","0.0-1.0-461.0","0","0","55547","","null","","","null","51","","","","","","","","","","","","","","","",""
"","ISI","","html-keyboard-response","324","254163","0.0-1.0-462.0","0","0","55547","","null","","","null","51","NaN","","","","","","","","","","","","","","",""
"","S2","","html-keyboard-response","325","254417","0.0-1.0-463.0","0","0","55547","","null","","","null","51","","NaN","","","","","","","","","","","","","",""
"","response","","html-keyboard-response","326","255017","0.0-1.0-464.0-0.0","0","0","55547","","597","","","68","51","","","2","51","training","adjacent","BC","2","3","O.jpg","P.jpg","0","1","0","",""
"","feedback","","html-keyboard-response","327","256022","0.0-1.0-465.0-0.0","0","0","55547","","null","","","null","51","","","","","","","","","","","","","","","",""
"","time_out","","html-keyboard-response","328","258025","0.0-1.0-467.0-0.0","0","0","55547","","null","","","null","51","","","","","","","","","","","","","","","",""
"","ITI","","html-keyboard-response","329","259029","0.0-1.0-468.0","0","0","55547","","null","","","null","51","","","","","","","","","","","","","","","NaN",""
"","S1","","html-keyboard-response","330","259282","0.0-1.0-470.0","0","0","55547","","null","","","null","52","","","","","","","","","","","","","","","",""
"","ISI","","html-keyboard-response","331","259435","0.0-1.0-471.0","0","0","55547","","null","","","null","52","NaN","","","","","","","","","","","","","","",""
"","S2","","html-keyboard-response","332","259691","0.0-1.0-472.0","0","0","55547","","null","","","null","52","","NaN","","","","","","","","","","","","","",""
"","response","","html-keyboard-response","333","260184","0.0-1.0-473.0-0.0","0","0","55547","","490","","","68","52","","","2","52","training","adjacent","ED","5","4","R.jpg","N.jpg","0","0","1","",""
"","feedback","","html-keyboard-response","334","261189","0.0-1.0-474.0-0.0","0","0","55547","","null","","","null","52","","","","","","","","","","","","","","","",""
"","ITI","","html-keyboard-response","335","262198","0.0-1.0-477.0","0","0","55547","","null","","","null","52","","","","","","","","","","","","","","","NaN",""
"","S1","","html-keyboard-response","336","262452","0.0-1.0-479.0","0","0","55547","","null","","","null","53","","","","","","","","","","","","","","","",""
"","ISI","","html-keyboard-response","337","262606","0.0-1.0-480.0","0","0","55547","","null","","","null","53","NaN","","","","","","","","","","","","","","",""
"","S2","","html-keyboard-response","338","262861","0.0-1.0-481.0","0","0","55547","","null","","","null","53","","NaN","","","","","","","","","","","","","",""
"","response","","html-keyboard-response","339","263371","0.0-1.0-482.0-0.0","0","0","55547","","507","","","68","53","","","2","53","training","adjacent","FE","6","5","M.jpg","R.jpg","0","0","1","",""
"","feedback","","html-keyboard-response","340","264378","0.0-1.0-483.0-0.0","0","0","55547","","null","","","null","53","","","","","","","","","","","","","","","",""
"","ITI","","html-keyboard-response","341","265382","0.0-1.0-486.0","0","0","55547","","null","","","null","53","","","","","","","","","","","","","","","NaN",""
"","S1","","html-keyboard-response","342","265635","0.0-1.0-488.0","0","0","55547","","null","","","null","54","","","","","","","","","","","","","","","",""
"","ISI","","html-keyboard-response","343","265788","0.0-1.0-489.0","0","0","55547","","null","","","null","54","NaN","","","","","","","","","","","","","","",""
"","S2","","html-keyboard-response","344","266043","0.0-1.0-490.0","0","0","55547","","null","","","null","54","","NaN","","","","","","","","","","","","","",""
"","response","","html-keyboard-response","345","266649","0.0-1.0-491.0-0.0","0","0","55547","","604","","","68","54","","","2","54","training","adjacent","DC","4","3","N.jpg","P.jpg","0","0","1","",""
"","feedback","","html-keyboard-response","346","267652","0.0-1.0-492.0-0.0","0","0","55547","","null","","","null","54","","","","","","","","","","","","","","","",""
"","ITI","","html-keyboard-response","347","268656","0.0-1.0-495.0","0","0","55547","","null","","","null","54","","","","","","","","","","","","","","","NaN",""
"","S1","","html-keyboard-response","348","268910","0.0-1.0-497.0","0","0","55547","","null","","","null","55","","","","","","","","","","","","","","","",""
"","ISI","","html-keyboard-response","349","269064","0.0-1.0-498.0","0","0","55547","","null","","","null","55","NaN","","","","","","","","","","","","","","",""
"","S2","","html-keyboard-response","350","269316","0.0-1.0-499.0","0","0","55547","","null","","","null","55","","NaN","","","","","","","","","","","","","",""
"","response","","html-keyboard-response","351","269689","0.0-1.0-500.0-0.0","0","0","55547","","371","","","68","55","","","2","55","training","adjacent","BA","2","1","O.jpg","Q.jpg","0","0","1","",""
"","feedback","","html-keyboard-response","352","270692","0.0-1.0-501.0-0.0","0","0","55547","","null","","","null","55","","","","","","","","","","","","","","","",""
"","ITI","","html-keyboard-response","353","271697","0.0-1.0-504.0","0","0","55547","","null","","","null","55","","","","","","","","","","","","","","","NaN",""
"","S1","","html-keyboard-response","354","271950","0.0-1.0-506.0","0","0","55547","","null","","","null","56","","","","","","","","","","","","","","","",""
"","ISI","","html-keyboard-response","355","272104","0.0-1.0-507.0","0","0","55547","","null","","","null","56","NaN","","","","","","","","","","","","","","",""
"","S2","","html-keyboard-response","356","272359","0.0-1.0-508.0","0","0","55547","","null","","","null","56","","NaN","","","","","","","","","","","","","",""
"","response","","html-keyboard-response","357","272667","0.0-1.0-509.0-0.0","0","0","55547","","303","","","75","56","","","2","56","training","adjacent","CB","3","2","P.jpg","O.jpg","1","0","0","",""
"","feedback","","html-keyboard-response","358","273670","0.0-1.0-510.0-0.0","0","0","55547","","null","","","null","56","","","","","","","","","","","","","","","",""
"","time_out","","html-keyboard-response","359","275673","0.0-1.0-512.0-0.0","0","0","55547","","null","","","null","56","","","","","","","","","","","","","","","",""
"","ITI","","html-keyboard-response","360","276677","0.0-1.0-513.0","0","0","55547","","null","","","null","56","","","","","","","","","","","","","","","NaN",""
"","S1","","html-keyboard-response","361","276933","0.0-1.0-515.0","0","0","55547","","null","","","null","57","","","","","","","","","","","","","","","",""
"","ISI","","html-keyboard-response","362","277086","0.0-1.0-516.0","0","0","55547","","null","","","null","57","NaN","","","","","","","","","","","","","","",""
"","S2","","html-keyboard-response","363","277340","0.0-1.0-517.0","0","0","55547","","null","","","null","57","","NaN","","","","","","","","","","","","","",""
"","response","","html-keyboard-response","364","277644","0.0-1.0-518.0-0.0","0","0","55547","","302","","","68","57","","","2","57","training","adjacent","AB","1","2","Q.jpg","O.jpg","0","1","0","",""
"","feedback","","html-keyboard-response","365","278650","0.0-1.0-519.0-0.0","0","0","55547","","null","","","null","57","","","","","","","","","","","","","","","",""
"","time_out","","html-keyboard-response","366","280654","0.0-1.0-521.0-0.0","0","0","55547","","null","","","null","57","","","","","","","","","","","","","","","",""
"","ITI","","html-keyboard-response","367","281658","0.0-1.0-522.0","0","0","55547","","null","","","null","57","","","","","","","","","","","","","","","NaN",""
"","S1","","html-keyboard-response","368","281911","0.0-1.0-524.0","0","0","55547","","null","","","null","58","","","","","","","","","","","","","","","",""
"","ISI","","html-keyboard-response","369","282065","0.0-1.0-525.0","0","0","55547","","null","","","null","58","NaN","","","","","","","","","","","","","","",""
"","S2","","html-keyboard-response","370","282320","0.0-1.0-526.0","0","0","55547","","null","","","null","58","","NaN","","","","","","","","","","","","","",""
"","response","","html-keyboard-response","371","282694","0.0-1.0-527.0-0.0","0","0","55547","","372","","","75","58","","","2","58","training","adjacent","CD","3","4","P.jpg","N.jpg","1","1","1","",""
"","feedback","","html-keyboard-response","372","283697","0.0-1.0-528.0-0.0","0","0","55547","","null","","","null","58","","","","","","","","","","","","","","","",""
"","ITI","","html-keyboard-response","373","284703","0.0-1.0-531.0","0","0","55547","","null","","","null","58","","","","","","","","","","","","","","","NaN",""
"","S1","","html-keyboard-response","374","284956","0.0-1.0-533.0","0","0","55547","","null","","","null","59","","","","","","","","","","","","","","","",""
"","ISI","","html-keyboard-response","375","285110","0.0-1.0-534.0","0","0","55547","","null","","","null","59","NaN","","","","","","","","","","","","","","",""
"","S2","","html-keyboard-response","376","285364","0.0-1.0-535.0","0","0","55547","","null","","","null","59","","NaN","","","","","","","","","","","","","",""
"","response","","html-keyboard-response","377","285895","0.0-1.0-536.0-0.0","0","0","55547","","529","","","68","59","","","2","59","training","adjacent","DC","4","3","N.jpg","P.jpg","0","0","1","",""
"","feedback","","html-keyboard-response","378","286900","0.0-1.0-537.0-0.0","0","0","55547","","null","","","null","59","","","","","","","","","","","","","","","",""
"","ITI","","html-keyboard-response","379","287904","0.0-1.0-540.0","0","0","55547","","null","","","null","59","","","","","","","","","","","","","","","NaN",""
"","S1","","html-keyboard-response","380","288158","0.0-1.0-542.0","0","0","55547","","null","","","null","60","","","","","","","","","","","","","","","",""
"","ISI","","html-keyboard-response","381","288311","0.0-1.0-543.0","0","0","55547","","null","","","null","60","NaN","","","","","","","","","","","","","","",""
"","S2","","html-keyboard-response","382","288567","0.0-1.0-544.0","0","0","55547","","null","","","null","60","","NaN","","","","","","","","","","","","","",""
"","response","","html-keyboard-response","383","288904","0.0-1.0-545.0-0.0","0","0","55547","","333","","","75","60","","","2","60","training","adjacent","DE","4","5","N.jpg","R.jpg","1","1","1","",""
"","feedback","","html-keyboard-response","384","289908","0.0-1.0-546.0-0.0","0","0","55547","","null","","","null","60","","","","","","","","","","","","","","","",""
"","ITI","","html-keyboard-response","385","290910","0.0-1.0-549.0","0","0","55547","","null","","","null","60","","","","","","","","","","","","","","","NaN",""
"","S1","","html-keyboard-response","386","291163","0.0-1.0-551.0","0","0","55547","","null","","","null","61","","","","","","","","","","","","","","","",""
"","ISI","","html-keyboard-response","387","291317","0.0-1.0-552.0","0","0","55547","","null","","","null","61","NaN","","","","","","","","","","","","","","",""
"","S2","","html-keyboard-response","388","291571","0.0-1.0-553.0","0","0","55547","","null","","","null","61","","NaN","","","","","","","","","","","","","",""
"","response","","html-keyboard-response","389","291924","0.0-1.0-554.0-0.0","0","0","55547","","350","","","75","61","","","2","61","training","adjacent","FG","6","7","M.jpg","L.jpg","1","1","1","",""
"","feedback","","html-keyboard-response","390","292928","0.0-1.0-555.0-0.0","0","0","55547","","null","","","null","61","","","","","","","","","","","","","","","",""
"","ITI","","html-keyboard-response","391","293932","0.0-1.0-558.0","0","0","55547","","null","","","null","61","","","","","","","","","","","","","","","NaN",""
"","S1","","html-keyboard-response","392","294188","0.0-1.0-560.0","0","0","55547","","null","","","null","62","","","","","","","","","","","","","","","",""
"","ISI","","html-keyboard-response","393","294341","0.0-1.0-561.0","0","0","55547","","null","","","null","62","NaN","","","","","","","","","","","","","","",""
"","S2","","html-keyboard-response","394","294594","0.0-1.0-562.0","0","0","55547","","null","","","null","62","","NaN","","","","","","","","","","","","","",""
"","response","","html-keyboard-response","395","294909","0.0-1.0-563.0-0.0","0","0","55547","","313","","","75","62","","","2","62","training","adjacent","CB","3","2","P.jpg","O.jpg","1","0","0","",""
"","feedback","","html-keyboard-response","396","295913","0.0-1.0-564.0-0.0","0","0","55547","","null","","","null","62","","","","","","","","","","","","","","","",""
"","time_out","","html-keyboard-response","397","297916","0.0-1.0-566.0-0.0","0","0","55547","","null","","","null","62","","","","","","","","","","","","","","","",""
"","ITI","","html-keyboard-response","398","298920","0.0-1.0-567.0","0","0","55547","","null","","","null","62","","","","","","","","","","","","","","","NaN",""
"","S1","","html-keyboard-response","399","299175","0.0-1.0-569.0","0","0","55547","","null","","","null","63","","","","","","","","","","","","","","","",""
"","ISI","","html-keyboard-response","400","299328","0.0-1.0-570.0","0","0","55547","","null","","","null","63","NaN","","","","","","","","","","","","","","",""
"","S2","","html-keyboard-response","401","299582","0.0-1.0-571.0","0","0","55547","","null","","","null","63","","NaN","","","","","","","","","","","","","",""
"","response","","html-keyboard-response","402","300419","0.0-1.0-572.0-0.0","0","0","55547","","835","","","68","63","","","2","63","training","adjacent","EF","5","6","R.jpg","M.jpg","0","1","0","",""
"","feedback","","html-keyboard-response","403","301425","0.0-1.0-573.0-0.0","0","0","55547","","null","","","null","63","","","","","","","","","","","","","","","",""
"","time_out","","html-keyboard-response","404","303428","0.0-1.0-575.0-0.0","0","0","55547","","null","","","null","63","","","","","","","","","","","","","","","",""
"","ITI","","html-keyboard-response","405","304432","0.0-1.0-576.0","0","0","55547","","null","","","null","63","","","","","","","","","","","","","","","NaN",""
"","S1","","html-keyboard-response","406","304685","0.0-1.0-578.0","0","0","55547","","null","","","null","64","","","","","","","","","","","","","","","",""
"","ISI","","html-keyboard-response","407","304838","0.0-1.0-579.0","0","0","55547","","null","","","null","64","NaN","","","","","","","","","","","","","","",""
"","S2","","html-keyboard-response","408","305094","0.0-1.0-580.0","0","0","55547","","null","","","null","64","","NaN","","","","","","","","","","","","","",""
"","response","","html-keyboard-response","409","305528","0.0-1.0-581.0-0.0","0","0","55547","","431","","","68","64","","","2","64","training","adjacent","FE","6","5","M.jpg","R.jpg","0","0","1","",""
"","feedback","","html-keyboard-response","410","306532","0.0-1.0-582.0-0.0","0","0","55547","","null","","","null","64","","","","","","","","","","","","","","","",""
"","ITI","","html-keyboard-response","411","307535","0.0-1.0-585.0","0","0","55547","","null","","","null","64","","","","","","","","","","","","","","","NaN",""
"","S1","","html-keyboard-response","412","307789","0.0-1.0-587.0","0","0","55547","","null","","","null","65","","","","","","","","","","","","","","","",""
"","ISI","","html-keyboard-response","413","307944","0.0-1.0-588.0","0","0","55547","","null","","","null","65","NaN","","","","","","","","","","","","","","",""
"","S2","","html-keyboard-response","414","308197","0.0-1.0-589.0","0","0","55547","","null","","","null","65","","NaN","","","","","","","","","","","","","",""
"","response","","html-keyboard-response","415","309279","0.0-1.0-590.0-0.0","0","0","55547","","1079","","","75","65","","","2","65","training","adjacent","GF","7","6","L.jpg","M.jpg","1","0","0","",""
"","feedback","","html-keyboard-response","416","310284","0.0-1.0-591.0-0.0","0","0","55547","","null","","","null","65","","","","","","","","","","","","","","","",""
"","time_out","","html-keyboard-response","417","312288","0.0-1.0-593.0-0.0","0","0","55547","","null","","","null","65","","","","","","","","","","","","","","","",""
"","ITI","","html-keyboard-response","418","313292","0.0-1.0-594.0","0","0","55547","","null","","","null","65","","","","","","","","","","","","","","","NaN",""
"","S1","","html-keyboard-response","419","313547","0.0-1.0-596.0","0","0","55547","","null","","","null","66","","","","","","","","","","","","","","","",""
"","ISI","","html-keyboard-response","420","313700","0.0-1.0-597.0","0","0","55547","","null","","","null","66","NaN","","","","","","","","","","","","","","",""
"","S2","","html-keyboard-response","421","313954","0.0-1.0-598.0","0","0","55547","","null","","","null","66","","NaN","","","","","","","","","","","","","",""
"","response","","html-keyboard-response","422","314327","0.0-1.0-599.0-0.0","0","0","55547","","369","","","75","66","","","2","66","training","adjacent","AB","1","2","Q.jpg","O.jpg","1","1","1","",""
"","feedback","","html-keyboard-response","423","315332","0.0-1.0-600.0-0.0","0","0","55547","","null","","","null","66","","","","","","","","","","","","","","","",""
"","ITI","","html-keyboard-response","424","316336","0.0-1.0-603.0","0","0","55547","","null","","","null","66","","","","","","","","","","","","","","","NaN",""
"","S1","","html-keyboard-response","425","316590","0.0-1.0-605.0","0","0","55547","","null","","","null","67","","","","","","","","","","","","","","","",""
"","ISI","","html-keyboard-response","426","316742","0.0-1.0-606.0","0","0","55547","","null","","","null","67","NaN","","","","","","","","","","","","","","",""
"","S2","","html-keyboard-response","427","316998","0.0-1.0-607.0","0","0","55547","","null","","","null","67","","NaN","","","","","","","","","","","","","",""
"","response","","html-keyboard-response","428","317332","0.0-1.0-608.0-0.0","0","0","55547","","331","","","75","67","","","2","67","training","adjacent","EF","5","6","R.jpg","M.jpg","1","1","1","",""
"","feedback","","html-keyboard-response","429","318336","0.0-1.0-609.0-0.0","0","0","55547","","null","","","null","67","","","","","","","","","","","","","","","",""
"","ITI","","html-keyboard-response","430","319341","0.0-1.0-612.0","0","0","55547","","null","","","null","67","","","","","","","","","","","","","","","NaN",""
"","S1","","html-keyboard-response","431","319593","0.0-1.0-614.0","0","0","55547","","null","","","null","68","","","","","","","","","","","","","","","",""
"","ISI","","html-keyboard-response","432","319748","0.0-1.0-615.0","0","0","55547","","null","","","null","68","NaN","","","","","","","","","","","","","","",""
"","S2","","html-keyboard-response","433","320002","0.0-1.0-616.0","0","0","55547","","null","","","null","68","","NaN","","","","","","","","","","","","","",""
"","response","","html-keyboard-response","434","320482","0.0-1.0-617.0-0.0","0","0","55547","","477","","","75","68","","","2","68","training","adjacent","EF","5","6","R.jpg","M.jpg","1","1","1","",""
"","feedback","","html-keyboard-response","435","321486","0.0-1.0-618.0-0.0","0","0","55547","","null","","","null","68","","","","","","","","","","","","","","","",""
"","ITI","","html-keyboard-response","436","322489","0.0-1.0-621.0","0","0","55547","","null","","","null","68","","","","","","","","","","","","","","","NaN",""
"","S1","","html-keyboard-response","437","322742","0.0-1.0-623.0","0","0","55547","","null","","","null","69","","","","","","","","","","","","","","","",""
"","ISI","","html-keyboard-response","438","322897","0.0-1.0-624.0","0","0","55547","","null","","","null","69","NaN","","","","","","","","","","","","","","",""
"","S2","","html-keyboard-response","439","323152","0.0-1.0-625.0","0","0","55547","","null","","","null","69","","NaN","","","","","","","","","","","","","",""
"","response","","html-keyboard-response","440","323839","0.0-1.0-626.0-0.0","0","0","55547","","684","","","75","69","","","2","69","training","adjacent","DC","4","3","N.jpg","P.jpg","1","0","0","",""
"","feedback","","html-keyboard-response","441","324842","0.0-1.0-627.0-0.0","0","0","55547","","null","","","null","69","","","","","","","","","","","","","","","",""
"","time_out","","html-keyboard-response","442","326847","0.0-1.0-629.0-0.0","0","0","55547","","null","","","null","69","","","","","","","","","","","","","","","",""
"","ITI","","html-keyboard-response","443","327851","0.0-1.0-630.0","0","0","55547","","null","","","null","69","","","","","","","","","","","","","","","NaN",""
"","S1","","html-keyboard-response","444","328104","0.0-1.0-632.0","0","0","55547","","null","","","null","70","","","","","","","","","","","","","","","",""
"","ISI","","html-keyboard-response","445","328258","0.0-1.0-633.0","0","0","55547","","null","","","null","70","NaN","","","","","","","","","","","","","","",""
"","S2","","html-keyboard-response","446","328512","0.0-1.0-634.0","0","0","55547","","null","","","null","70","","NaN","","","","","","","","","","","","","",""
"","response","","html-keyboard-response","447","329651","0.0-1.0-635.0-0.0","0","0","55547","","1137","","","75","70","","","2","70","training","adjacent","DE","4","5","N.jpg","R.jpg","1","1","1","",""
"","feedback","","html-keyboard-response","448","330655","0.0-1.0-636.0-0.0","0","0","55547","","null","","","null","70","","","","","","","","","","","","","","","",""
"","ITI","","html-keyboard-response","449","331660","0.0-1.0-639.0","0","0","55547","","null","","","null","70","","","","","","","","","","","","","","","NaN",""
"","S1","","html-keyboard-response","450","331913","0.0-1.0-641.0","0","0","55547","","null","","","null","71","","","","","","","","","","","","","","","",""
"","ISI","","html-keyboard-response","451","332069","0.0-1.0-642.0","0","0","55547","","null","","","null","71","NaN","","","","","","","","","","","","","","",""
"","S2","","html-keyboard-response","452","332322","0.0-1.0-643.0","0","0","55547","","null","","","null","71","","NaN","","","","","","","","","","","","","",""
"","response","","html-keyboard-response","453","333545","0.0-1.0-644.0-0.0","0","0","55547","","1221","","","75","71","","","2","71","training","adjacent","CB","3","2","P.jpg","O.jpg","1","0","0","",""
"","feedback","","html-keyboard-response","454","334549","0.0-1.0-645.0-0.0","0","0","55547","","null","","","null","71","","","","","","","","","","","","","","","",""
"","time_out","","html-keyboard-response","455","336554","0.0-1.0-647.0-0.0","0","0","55547","","null","","","null","71","","","","","","","","","","","","","","","",""
"","ITI","","html-keyboard-response","456","337557","0.0-1.0-648.0","0","0","55547","","null","","","null","71","","","","","","","","","","","","","","","NaN",""
"","S1","","html-keyboard-response","457","337810","0.0-1.0-650.0","0","0","55547","","null","","","null","72","","","","","","","","","","","","","","","",""
"","ISI","","html-keyboard-response","458","337964","0.0-1.0-651.0","0","0","55547","","null","","","null","72","NaN","","","","","","","","","","","","","","",""
"","S2","","html-keyboard-response","459","338218","0.0-1.0-652.0","0","0","55547","","null","","","null","72","","NaN","","","","","","","","","","","","","",""
"","response","","html-keyboard-response","460","338559","0.0-1.0-653.0-0.0","0","0","55547","","338","","","75","72","","","2","72","training","adjacent","EF","5","6","R.jpg","M.jpg","1","1","1","",""
"","feedback","","html-keyboard-response","461","339563","0.0-1.0-654.0-0.0","0","0","55547","","null","","","null","72","","","","","","","","","","","","","","","",""
"","ITI","","html-keyboard-response","462","340567","0.0-1.0-657.0","0","0","55547","","null","","","null","72","","","","","","","","","","","","","","","NaN",""
"","S1","","html-keyboard-response","463","340823","0.0-1.0-659.0","0","0","55547","","null","","","null","73","","","","","","","","","","","","","","","",""
"","ISI","","html-keyboard-response","464","340977","0.0-1.0-660.0","0","0","55547","","null","","","null","73","NaN","","","","","","","","","","","","","","",""
"","S2","","html-keyboard-response","465","341230","0.0-1.0-661.0","0","0","55547","","null","","","null","73","","NaN","","","","","","","","","","","","","",""
"","response","","html-keyboard-response","466","341721","0.0-1.0-662.0-0.0","0","0","55547","","488","","","75","73","","","2","73","training","adjacent","GF","7","6","L.jpg","M.jpg","1","0","0","",""
"","feedback","","html-keyboard-response","467","342726","0.0-1.0-663.0-0.0","0","0","55547","","null","","","null","73","","","","","","","","","","","","","","","",""
"","time_out","","html-keyboard-response","468","344730","0.0-1.0-665.0-0.0","0","0","55547","","null","","","null","73","","","","","","","","","","","","","","","",""
"","ITI","","html-keyboard-response","469","345733","0.0-1.0-666.0","0","0","55547","","null","","","null","73","","","","","","","","","","","","","","","NaN",""
"","S1","","html-keyboard-response","470","345986","0.0-1.0-668.0","0","0","55547","","null","","","null","74","","","","","","","","","","","","","","","",""
"","ISI","","html-keyboard-response","471","346140","0.0-1.0-669.0","0","0","55547","","null","","","null","74","NaN","","","","","","","","","","","","","","",""
"","S2","","html-keyboard-response","472","346394","0.0-1.0-670.0","0","0","55547","","null","","","null","74","","NaN","","","","","","","","","","","","","",""
"","response","","html-keyboard-response","473","347229","0.0-1.0-671.0-0.0","0","0","55547","","833","","","68","74","","","2","74","training","adjacent","CD","3","4","P.jpg","N.jpg","0","1","0","",""
"","feedback","","html-keyboard-response","474","348233","0.0-1.0-672.0-0.0","0","0","55547","","null","","","null","74","","","","","","","","","","","","","","","",""
"","time_out","","html-keyboard-response","475","350237","0.0-1.0-674.0-0.0","0","0","55547","","null","","","null","74","","","","","","","","","","","","","","","",""
"","ITI","","html-keyboard-response","476","351244","0.0-1.0-675.0","0","0","55547","","null","","","null","74","","","","","","","","","","","","","","","NaN",""
"","S1","","html-keyboard-response","477","351497","0.0-1.0-677.0","0","0","55547","","null","","","null","75","","","","","","","","","","","","","","","",""
"","ISI","","html-keyboard-response","478","351649","0.0-1.0-678.0","0","0","55547","","null","","","null","75","NaN","","","","","","","","","","","","","","",""
"","S2","","html-keyboard-response","479","351903","0.0-1.0-679.0","0","0","55547","","null","","","null","75","","NaN","","","","","","","","","","","","","",""
"","response","","html-keyboard-response","480","353485","0.0-1.0-680.0-0.0","0","0","55547","","1580","","","75","75","","","2","75","training","adjacent","FG","6","7","M.jpg","L.jpg","1","1","1","",""
"","feedback","","html-keyboard-response","481","354489","0.0-1.0-681.0-0.0","0","0","55547","","null","","","null","75","","","","","","","","","","","","","","","",""
"","ITI","","html-keyboard-response","482","355495","0.0-1.0-684.0","0","0","55547","","null","","","null","75","","","","","","","","","","","","","","","NaN",""
"","S1","","html-keyboard-response","483","355749","0.0-1.0-686.0","0","0","55547","","null","","","null","76","","","","","","","","","","","","","","","",""
"","ISI","","html-keyboard-response","484","355902","0.0-1.0-687.0","0","0","55547","","null","","","null","76","NaN","","","","","","","","","","","","","","",""
"","S2","","html-keyboard-response","485","356155","0.0-1.0-688.0","0","0","55547","","null","","","null","76","","NaN","","","","","","","","","","","","","",""
"","response","","html-keyboard-response","486","356719","0.0-1.0-689.0-0.0","0","0","55547","","561","","","68","76","","","2","76","training","adjacent","BA","2","1","O.jpg","Q.jpg","0","0","1","",""
"","feedback","","html-keyboard-response","487","357723","0.0-1.0-690.0-0.0","0","0","55547","","null","","","null","76","","","","","","","","","","","","","","","",""
"","ITI","","html-keyboard-response","488","358727","0.0-1.0-693.0","0","0","55547","","null","","","null","76","","","","","","","","","","","","","","","NaN",""
"","S1","","html-keyboard-response","489","358982","0.0-1.0-695.0","0","0","55547","","null","","","null","77","","","","","","","","","","","","","","","",""
"","ISI","","html-keyboard-response","490","359135","0.0-1.0-696.0","0","0","55547","","null","","","null","77","NaN","","","","","","","","","","","","","","",""
"","S2","","html-keyboard-response","491","359389","0.0-1.0-697.0","0","0","55547","","null","","","null","77","","NaN","","","","","","","","","","","","","",""
"","response","","html-keyboard-response","492","359984","0.0-1.0-698.0-0.0","0","0","55547","","593","","","68","77","","","2","77","training","adjacent","CD","3","4","P.jpg","N.jpg","0","1","0","",""
"","feedback","","html-keyboard-response","493","360989","0.0-1.0-699.0-0.0","0","0","55547","","null","","","null","77","","","","","","","","","","","","","","","",""
"","time_out","","html-keyboard-response","494","362993","0.0-1.0-701.0-0.0","0","0","55547","","null","","","null","77","","","","","","","","","","","","","","","",""
"","ITI","","html-keyboard-response","495","363999","0.0-1.0-702.0","0","0","55547","","null","","","null","77","","","","","","","","","","","","","","","NaN",""
"","S1","","html-keyboard-response","496","364252","0.0-1.0-704.0","0","0","55547","","null","","","null","78","","","","","","","","","","","","","","","",""
"","ISI","","html-keyboard-response","497","364410","0.0-1.0-705.0","0","0","55547","","null","","","null","78","NaN","","","","","","","","","","","","","","",""
"","S2","","html-keyboard-response","498","364665","0.0-1.0-706.0","0","0","55547","","null","","","null","78","","NaN","","","","","","","","","","","","","",""
"","response","","html-keyboard-response","499","365415","0.0-1.0-707.0-0.0","0","0","55547","","747","","","75","78","","","2","78","training","adjacent","BC","2","3","O.jpg","P.jpg","1","1","1","",""
"","feedback","","html-keyboard-response","500","366420","0.0-1.0-708.0-0.0","0","0","55547","","null","","","null","78","","","","","","","","","","","","","","","",""
"","ITI","","html-keyboard-response","501","367423","0.0-1.0-711.0","0","0","55547","","null","","","null","78","","","","","","","","","","","","","","","NaN",""
"","S1","","html-keyboard-response","502","367676","0.0-1.0-713.0","0","0","55547","","null","","","null","79","","","","","","","","","","","","","","","",""
"","ISI","","html-keyboard-response","503","367831","0.0-1.0-714.0","0","0","55547","","null","","","null","79","NaN","","","","","","","","","","","","","","",""
"","S2","","html-keyboard-response","504","368086","0.0-1.0-715.0","0","0","55547","","null","","","null","79","","NaN","","","","","","","","","","","","","",""
"","response","","html-keyboard-response","505","369505","0.0-1.0-716.0-0.0","0","0","55547","","1417","","","75","79","","","2","79","training","adjacent","FG","6","7","M.jpg","L.jpg","1","1","1","",""
"","feedback","","html-keyboard-response","506","370509","0.0-1.0-717.0-0.0","0","0","55547","","null","","","null","79","","","","","","","","","","","","","","","",""
"","ITI","","html-keyboard-response","507","371513","0.0-1.0-720.0","0","0","55547","","null","","","null","79","","","","","","","","","","","","","","","NaN",""
"","S1","","html-keyboard-response","508","371768","0.0-1.0-722.0","0","0","55547","","null","","","null","80","","","","","","","","","","","","","","","",""
"","ISI","","html-keyboard-response","509","371922","0.0-1.0-723.0","0","0","55547","","null","","","null","80","NaN","","","","","","","","","","","","","","",""
"","S2","","html-keyboard-response","510","372177","0.0-1.0-724.0","0","0","55547","","null","","","null","80","","NaN","","","","","","","","","","","","","",""
"","response","","html-keyboard-response","511","373037","0.0-1.0-725.0-0.0","0","0","55547","","858","","","68","80","","","2","80","training","adjacent","GF","7","6","L.jpg","M.jpg","0","0","1","",""
"","feedback","","html-keyboard-response","512","374040","0.0-1.0-726.0-0.0","0","0","55547","","null","","","null","80","","","","","","","","","","","","","","","",""
"","ITI","","html-keyboard-response","513","375043","0.0-1.0-729.0","0","0","55547","","null","","","null","80","","","","","","","","","","","","","","","NaN",""
"","S1","","html-keyboard-response","514","375296","0.0-1.0-731.0","0","0","55547","","null","","","null","81","","","","","","","","","","","","","","","",""
"","ISI","","html-keyboard-response","515","375451","0.0-1.0-732.0","0","0","55547","","null","","","null","81","NaN","","","","","","","","","","","","","","",""
"","S2","","html-keyboard-response","516","375706","0.0-1.0-733.0","0","0","55547","","null","","","null","81","","NaN","","","","","","","","","","","","","",""
"","response","","html-keyboard-response","517","376898","0.0-1.0-734.0-0.0","0","0","55547","","1190","","","75","81","","","2","81","training","adjacent","DE","4","5","N.jpg","R.jpg","1","1","1","",""
"","feedback","","html-keyboard-response","518","377903","0.0-1.0-735.0-0.0","0","0","55547","","null","","","null","81","","","","","","","","","","","","","","","",""
"","ITI","","html-keyboard-response","519","378907","0.0-1.0-738.0","0","0","55547","","null","","","null","81","","","","","","","","","","","","","","","NaN",""
"","S1","","html-keyboard-response","520","379160","0.0-1.0-740.0","0","0","55547","","null","","","null","82","","","","","","","","","","","","","","","",""
"","ISI","","html-keyboard-response","521","379314","0.0-1.0-741.0","0","0","55547","","null","","","null","82","NaN","","","","","","","","","","","","","","",""
"","S2","","html-keyboard-response","522","379576","0.0-1.0-742.0","0","0","55547","","null","","","null","82","","NaN","","","","","","","","","","","","","",""
"","response","","html-keyboard-response","523","380199","0.0-1.0-743.0-0.0","0","0","55547","","621","","","75","82","","","2","82","training","adjacent","CD","3","4","P.jpg","N.jpg","1","1","1","",""
"","feedback","","html-keyboard-response","524","381206","0.0-1.0-744.0-0.0","0","0","55547","","null","","","null","82","","","","","","","","","","","","","","","",""
"","ITI","","html-keyboard-response","525","382209","0.0-1.0-747.0","0","0","55547","","null","","","null","82","","","","","","","","","","","","","","","NaN",""
"","S1","","html-keyboard-response","526","382462","0.0-1.0-749.0","0","0","55547","","null","","","null","83","","","","","","","","","","","","","","","",""
"","ISI","","html-keyboard-response","527","382616","0.0-1.0-750.0","0","0","55547","","null","","","null","83","NaN","","","","","","","","","","","","","","",""
"","S2","","html-keyboard-response","528","382871","0.0-1.0-751.0","0","0","55547","","null","","","null","83","","NaN","","","","","","","","","","","","","",""
"","response","","html-keyboard-response","529","384258","0.0-1.0-752.0-0.0","0","0","55547","","1384","","","68","83","","","2","83","training","adjacent","ED","5","4","R.jpg","N.jpg","0","0","1","",""
"","feedback","","html-keyboard-response","530","385262","0.0-1.0-753.0-0.0","0","0","55547","","null","","","null","83","","","","","","","","","","","","","","","",""
"","ITI","","html-keyboard-response","531","386265","0.0-1.0-756.0","0","0","55547","","null","","","null","83","","","","","","","","","","","","","","","NaN",""
"","S1","","html-keyboard-response","532","386518","0.0-1.0-758.0","0","0","55547","","null","","","null","84","","","","","","","","","","","","","","","",""
"","ISI","","html-keyboard-response","533","386674","0.0-1.0-759.0","0","0","55547","","null","","","null","84","NaN","","","","","","","","","","","","","","",""
"","S2","","html-keyboard-response","534","386929","0.0-1.0-760.0","0","0","55547","","null","","","null","84","","NaN","","","","","","","","","","","","","",""
"","response","","html-keyboard-response","535","387664","0.0-1.0-761.0-0.0","0","0","55547","","732","","","75","84","","","2","84","training","adjacent","DE","4","5","N.jpg","R.jpg","1","1","1","",""
"","feedback","","html-keyboard-response","536","388668","0.0-1.0-762.0-0.0","0","0","55547","","null","","","null","84","","","","","","","","","","","","","","","",""
"","ITI","","html-keyboard-response","537","389670","0.0-1.0-765.0","0","0","55547","","null","","","null","84","","","","","","","","","","","","","","","NaN",""
"","S1","","html-keyboard-response","538","389923","0.0-1.0-767.0","0","0","55547","","null","","","null","85","","","","","","","","","","","","","","","",""
"","ISI","","html-keyboard-response","539","390075","0.0-1.0-768.0","0","0","55547","","null","","","null","85","NaN","","","","","","","","","","","","","","",""
"","S2","","html-keyboard-response","540","390328","0.0-1.0-769.0","0","0","55547","","null","","","null","85","","NaN","","","","","","","","","","","","","",""
"","response","","html-keyboard-response","541","391719","0.0-1.0-770.0-0.0","0","0","55547","","1390","","","68","85","","","2","85","training","adjacent","CB","3","2","P.jpg","O.jpg","0","0","1","",""
"","feedback","","html-keyboard-response","542","392724","0.0-1.0-771.0-0.0","0","0","55547","","null","","","null","85","","","","","","","","","","","","","","","",""
"","ITI","","html-keyboard-response","543","393727","0.0-1.0-774.0","0","0","55547","","null","","","null","85","","","","","","","","","","","","","","","NaN",""
"","S1","","html-keyboard-response","544","393982","0.0-1.0-776.0","0","0","55547","","null","","","null","86","","","","","","","","","","","","","","","",""
"","ISI","","html-keyboard-response","545","394135","0.0-1.0-777.0","0","0","55547","","null","","","null","86","NaN","","","","","","","","","","","","","","",""
"","S2","","html-keyboard-response","546","394400","0.0-1.0-778.0","0","0","55547","","null","","","null","86","","NaN","","","","","","","","","","","","","",""
"","response","","html-keyboard-response","547","394753","0.0-1.0-779.0-0.0","0","0","55547","","350","","","75","86","","","2","86","training","adjacent","AB","1","2","Q.jpg","O.jpg","1","1","1","",""
"","feedback","","html-keyboard-response","548","395760","0.0-1.0-780.0-0.0","0","0","55547","","null","","","null","86","","","","","","","","","","","","","","","",""
"","ITI","","html-keyboard-response","549","396778","0.0-1.0-783.0","0","0","55547","","null","","","null","86","","","","","","","","","","","","","","","NaN",""
"","S1","","html-keyboard-response","550","397033","0.0-1.0-785.0","0","0","55547","","null","","","null","87","","","","","","","","","","","","","","","",""
"","ISI","","html-keyboard-response","551","397186","0.0-1.0-786.0","0","0","55547","","null","","","null","87","NaN","","","","","","","","","","","","","","",""
"","S2","","html-keyboard-response","552","397442","0.0-1.0-787.0","0","0","55547","","null","","","null","87","","NaN","","","","","","","","","","","","","",""
"","response","","html-keyboard-response","553","397564","0.0-1.0-788.0-0.0","0","0","55547","","119","","","75","87","","","2","87","training","adjacent","AB","1","2","Q.jpg","O.jpg","1","1","1","",""
"","feedback","","html-keyboard-response","554","398569","0.0-1.0-789.0-0.0","0","0","55547","","null","","","null","87","","","","","","","","","","","","","","","",""
"","ITI","","html-keyboard-response","555","399573","0.0-1.0-792.0","0","0","55547","","null","","","null","87","","","","","","","","","","","","","","","NaN",""
"","S1","","html-keyboard-response","556","399828","0.0-1.0-794.0","0","0","55547","","null","","","null","88","","","","","","","","","","","","","","","",""
"","ISI","","html-keyboard-response","557","399981","0.0-1.0-795.0","0","0","55547","","null","","","null","88","NaN","","","","","","","","","","","","","","",""
"","S2","","html-keyboard-response","558","400236","0.0-1.0-796.0","0","0","55547","","null","","","null","88","","NaN","","","","","","","","","","","","","",""
"","response","","html-keyboard-response","559","401050","0.0-1.0-797.0-0.0","0","0","55547","","813","","","75","88","","","2","88","training","adjacent","FG","6","7","M.jpg","L.jpg","1","1","1","",""
"","feedback","","html-keyboard-response","560","402055","0.0-1.0-798.0-0.0","0","0","55547","","null","","","null","88","","","","","","","","","","","","","","","",""
"","ITI","","html-keyboard-response","561","403061","0.0-1.0-801.0","0","0","55547","","null","","","null","88","","","","","","","","","","","","","","","NaN",""
"","S1","","html-keyboard-response","562","403315","0.0-1.0-803.0","0","0","55547","","null","","","null","89","","","","","","","","","","","","","","","",""
"","ISI","","html-keyboard-response","563","403468","0.0-1.0-804.0","0","0","55547","","null","","","null","89","NaN","","","","","","","","","","","","","","",""
"","S2","","html-keyboard-response","564","403721","0.0-1.0-805.0","0","0","55547","","null","","","null","89","","NaN","","","","","","","","","","","","","",""
"","response","","html-keyboard-response","565","404399","0.0-1.0-806.0-0.0","0","0","55547","","675","","","68","89","","","2","89","training","adjacent","ED","5","4","R.jpg","N.jpg","0","0","1","",""
"","feedback","","html-keyboard-response","566","405403","0.0-1.0-807.0-0.0","0","0","55547","","null","","","null","89","","","","","","","","","","","","","","","",""
"","ITI","","html-keyboard-response","567","406407","0.0-1.0-810.0","0","0","55547","","null","","","null","89","","","","","","","","","","","","","","","NaN",""
"","S1","","html-keyboard-response","568","406662","0.0-1.0-812.0","0","0","55547","","null","","","null","90","","","","","","","","","","","","","","","",""
"","ISI","","html-keyboard-response","569","406820","0.0-1.0-813.0","0","0","55547","","null","","","null","90","NaN","","","","","","","","","","","","","","",""
"","S2","","html-keyboard-response","570","407073","0.0-1.0-814.0","0","0","55547","","null","","","null","90","","NaN","","","","","","","","","","","","","",""
"","response","","html-keyboard-response","571","407726","0.0-1.0-815.0-0.0","0","0","55547","","650","","","75","90","","","2","90","training","adjacent","BC","2","3","O.jpg","P.jpg","1","1","1","",""
"","feedback","","html-keyboard-response","572","408731","0.0-1.0-816.0-0.0","0","0","55547","","null","","","null","90","","","","","","","","","","","","","","","",""
"","ITI","","html-keyboard-response","573","409735","0.0-1.0-819.0","0","0","55547","","null","","","null","90","","","","","","","","","","","","","","","NaN",""
"","S1","","html-keyboard-response","574","409989","0.0-1.0-821.0","0","0","55547","","null","","","null","91","","","","","","","","","","","","","","","",""
"","ISI","","html-keyboard-response","575","410141","0.0-1.0-822.0","0","0","55547","","null","","","null","91","NaN","","","","","","","","","","","","","","",""
"","S2","","html-keyboard-response","576","410395","0.0-1.0-823.0","0","0","55547","","null","","","null","91","","NaN","","","","","","","","","","","","","",""
"","response","","html-keyboard-response","577","410739","0.0-1.0-824.0-0.0","0","0","55547","","340","","","68","91","","","2","91","training","adjacent","BA","2","1","O.jpg","Q.jpg","0","0","1","",""
"","feedback","","html-keyboard-response","578","411743","0.0-1.0-825.0-0.0","0","0","55547","","null","","","null","91","","","","","","","","","","","","","","","",""
"","ITI","","html-keyboard-response","579","412749","0.0-1.0-828.0","0","0","55547","","null","","","null","91","","","","","","","","","","","","","","","NaN",""
"","S1","","html-keyboard-response","580","413003","0.0-1.0-830.0","0","0","55547","","null","","","null","92","","","","","","","","","","","","","","","",""
"","ISI","","html-keyboard-response","581","413156","0.0-1.0-831.0","0","0","55547","","null","","","null","92","NaN","","","","","","","","","","","","","","",""
"","S2","","html-keyboard-response","582","413410","0.0-1.0-832.0","0","0","55547","","null","","","null","92","","NaN","","","","","","","","","","","","","",""
