"success","ttype","start_time","trial_type","trial_index","time_elapsed","internal_node_id","warning","missed_checkup","PID","view_history","rt","responses","repeat_instructions","key_press","index","keypress_isi","keypress_S2","block","trial_num","phase","group_type","pair_type","S1_stim","S2_stim","S1_img","S2_img","S1_chosen","S1_higher","accuracy","keypress_iti","total_bonus_tally"
"true","full_screen","d08012022hr1549","fullscreen","0","11026","0.0-0.0","0","0","96688","","","","","","","","","","","","","","","","","","","","","",""
"","instructions","","instructions","1","47438","0.0-1.0-0.0-0.0","0","0","96688","[{""page_index"":0,""viewing_time"":5131},{""page_index"":1,""viewing_time"":20075},{""page_index"":2,""viewing_time"":9441},{""page_index"":3,""viewing_time"":1762}]","36410","","","","","","","","","","","","","","","","","","","",""
"","comprehension_check","","survey-multi-choice","2","67126","0.0-1.0-0.0-1.0","0","0","96688","","19682","{""Q0"":""True"",""Q1"":""D"",""Q2"":""When you see the prompt 'MAKE A CHOICE' after the second image was presented"",""Q3"":""Green mark"",""Q4"":""either D or K""}","0","","","","","","","","","","","","","","","","","",""
"","start_exp","","html-keyboard-response","3","69061","0.0-1.0-1.0","0","0","96688","","1930","","","32","","","","","","","","","","","","","","","","",""
"","S1","","html-keyboard-response","4","69315","0.0-1.0-2.0","0","0","96688","","null","","","null","0","","","","","","","","","","","","","","","",""
"","ISI","","html-keyboard-response","5","71318","0.0-1.0-3.0","0","0","96688","","null","","","null","0","NaN","","","","","","","","","","","","","","",""
"","S2","","html-keyboard-response","6","71571","0.0-1.0-4.0","0","0","96688","","null","","","null","0","","NaN","","","","","","","","","","","","","",""
"","response","","html-keyboard-response","7","72692","0.0-1.0-5.0","0","0","96688","","1119","","","75","0","","","1","0","training","adjacent","CB","3","2","M.jpg","O.jpg","0","0","1","",""
"","feedback","","html-keyboard-response","8","73695","0.0-1.0-6.0-0.0","0","0","96688","","null","","","null","0","","","","","","","","","","","","","","","",""
"","ITI","","html-keyboard-response","9","74697","0.0-1.0-9.0","0","0","96688","","null","","","null","0","","","","","","","","","","","","","","","NaN",""
"","S1","","html-keyboard-response","10","74951","0.0-1.0-11.0","0","0","96688","","null","","","null","1","","","","","","","","","","","","","","","",""
"","ISI","","html-keyboard-response","11","76953","0.0-1.0-12.0","0","0","96688","","null","","","null","1","NaN","","","","","","","","","","","","","","",""
"","S2","","html-keyboard-response","12","77206","0.0-1.0-13.0","0","0","96688","","null","","","null","1","","NaN","","","","","","","","","","","","","",""
"","response","","html-keyboard-response","13","77664","0.0-1.0-14.0","0","0","96688","","456","","","68","1","","","1","1","training","adjacent","BC","2","3","O.jpg","M.jpg","1","1","1","",""
"","feedback","","html-keyboard-response","14","78666","0.0-1.0-15.0-0.0","0","0","96688","","null","","","null","1","","","","","","","","","","","","","","","",""
"","ITI","","html-keyboard-response","15","79669","0.0-1.0-18.0","0","0","96688","","null","","","null","1","","","","","","","","","","","","","","","NaN",""
"","S1","","html-keyboard-response","16","79922","0.0-1.0-20.0","0","0","96688","","null","","","null","2","","","","","","","","","","","","","","","",""
"","ISI","","html-keyboard-response","17","81924","0.0-1.0-21.0","0","0","96688","","null","","","null","2","NaN","","","","","","","","","","","","","","",""
"","S2","","html-keyboard-response","18","82176","0.0-1.0-22.0","0","0","96688","","null","","","null","2","","NaN","","","","","","","","","","","","","",""
"","response","","html-keyboard-response","19","82931","0.0-1.0-23.0","0","0","96688","","752","","","68","2","","","1","2","training","adjacent","GF","7","6","R.jpg","P.jpg","1","0","0","",""
"","feedback","","html-keyboard-response","20","83934","0.0-1.0-24.0-0.0","0","0","96688","","null","","","null","2","","","","","","","","","","","","","","","",""
"","time_out","","html-keyboard-response","21","85936","0.0-1.0-26.0-0.0","0","0","96688","","null","","","null","2","","","","","","","","","","","","","","","",""
"","ITI","","html-keyboard-response","22","86939","0.0-1.0-27.0","0","0","96688","","null","","","null","2","","","","","","","","","","","","","","","NaN",""
"","S1","","html-keyboard-response","23","87192","0.0-1.0-29.0","0","0","96688","","null","","","null","3","","","","","","","","","","","","","","","",""
"","ISI","","html-keyboard-response","24","89194","0.0-1.0-30.0","0","0","96688","","null","","","null","3","NaN","","","","","","","","","","","","","","",""
"","S2","","html-keyboard-response","25","89447","0.0-1.0-31.0","0","0","96688","","null","","","null","3","","NaN","","","","","","","","","","","","","",""
"","response","","html-keyboard-response","26","90309","0.0-1.0-32.0","0","0","96688","","860","","","75","3","","","1","3","training","adjacent","FE","6","5","P.jpg","N.jpg","0","0","1","",""
"","feedback","","html-keyboard-response","27","91311","0.0-1.0-33.0-0.0","0","0","96688","","null","","","null","3","","","","","","","","","","","","","","","",""
"","ITI","","html-keyboard-response","28","92314","0.0-1.0-36.0","0","0","96688","","null","","","null","3","","","","","","","","","","","","","","","NaN",""
"","S1","","html-keyboard-response","29","92567","0.0-1.0-38.0","0","0","96688","","null","","","null","4","","","","","","","","","","","","","","","",""
"","ISI","","html-keyboard-response","30","94569","0.0-1.0-39.0","0","0","96688","","null","","","null","4","NaN","","","","","","","","","","","","","","",""
"","S2","","html-keyboard-response","31","94822","0.0-1.0-40.0","0","0","96688","","null","","","null","4","","NaN","","","","","","","","","","","","","",""
"","response","","html-keyboard-response","32","95923","0.0-1.0-41.0","0","0","96688","","1099","","","68","4","","","1","4","training","adjacent","BC","2","3","O.jpg","M.jpg","1","1","1","",""
"","feedback","","html-keyboard-response","33","96926","0.0-1.0-42.0-0.0","0","0","96688","","null","","","null","4","","","","","","","","","","","","","","","",""
"","ITI","","html-keyboard-response","34","97928","0.0-1.0-45.0","0","0","96688","","null","","","null","4","","","","","","","","","","","","","","","NaN",""
"","S1","","html-keyboard-response","35","98180","0.0-1.0-47.0","0","0","96688","","null","","","null","5","","","","","","","","","","","","","","","",""
"","ISI","","html-keyboard-response","36","100183","0.0-1.0-48.0","0","0","96688","","null","","","null","5","NaN","","","","","","","","","","","","","","",""
"","S2","","html-keyboard-response","37","100436","0.0-1.0-49.0","0","0","96688","","null","","","null","5","","NaN","","","","","","","","","","","","","",""
"","response","","html-keyboard-response","38","101100","0.0-1.0-50.0","0","0","96688","","662","","","75","5","","","1","5","training","adjacent","CD","3","4","M.jpg","L.jpg","0","1","0","",""
"","feedback","","html-keyboard-response","39","102103","0.0-1.0-51.0-0.0","0","0","96688","","null","","","null","5","","","","","","","","","","","","","","","",""
"","time_out","","html-keyboard-response","40","104105","0.0-1.0-53.0-0.0","0","0","96688","","null","","","null","5","","","","","","","","","","","","","","","",""
"","ITI","","html-keyboard-response","41","105108","0.0-1.0-54.0","0","0","96688","","null","","","null","5","","","","","","","","","","","","","","","NaN",""
"","S1","","html-keyboard-response","42","105360","0.0-1.0-56.0","0","0","96688","","null","","","null","6","","","","","","","","","","","","","","","",""
"","ISI","","html-keyboard-response","43","107363","0.0-1.0-57.0","0","0","96688","","null","","","null","6","NaN","","","","","","","","","","","","","","",""
"","S2","","html-keyboard-response","44","107616","0.0-1.0-58.0","0","0","96688","","null","","","null","6","","NaN","","","","","","","","","","","","","",""
"","response","","html-keyboard-response","45","108255","0.0-1.0-59.0","0","0","96688","","638","","","68","6","","","1","6","training","adjacent","GF","7","6","R.jpg","P.jpg","1","0","0","",""
"","feedback","","html-keyboard-response","46","109258","0.0-1.0-60.0-0.0","0","0","96688","","null","","","null","6","","","","","","","","","","","","","","","",""
"","time_out","","html-keyboard-response","47","111261","0.0-1.0-62.0-0.0","0","0","96688","","null","","","null","6","","","","","","","","","","","","","","","",""
"","ITI","","html-keyboard-response","48","112264","0.0-1.0-63.0","0","0","96688","","null","","","null","6","","","","","","","","","","","","","","","NaN",""
"","S1","","html-keyboard-response","49","112516","0.0-1.0-65.0","0","0","96688","","null","","","null","7","","","","","","","","","","","","","","","",""
"","ISI","","html-keyboard-response","50","114517","0.0-1.0-66.0","0","0","96688","","null","","","null","7","NaN","","","","","","","","","","","","","","",""
"","S2","","html-keyboard-response","51","114769","0.0-1.0-67.0","0","0","96688","","null","","","null","7","","NaN","","","","","","","","","","","","","",""
"","response","","html-keyboard-response","52","115301","0.0-1.0-68.0","0","0","96688","","530","","","75","7","","","1","7","training","adjacent","CD","3","4","M.jpg","L.jpg","0","1","0","",""
"","feedback","","html-keyboard-response","53","116305","0.0-1.0-69.0-0.0","0","0","96688","","null","","","null","7","","","","","","","","","","","","","","","",""
"","time_out","","html-keyboard-response","54","118307","0.0-1.0-71.0-0.0","0","0","96688","","null","","","null","7","","","","","","","","","","","","","","","",""
"","ITI","","html-keyboard-response","55","119309","0.0-1.0-72.0","0","0","96688","","null","","","null","7","","","","","","","","","","","","","","","NaN",""
"","S1","","html-keyboard-response","56","119563","0.0-1.0-74.0","0","0","96688","","null","","","null","8","","","","","","","","","","","","","","","",""
"","ISI","","html-keyboard-response","57","121565","0.0-1.0-75.0","0","0","96688","","null","","","null","8","NaN","","","","","","","","","","","","","","",""
"","S2","","html-keyboard-response","58","121817","0.0-1.0-76.0","0","0","96688","","null","","","null","8","","NaN","","","","","","","","","","","","","",""
"","response","","html-keyboard-response","59","122502","0.0-1.0-77.0","0","0","96688","","682","","","68","8","","","1","8","training","adjacent","FG","6","7","P.jpg","R.jpg","1","1","1","",""
"","feedback","","html-keyboard-response","60","123505","0.0-1.0-78.0-0.0","0","0","96688","","null","","","null","8","","","","","","","","","","","","","","","",""
"","ITI","","html-keyboard-response","61","124508","0.0-1.0-81.0","0","0","96688","","null","","","null","8","","","","","","","","","","","","","","","NaN",""
"","S1","","html-keyboard-response","62","124760","0.0-1.0-83.0","0","0","96688","","null","","","null","9","","","","","","","","","","","","","","","",""
"","ISI","","html-keyboard-response","63","126765","0.0-1.0-84.0","0","0","96688","","null","","","null","9","NaN","","","","","","","","","","","","","","",""
"","S2","","html-keyboard-response","64","127017","0.0-1.0-85.0","0","0","96688","","null","","","null","9","","NaN","","","","","","","","","","","","","",""
"","response","","html-keyboard-response","65","127534","0.0-1.0-86.0","0","0","96688","","514","","","75","9","","","1","9","training","adjacent","ED","5","4","N.jpg","L.jpg","0","0","1","",""
"","feedback","","html-keyboard-response","66","128537","0.0-1.0-87.0-0.0","0","0","96688","","null","","","null","9","","","","","","","","","","","","","","","",""
"","ITI","","html-keyboard-response","67","129539","0.0-1.0-90.0","0","0","96688","","null","","","null","9","","","","","","","","","","","","","","","NaN",""
"","S1","","html-keyboard-response","68","129791","0.0-1.0-92.0","0","0","96688","","null","","","null","10","","","","","","","","","","","","","","","",""
"","ISI","","html-keyboard-response","69","131794","0.0-1.0-93.0","0","0","96688","","null","","","null","10","NaN","","","","","","","","","","","","","","",""
"","S2","","html-keyboard-response","70","132047","0.0-1.0-94.0","0","0","96688","","null","","","null","10","","NaN","","","","","","","","","","","","","",""
"","response","","html-keyboard-response","71","132472","0.0-1.0-95.0","0","0","96688","","424","","","68","10","","","1","10","training","adjacent","DC","4","3","L.jpg","M.jpg","1","0","0","",""
"","feedback","","html-keyboard-response","72","133475","0.0-1.0-96.0-0.0","0","0","96688","","null","","","null","10","","","","","","","","","","","","","","","",""
"","time_out","","html-keyboard-response","73","135476","0.0-1.0-98.0-0.0","0","0","96688","","null","","","null","10","","","","","","","","","","","","","","","",""
"","ITI","","html-keyboard-response","74","136479","0.0-1.0-99.0","0","0","96688","","null","","","null","10","","","","","","","","","","","","","","","NaN",""
"","S1","","html-keyboard-response","75","136731","0.0-1.0-101.0","0","0","96688","","null","","","null","11","","","","","","","","","","","","","","","",""
"","ISI","","html-keyboard-response","76","138734","0.0-1.0-102.0","0","0","96688","","null","","","null","11","NaN","","","","","","","","","","","","","","",""
"","S2","","html-keyboard-response","77","138986","0.0-1.0-103.0","0","0","96688","","null","","","null","11","","NaN","","","","","","","","","","","","","",""
"","response","","html-keyboard-response","78","139514","0.0-1.0-104.0","0","0","96688","","526","","","68","11","","","1","11","training","adjacent","BA","2","1","O.jpg","Q.jpg","1","0","0","",""
"","feedback","","html-keyboard-response","79","140517","0.0-1.0-105.0-0.0","0","0","96688","","null","","","null","11","","","","","","","","","","","","","","","",""
"","time_out","","html-keyboard-response","80","142519","0.0-1.0-107.0-0.0","0","0","96688","","null","","","null","11","","","","","","","","","","","","","","","",""
"","ITI","","html-keyboard-response","81","143523","0.0-1.0-108.0","0","0","96688","","null","","","null","11","","","","","","","","","","","","","","","NaN",""
"","S1","","html-keyboard-response","82","143776","0.0-1.0-110.0","0","0","96688","","null","","","null","12","","","","","","","","","","","","","","","",""
"","ISI","","html-keyboard-response","83","145778","0.0-1.0-111.0","0","0","96688","","null","","","null","12","NaN","","","","","","","","","","","","","","",""
"","S2","","html-keyboard-response","84","146031","0.0-1.0-112.0","0","0","96688","","null","","","null","12","","NaN","","","","","","","","","","","","","",""
"","response","","html-keyboard-response","85","146542","0.0-1.0-113.0","0","0","96688","","508","","","68","12","","","1","12","training","adjacent","FE","6","5","P.jpg","N.jpg","1","0","0","",""
"","feedback","","html-keyboard-response","86","147544","0.0-1.0-114.0-0.0","0","0","96688","","null","","","null","12","","","","","","","","","","","","","","","",""
"","time_out","","html-keyboard-response","87","149546","0.0-1.0-116.0-0.0","0","0","96688","","null","","","null","12","","","","","","","","","","","","","","","",""
"","ITI","","html-keyboard-response","88","150549","0.0-1.0-117.0","0","0","96688","","null","","","null","12","","","","","","","","","","","","","","","NaN",""
"","S1","","html-keyboard-response","89","150802","0.0-1.0-119.0","0","0","96688","","null","","","null","13","","","","","","","","","","","","","","","",""
"","ISI","","html-keyboard-response","90","152805","0.0-1.0-120.0","0","0","96688","","null","","","null","13","NaN","","","","","","","","","","","","","","",""
"","S2","","html-keyboard-response","91","153057","0.0-1.0-121.0","0","0","96688","","null","","","null","13","","NaN","","","","","","","","","","","","","",""
"","response","","html-keyboard-response","92","153509","0.0-1.0-122.0","0","0","96688","","451","","","75","13","","","1","13","training","adjacent","CD","3","4","M.jpg","L.jpg","0","1","0","",""
"","feedback","","html-keyboard-response","93","154511","0.0-1.0-123.0-0.0","0","0","96688","","null","","","null","13","","","","","","","","","","","","","","","",""
"","time_out","","html-keyboard-response","94","156514","0.0-1.0-125.0-0.0","0","0","96688","","null","","","null","13","","","","","","","","","","","","","","","",""
"","ITI","","html-keyboard-response","95","157516","0.0-1.0-126.0","0","0","96688","","null","","","null","13","","","","","","","","","","","","","","","NaN",""
"","S1","","html-keyboard-response","96","157768","0.0-1.0-128.0","0","0","96688","","null","","","null","14","","","","","","","","","","","","","","","",""
"","ISI","","html-keyboard-response","97","159771","0.0-1.0-129.0","0","0","96688","","null","","","null","14","NaN","","","","","","","","","","","","","","",""
"","S2","","html-keyboard-response","98","160024","0.0-1.0-130.0","0","0","96688","","null","","","null","14","","NaN","","","","","","","","","","","","","",""
"","response","","html-keyboard-response","99","160393","0.0-1.0-131.0","0","0","96688","","368","","","75","14","","","1","14","training","adjacent","DE","4","5","L.jpg","N.jpg","0","1","0","",""
"","feedback","","html-keyboard-response","100","161397","0.0-1.0-132.0-0.0","0","0","96688","","null","","","null","14","","","","","","","","","","","","","","","",""
"","time_out","","html-keyboard-response","101","163399","0.0-1.0-134.0-0.0","0","0","96688","","null","","","null","14","","","","","","","","","","","","","","","",""
"","ITI","","html-keyboard-response","102","164401","0.0-1.0-135.0","0","0","96688","","null","","","null","14","","","","","","","","","","","","","","","NaN",""
"","S1","","html-keyboard-response","103","164654","0.0-1.0-137.0","0","0","96688","","null","","","null","15","","","","","","","","","","","","","","","",""
"","ISI","","html-keyboard-response","104","166656","0.0-1.0-138.0","0","0","96688","","null","","","null","15","NaN","","","","","","","","","","","","","","",""
"","S2","","html-keyboard-response","105","166909","0.0-1.0-139.0","0","0","96688","","null","","","null","15","","NaN","","","","","","","","","","","","","",""
"","response","","html-keyboard-response","106","167734","0.0-1.0-140.0","0","0","96688","","824","","","75","15","","","1","15","training","adjacent","EF","5","6","N.jpg","P.jpg","0","1","0","",""
"","feedback","","html-keyboard-response","107","168736","0.0-1.0-141.0-0.0","0","0","96688","","null","","","null","15","","","","","","","","","","","","","","","",""
"","time_out","","html-keyboard-response","108","170738","0.0-1.0-143.0-0.0","0","0","96688","","null","","","null","15","","","","","","","","","","","","","","","",""
"","ITI","","html-keyboard-response","109","171740","0.0-1.0-144.0","0","0","96688","","null","","","null","15","","","","","","","","","","","","","","","NaN",""
"","S1","","html-keyboard-response","110","171993","0.0-1.0-146.0","0","0","96688","","null","","","null","16","","","","","","","","","","","","","","","",""
"","ISI","","html-keyboard-response","111","173996","0.0-1.0-147.0","0","0","96688","","null","","","null","16","NaN","","","","","","","","","","","","","","",""
"","S2","","html-keyboard-response","112","174249","0.0-1.0-148.0","0","0","96688","","null","","","null","16","","NaN","","","","","","","","","","","","","",""
"","response","","html-keyboard-response","113","174597","0.0-1.0-149.0","0","0","96688","","348","","","75","16","","","1","16","training","adjacent","GF","7","6","R.jpg","P.jpg","0","0","1","",""
"","feedback","","html-keyboard-response","114","175599","0.0-1.0-150.0-0.0","0","0","96688","","null","","","null","16","","","","","","","","","","","","","","","",""
"","ITI","","html-keyboard-response","115","176601","0.0-1.0-153.0","0","0","96688","","null","","","null","16","","","","","","","","","","","","","","","NaN",""
"","S1","","html-keyboard-response","116","176854","0.0-1.0-155.0","0","0","96688","","null","","","null","17","","","","","","","","","","","","","","","",""
"","ISI","","html-keyboard-response","117","178856","0.0-1.0-156.0","0","0","96688","","null","","","null","17","NaN","","","","","","","","","","","","","","",""
"","S2","","html-keyboard-response","118","179109","0.0-1.0-157.0","0","0","96688","","null","","","null","17","","NaN","","","","","","","","","","","","","",""
"","response","","html-keyboard-response","119","179557","0.0-1.0-158.0","0","0","96688","","446","","","68","17","","","1","17","training","adjacent","EF","5","6","N.jpg","P.jpg","1","1","1","",""
"","feedback","","html-keyboard-response","120","180560","0.0-1.0-159.0-0.0","0","0","96688","","null","","","null","17","","","","","","","","","","","","","","","",""
"","ITI","","html-keyboard-response","121","181564","0.0-1.0-162.0","0","0","96688","","null","","","null","17","","","","","","","","","","","","","","","NaN",""
"","S1","","html-keyboard-response","122","181816","0.0-1.0-164.0","0","0","96688","","null","","","null","18","","","","","","","","","","","","","","","",""
"","ISI","","html-keyboard-response","123","183818","0.0-1.0-165.0","0","0","96688","","null","","","null","18","NaN","","","","","","","","","","","","","","",""
"","S2","","html-keyboard-response","124","184071","0.0-1.0-166.0","0","0","96688","","null","","","null","18","","NaN","","","","","","","","","","","","","",""
"","response","","html-keyboard-response","125","184581","0.0-1.0-167.0","0","0","96688","","509","","","75","18","","","1","18","training","adjacent","FE","6","5","P.jpg","N.jpg","0","0","1","",""
"","feedback","","html-keyboard-response","126","185584","0.0-1.0-168.0-0.0","0","0","96688","","null","","","null","18","","","","","","","","","","","","","","","",""
"","ITI","","html-keyboard-response","127","186586","0.0-1.0-171.0","0","0","96688","","null","","","null","18","","","","","","","","","","","","","","","NaN",""
"","S1","","html-keyboard-response","128","186839","0.0-1.0-173.0","0","0","96688","","null","","","null","19","","","","","","","","","","","","","","","",""
"","ISI","","html-keyboard-response","129","188841","0.0-1.0-174.0","0","0","96688","","null","","","null","19","NaN","","","","","","","","","","","","","","",""
"","S2","","html-keyboard-response","130","189094","0.0-1.0-175.0","0","0","96688","","null","","","null","19","","NaN","","","","","","","","","","","","","",""
"","response","","html-keyboard-response","131","189876","0.0-1.0-176.0","0","0","96688","","780","","","68","19","","","1","19","training","adjacent","AB","1","2","Q.jpg","O.jpg","1","1","1","",""
"","feedback","","html-keyboard-response","132","190879","0.0-1.0-177.0-0.0","0","0","96688","","null","","","null","19","","","","","","","","","","","","","","","",""
"","ITI","","html-keyboard-response","133","191880","0.0-1.0-180.0","0","0","96688","","null","","","null","19","","","","","","","","","","","","","","","NaN",""
"","S1","","html-keyboard-response","134","192147","0.0-1.0-182.0","0","0","96688","","null","","","null","20","","","","","","","","","","","","","","","",""
"","ISI","","html-keyboard-response","135","194150","0.0-1.0-183.0","0","0","96688","","null","","","null","20","NaN","","","","","","","","","","","","","","",""
"","S2","","html-keyboard-response","136","194410","0.0-1.0-184.0","0","0","96688","","null","","","null","20","","NaN","","","","","","","","","","","","","",""
"","response","","html-keyboard-response","137","194828","0.0-1.0-185.0","0","0","96688","","416","","","68","20","","","1","20","training","adjacent","AB","1","2","Q.jpg","O.jpg","1","1","1","",""
"","feedback","","html-keyboard-response","138","195831","0.0-1.0-186.0-0.0","0","0","96688","","null","","","null","20","","","","","","","","","","","","","","","",""
"","ITI","","html-keyboard-response","139","196834","0.0-1.0-189.0","0","0","96688","","null","","","null","20","","","","","","","","","","","","","","","NaN",""
"","S1","","html-keyboard-response","140","197086","0.0-1.0-191.0","0","0","96688","","null","","","null","21","","","","","","","","","","","","","","","",""
"","ISI","","html-keyboard-response","141","199088","0.0-1.0-192.0","0","0","96688","","null","","","null","21","NaN","","","","","","","","","","","","","","",""
"","S2","","html-keyboard-response","142","199341","0.0-1.0-193.0","0","0","96688","","null","","","null","21","","NaN","","","","","","","","","","","","","",""
"","response","","html-keyboard-response","143","199883","0.0-1.0-194.0","0","0","96688","","540","","","68","21","","","1","21","training","adjacent","CB","3","2","M.jpg","O.jpg","1","0","0","",""
"","feedback","","html-keyboard-response","144","200886","0.0-1.0-195.0-0.0","0","0","96688","","null","","","null","21","","","","","","","","","","","","","","","",""
"","time_out","","html-keyboard-response","145","202889","0.0-1.0-197.0-0.0","0","0","96688","","null","","","null","21","","","","","","","","","","","","","","","",""
"","ITI","","html-keyboard-response","146","203891","0.0-1.0-198.0","0","0","96688","","null","","","null","21","","","","","","","","","","","","","","","NaN",""
"","S1","","html-keyboard-response","147","204145","0.0-1.0-200.0","0","0","96688","","null","","","null","22","","","","","","","","","","","","","","","",""
"","ISI","","html-keyboard-response","148","206147","0.0-1.0-201.0","0","0","96688","","null","","","null","22","NaN","","","","","","","","","","","","","","",""
"","S2","","html-keyboard-response","149","206400","0.0-1.0-202.0","0","0","96688","","null","","","null","22","","NaN","","","","","","","","","","","","","",""
"","response","","html-keyboard-response","150","207047","0.0-1.0-203.0","0","0","96688","","646","","","68","22","","","1","22","training","adjacent","FG","6","7","P.jpg","R.jpg","1","1","1","",""
"","feedback","","html-keyboard-response","151","208050","0.0-1.0-204.0-0.0","0","0","96688","","null","","","null","22","","","","","","","","","","","","","","","",""
"","ITI","","html-keyboard-response","152","209059","0.0-1.0-207.0","0","0","96688","","null","","","null","22","","","","","","","","","","","","","","","NaN",""
"","S1","","html-keyboard-response","153","209312","0.0-1.0-209.0","0","0","96688","","null","","","null","23","","","","","","","","","","","","","","","",""
"","ISI","","html-keyboard-response","154","211315","0.0-1.0-210.0","0","0","96688","","null","","","null","23","NaN","","","","","","","","","","","","","","",""
"","S2","","html-keyboard-response","155","211567","0.0-1.0-211.0","0","0","96688","","null","","","null","23","","NaN","","","","","","","","","","","","","",""
"","response","","html-keyboard-response","156","211916","0.0-1.0-212.0","0","0","96688","","347","","","68","23","","","1","23","training","adjacent","AB","1","2","Q.jpg","O.jpg","1","1","1","",""
"","feedback","","html-keyboard-response","157","212920","0.0-1.0-213.0-0.0","0","0","96688","","null","","","null","23","","","","","","","","","","","","","","","",""
"","ITI","","html-keyboard-response","158","213922","0.0-1.0-216.0","0","0","96688","","null","","","null","23","","","","","","","","","","","","","","","NaN",""
"","S1","","html-keyboard-response","159","214175","0.0-1.0-218.0","0","0","96688","","null","","","null","24","","","","","","","","","","","","","","","",""
"","ISI","","html-keyboard-response","160","216177","0.0-1.0-219.0","0","0","96688","","null","","","null","24","NaN","","","","","","","","","","","","","","",""
"","S2","","html-keyboard-response","161","216430","0.0-1.0-220.0","0","0","96688","","null","","","null","24","","NaN","","","","","","","","","","","","","",""
"","response","","html-keyboard-response","162","216961","0.0-1.0-221.0","0","0","96688","","530","","","68","24","","","1","24","training","adjacent","BC","2","3","O.jpg","M.jpg","1","1","1","",""
"","feedback","","html-keyboard-response","163","217964","0.0-1.0-222.0-0.0","0","0","96688","","null","","","null","24","","","","","","","","","","","","","","","",""
"","ITI","","html-keyboard-response","164","218967","0.0-1.0-225.0","0","0","96688","","null","","","null","24","","","","","","","","","","","","","","","NaN",""
"","S1","","html-keyboard-response","165","219220","0.0-1.0-227.0","0","0","96688","","null","","","null","25","","","","","","","","","","","","","","","",""
"","ISI","","html-keyboard-response","166","221222","0.0-1.0-228.0","0","0","96688","","null","","","null","25","NaN","","","","","","","","","","","","","","",""
"","S2","","html-keyboard-response","167","221475","0.0-1.0-229.0","0","0","96688","","null","","","null","25","","NaN","","","","","","","","","","","","","",""
"","response","","html-keyboard-response","168","222141","0.0-1.0-230.0","0","0","96688","","665","","","68","25","","","1","25","training","adjacent","DE","4","5","L.jpg","N.jpg","1","1","1","",""
"","feedback","","html-keyboard-response","169","223156","0.0-1.0-231.0-0.0","0","0","96688","","null","","","null","25","","","","","","","","","","","","","","","",""
"","ITI","","html-keyboard-response","170","224158","0.0-1.0-234.0","0","0","96688","","null","","","null","25","","","","","","","","","","","","","","","NaN",""
"","S1","","html-keyboard-response","171","224411","0.0-1.0-236.0","0","0","96688","","null","","","null","26","","","","","","","","","","","","","","","",""
"","ISI","","html-keyboard-response","172","226413","0.0-1.0-237.0","0","0","96688","","null","","","null","26","NaN","","","","","","","","","","","","","","",""
"","S2","","html-keyboard-response","173","226665","0.0-1.0-238.0","0","0","96688","","null","","","null","26","","NaN","","","","","","","","","","","","","",""
"","response","","html-keyboard-response","174","227254","0.0-1.0-239.0","0","0","96688","","587","","","68","26","","","1","26","training","adjacent","FG","6","7","P.jpg","R.jpg","1","1","1","",""
"","feedback","","html-keyboard-response","175","228257","0.0-1.0-240.0-0.0","0","0","96688","","null","","","null","26","","","","","","","","","","","","","","","",""
"","ITI","","html-keyboard-response","176","229260","0.0-1.0-243.0","0","0","96688","","null","","","null","26","","","","","","","","","","","","","","","NaN",""
"","S1","","html-keyboard-response","177","229512","0.0-1.0-245.0","0","0","96688","","null","","","null","27","","","","","","","","","","","","","","","",""
"","ISI","","html-keyboard-response","178","231514","0.0-1.0-246.0","0","0","96688","","null","","","null","27","NaN","","","","","","","","","","","","","","",""
"","S2","","html-keyboard-response","179","231767","0.0-1.0-247.0","0","0","96688","","null","","","null","27","","NaN","","","","","","","","","","","","","",""
"","response","","html-keyboard-response","180","232719","0.0-1.0-248.0","0","0","96688","","950","","","68","27","","","1","27","training","adjacent","DC","4","3","L.jpg","M.jpg","1","0","0","",""
"","feedback","","html-keyboard-response","181","233721","0.0-1.0-249.0-0.0","0","0","96688","","null","","","null","27","","","","","","","","","","","","","","","",""
"","time_out","","html-keyboard-response","182","235723","0.0-1.0-251.0-0.0","0","0","96688","","null","","","null","27","","","","","","","","","","","","","","","",""
"","ITI","","html-keyboard-response","183","236725","0.0-1.0-252.0","0","0","96688","","null","","","null","27","","","","","","","","","","","","","","","NaN",""
"","S1","","html-keyboard-response","184","236978","0.0-1.0-254.0","0","0","96688","","null","","","null","28","","","","","","","","","","","","","","","",""
"","ISI","","html-keyboard-response","185","238981","0.0-1.0-255.0","0","0","96688","","1002","","","68","28","d","","","","","","","","","","","","","","",""
"","S2","","html-keyboard-response","186","239235","0.0-1.0-256.0","0","0","96688","","138","","","68","28","","d","","","","","","","","","","","","","",""
"","response","","html-keyboard-response","187","241238","0.0-1.0-257.0","0","0","96688","","null","","","null","28","","","1","28","training","adjacent","ED","5","4","N.jpg","L.jpg","NaN","0","0","",""
"","too_slow_prompt","","html-keyboard-response","188","242240","0.0-1.0-259.0-0.0","1","0","96688","","null","","","null","","","","","","","","","","","","","","","","",""
"","time_out","","html-keyboard-response","189","244242","0.0-1.0-260.0-0.0","0","0","96688","","null","","","null","28","","","","","","","","","","","","","","","",""
"","ITI","","html-keyboard-response","190","245245","0.0-1.0-261.0","0","0","96688","","null","","","null","28","","","","","","","","","","","","","","","NaN",""
"","S1","","html-keyboard-response","191","245498","0.0-1.0-263.0","0","0","96688","","null","","","null","29","","","","","","","","","","","","","","","",""
"","ISI","","html-keyboard-response","192","247500","0.0-1.0-264.0","0","0","96688","","null","","","null","29","NaN","","","","","","","","","","","","","","",""
"","S2","","html-keyboard-response","193","247754","0.0-1.0-265.0","0","0","96688","","null","","","null","29","","NaN","","","","","","","","","","","","","",""
"","response","","html-keyboard-response","194","248154","0.0-1.0-266.0","0","0","96688","","399","","","68","29","","","1","29","training","adjacent","AB","1","2","Q.jpg","O.jpg","1","1","1","",""
"","feedback","","html-keyboard-response","195","249156","0.0-1.0-267.0-0.0","0","0","96688","","null","","","null","29","","","","","","","","","","","","","","","",""
"","ITI","","html-keyboard-response","196","250158","0.0-1.0-270.0","0","0","96688","","null","","","null","29","","","","","","","","","","","","","","","NaN",""
"","S1","","html-keyboard-response","197","250411","0.0-1.0-272.0","0","0","96688","","null","","","null","30","","","","","","","","","","","","","","","",""
"","ISI","","html-keyboard-response","198","252413","0.0-1.0-273.0","0","0","96688","","null","","","null","30","NaN","","","","","","","","","","","","","","",""
"","S2","","html-keyboard-response","199","252666","0.0-1.0-274.0","0","0","96688","","null","","","null","30","","NaN","","","","","","","","","","","","","",""
"","response","","html-keyboard-response","200","253904","0.0-1.0-275.0","0","0","96688","","1236","","","68","30","","","1","30","training","adjacent","DE","4","5","L.jpg","N.jpg","1","1","1","",""
"","feedback","","html-keyboard-response","201","254907","0.0-1.0-276.0-0.0","0","0","96688","","null","","","null","30","","","","","","","","","","","","","","","",""
"","ITI","","html-keyboard-response","202","255910","0.0-1.0-279.0","0","0","96688","","null","","","null","30","","","","","","","","","","","","","","","NaN",""
"","S1","","html-keyboard-response","203","256164","0.0-1.0-281.0","0","0","96688","","null","","","null","31","","","","","","","","","","","","","","","",""
"","ISI","","html-keyboard-response","204","258166","0.0-1.0-282.0","0","0","96688","","null","","","null","31","NaN","","","","","","","","","","","","","","",""
"","S2","","html-keyboard-response","205","258419","0.0-1.0-283.0","0","0","96688","","null","","","null","31","","NaN","","","","","","","","","","","","","",""
"","response","","html-keyboard-response","206","259204","0.0-1.0-284.0","0","0","96688","","783","","","68","31","","","1","31","training","adjacent","CB","3","2","M.jpg","O.jpg","1","0","0","",""
"","feedback","","html-keyboard-response","207","260207","0.0-1.0-285.0-0.0","0","0","96688","","null","","","null","31","","","","","","","","","","","","","","","",""
"","time_out","","html-keyboard-response","208","262209","0.0-1.0-287.0-0.0","0","0","96688","","null","","","null","31","","","","","","","","","","","","","","","",""
"","ITI","","html-keyboard-response","209","263214","0.0-1.0-288.0","0","0","96688","","null","","","null","31","","","","","","","","","","","","","","","NaN",""
"","S1","","html-keyboard-response","210","263466","0.0-1.0-290.0","0","0","96688","","null","","","null","32","","","","","","","","","","","","","","","",""
"","ISI","","html-keyboard-response","211","265468","0.0-1.0-291.0","0","0","96688","","null","","","null","32","NaN","","","","","","","","","","","","","","",""
"","S2","","html-keyboard-response","212","265722","0.0-1.0-292.0","0","0","96688","","null","","","null","32","","NaN","","","","","","","","","","","","","",""
"","response","","html-keyboard-response","213","266060","0.0-1.0-293.0","0","0","96688","","336","","","75","32","","","1","32","training","adjacent","ED","5","4","N.jpg","L.jpg","0","0","1","",""
"","feedback","","html-keyboard-response","214","267062","0.0-1.0-294.0-0.0","0","0","96688","","null","","","null","32","","","","","","","","","","","","","","","",""
"","ITI","","html-keyboard-response","215","268065","0.0-1.0-297.0","0","0","96688","","null","","","null","32","","","","","","","","","","","","","","","NaN",""
"","S1","","html-keyboard-response","216","268318","0.0-1.0-299.0","0","0","96688","","null","","","null","33","","","","","","","","","","","","","","","",""
"","ISI","","html-keyboard-response","217","270320","0.0-1.0-300.0","0","0","96688","","null","","","null","33","NaN","","","","","","","","","","","","","","",""
"","S2","","html-keyboard-response","218","270574","0.0-1.0-301.0","0","0","96688","","null","","","null","33","","NaN","","","","","","","","","","","","","",""
"","response","","html-keyboard-response","219","271134","0.0-1.0-302.0","0","0","96688","","558","","","68","33","","","1","33","training","adjacent","CB","3","2","M.jpg","O.jpg","1","0","0","",""
"","feedback","","html-keyboard-response","220","272136","0.0-1.0-303.0-0.0","0","0","96688","","null","","","null","33","","","","","","","","","","","","","","","",""
"","time_out","","html-keyboard-response","221","274139","0.0-1.0-305.0-0.0","0","0","96688","","null","","","null","33","","","","","","","","","","","","","","","",""
"","ITI","","html-keyboard-response","222","275142","0.0-1.0-306.0","0","0","96688","","null","","","null","33","","","","","","","","","","","","","","","NaN",""
"","S1","","html-keyboard-response","223","275394","0.0-1.0-308.0","0","0","96688","","null","","","null","34","","","","","","","","","","","","","","","",""
"","ISI","","html-keyboard-response","224","277397","0.0-1.0-309.0","0","0","96688","","null","","","null","34","NaN","","","","","","","","","","","","","","",""
"","S2","","html-keyboard-response","225","277649","0.0-1.0-310.0","0","0","96688","","null","","","null","34","","NaN","","","","","","","","","","","","","",""
"","response","","html-keyboard-response","226","278175","0.0-1.0-311.0","0","0","96688","","524","","","68","34","","","1","34","training","adjacent","FG","6","7","P.jpg","R.jpg","1","1","1","",""
"","feedback","","html-keyboard-response","227","279177","0.0-1.0-312.0-0.0","0","0","96688","","null","","","null","34","","","","","","","","","","","","","","","",""
"","ITI","","html-keyboard-response","228","280180","0.0-1.0-315.0","0","0","96688","","null","","","null","34","","","","","","","","","","","","","","","NaN",""
"","S1","","html-keyboard-response","229","280437","0.0-1.0-317.0","0","0","96688","","null","","","null","35","","","","","","","","","","","","","","","",""
"","ISI","","html-keyboard-response","230","282439","0.0-1.0-318.0","0","0","96688","","null","","","null","35","NaN","","","","","","","","","","","","","","",""
"","S2","","html-keyboard-response","231","282693","0.0-1.0-319.0","0","0","96688","","null","","","null","35","","NaN","","","","","","","","","","","","","",""
"","response","","html-keyboard-response","232","283102","0.0-1.0-320.0","0","0","96688","","407","","","75","35","","","1","35","training","adjacent","EF","5","6","N.jpg","P.jpg","0","1","0","",""
"","feedback","","html-keyboard-response","233","284105","0.0-1.0-321.0-0.0","0","0","96688","","null","","","null","35","","","","","","","","","","","","","","","",""
"","time_out","","html-keyboard-response","234","286107","0.0-1.0-323.0-0.0","0","0","96688","","null","","","null","35","","","","","","","","","","","","","","","",""
"","ITI","","html-keyboard-response","235","287110","0.0-1.0-324.0","0","0","96688","","null","","","null","35","","","","","","","","","","","","","","","NaN",""
"","S1","","html-keyboard-response","236","287361","0.0-1.0-326.0","0","0","96688","","null","","","null","36","","","","","","","","","","","","","","","",""
"","ISI","","html-keyboard-response","237","289364","0.0-1.0-327.0","0","0","96688","","null","","","null","36","NaN","","","","","","","","","","","","","","",""
"","S2","","html-keyboard-response","238","289616","0.0-1.0-328.0","0","0","96688","","null","","","null","36","","NaN","","","","","","","","","","","","","",""
"","response","","html-keyboard-response","239","290117","0.0-1.0-329.0","0","0","96688","","499","","","68","36","","","1","36","training","adjacent","DC","4","3","L.jpg","M.jpg","1","0","0","",""
"","feedback","","html-keyboard-response","240","291119","0.0-1.0-330.0-0.0","0","0","96688","","null","","","null","36","","","","","","","","","","","","","","","",""
"","time_out","","html-keyboard-response","241","293122","0.0-1.0-332.0-0.0","0","0","96688","","null","","","null","36","","","","","","","","","","","","","","","",""
"","ITI","","html-keyboard-response","242","294124","0.0-1.0-333.0","0","0","96688","","null","","","null","36","","","","","","","","","","","","","","","NaN",""
"","S1","","html-keyboard-response","243","294376","0.0-1.0-335.0","0","0","96688","","null","","","null","37","","","","","","","","","","","","","","","",""
"","ISI","","html-keyboard-response","244","296379","0.0-1.0-336.0","0","0","96688","","null","","","null","37","NaN","","","","","","","","","","","","","","",""
"","S2","","html-keyboard-response","245","296632","0.0-1.0-337.0","0","0","96688","","null","","","null","37","","NaN","","","","","","","","","","","","","",""
"","response","","html-keyboard-response","246","296990","0.0-1.0-338.0","0","0","96688","","357","","","75","37","","","1","37","training","adjacent","GF","7","6","R.jpg","P.jpg","0","0","1","",""
"","feedback","","html-keyboard-response","247","297992","0.0-1.0-339.0-0.0","0","0","96688","","null","","","null","37","","","","","","","","","","","","","","","",""
"","ITI","","html-keyboard-response","248","298995","0.0-1.0-342.0","0","0","96688","","null","","","null","37","","","","","","","","","","","","","","","NaN",""
"","S1","","html-keyboard-response","249","299247","0.0-1.0-344.0","0","0","96688","","null","","","null","38","","","","","","","","","","","","","","","",""
"","ISI","","html-keyboard-response","250","301249","0.0-1.0-345.0","0","0","96688","","null","","","null","38","NaN","","","","","","","","","","","","","","",""
"","S2","","html-keyboard-response","251","301502","0.0-1.0-346.0","0","0","96688","","null","","","null","38","","NaN","","","","","","","","","","","","","",""
"","response","","html-keyboard-response","252","302332","0.0-1.0-347.0","0","0","96688","","828","","","75","38","","","1","38","training","adjacent","BA","2","1","O.jpg","Q.jpg","0","0","1","",""
"","feedback","","html-keyboard-response","253","303335","0.0-1.0-348.0-0.0","0","0","96688","","null","","","null","38","","","","","","","","","","","","","","","",""
"","ITI","","html-keyboard-response","254","304337","0.0-1.0-351.0","0","0","96688","","null","","","null","38","","","","","","","","","","","","","","","NaN",""
"","S1","","html-keyboard-response","255","304590","0.0-1.0-353.0","0","0","96688","","null","","","null","39","","","","","","","","","","","","","","","",""
"","ISI","","html-keyboard-response","256","306592","0.0-1.0-354.0","0","0","96688","","null","","","null","39","NaN","","","","","","","","","","","","","","",""
"","S2","","html-keyboard-response","257","306855","0.0-1.0-355.0","0","0","96688","","null","","","null","39","","NaN","","","","","","","","","","","","","",""
"","response","","html-keyboard-response","258","307243","0.0-1.0-356.0","0","0","96688","","387","","","75","39","","","1","39","training","adjacent","BA","2","1","O.jpg","Q.jpg","0","0","1","",""
"","feedback","","html-keyboard-response","259","308246","0.0-1.0-357.0-0.0","0","0","96688","","null","","","null","39","","","","","","","","","","","","","","","",""
"","ITI","","html-keyboard-response","260","309249","0.0-1.0-360.0","0","0","96688","","null","","","null","39","","","","","","","","","","","","","","","NaN",""
"","S1","","html-keyboard-response","261","309502","0.0-1.0-362.0","0","0","96688","","null","","","null","40","","","","","","","","","","","","","","","",""
"","ISI","","html-keyboard-response","262","311504","0.0-1.0-363.0","0","0","96688","","null","","","null","40","NaN","","","","","","","","","","","","","","",""
"","S2","","html-keyboard-response","263","311757","0.0-1.0-364.0","0","0","96688","","null","","","null","40","","NaN","","","","","","","","","","","","","",""
"","response","","html-keyboard-response","264","312013","0.0-1.0-365.0","0","0","96688","","253","","","75","40","","","1","40","training","adjacent","BA","2","1","O.jpg","Q.jpg","0","0","1","",""
"","feedback","","html-keyboard-response","265","313016","0.0-1.0-366.0-0.0","0","0","96688","","null","","","null","40","","","","","","","","","","","","","","","",""
"","ITI","","html-keyboard-response","266","314018","0.0-1.0-369.0","0","0","96688","","null","","","null","40","","","","","","","","","","","","","","","NaN",""
"","S1","","html-keyboard-response","267","314271","0.0-1.0-371.0","0","0","96688","","null","","","null","41","","","","","","","","","","","","","","","",""
"","ISI","","html-keyboard-response","268","316274","0.0-1.0-372.0","0","0","96688","","null","","","null","41","NaN","","","","","","","","","","","","","","",""
"","S2","","html-keyboard-response","269","316527","0.0-1.0-373.0","0","0","96688","","null","","","null","41","","NaN","","","","","","","","","","","","","",""
"","response","","html-keyboard-response","270","317027","0.0-1.0-374.0","0","0","96688","","498","","","75","41","","","1","41","training","adjacent","DC","4","3","L.jpg","M.jpg","0","0","1","",""
"","feedback","","html-keyboard-response","271","318029","0.0-1.0-375.0-0.0","0","0","96688","","null","","","null","41","","","","","","","","","","","","","","","",""
"","ITI","","html-keyboard-response","272","319034","0.0-1.0-378.0","0","0","96688","","null","","","null","41","","","","","","","","","","","","","","","NaN",""
"","S1","","html-keyboard-response","273","319286","0.0-1.0-380.0","0","0","96688","","null","","","null","42","","","","","","","","","","","","","","","",""
"","ISI","","html-keyboard-response","274","321289","0.0-1.0-381.0","0","0","96688","","null","","","null","42","NaN","","","","","","","","","","","","","","",""
"","S2","","html-keyboard-response","275","321543","0.0-1.0-382.0","0","0","96688","","null","","","null","42","","NaN","","","","","","","","","","","","","",""
"","response","","html-keyboard-response","276","321988","0.0-1.0-383.0","0","0","96688","","443","","","75","42","","","1","42","training","adjacent","BC","2","3","O.jpg","M.jpg","0","1","0","",""
"","feedback","","html-keyboard-response","277","322991","0.0-1.0-384.0-0.0","0","0","96688","","null","","","null","42","","","","","","","","","","","","","","","",""
"","time_out","","html-keyboard-response","278","324995","0.0-1.0-386.0-0.0","0","0","96688","","null","","","null","42","","","","","","","","","","","","","","","",""
"","ITI","","html-keyboard-response","279","325998","0.0-1.0-387.0","0","0","96688","","null","","","null","42","","","","","","","","","","","","","","","NaN",""
"","S1","","html-keyboard-response","280","326249","0.0-1.0-389.0","0","0","96688","","null","","","null","43","","","","","","","","","","","","","","","",""
"","ISI","","html-keyboard-response","281","328251","0.0-1.0-390.0","0","0","96688","","null","","","null","43","NaN","","","","","","","","","","","","","","",""
"","S2","","html-keyboard-response","282","328504","0.0-1.0-391.0","0","0","96688","","null","","","null","43","","NaN","","","","","","","","","","","","","",""
"","response","","html-keyboard-response","283","328982","0.0-1.0-392.0","0","0","96688","","476","","","68","43","","","1","43","training","adjacent","ED","5","4","N.jpg","L.jpg","1","0","0","",""
"","feedback","","html-keyboard-response","284","329985","0.0-1.0-393.0-0.0","0","0","96688","","null","","","null","43","","","","","","","","","","","","","","","",""
"","time_out","","html-keyboard-response","285","331987","0.0-1.0-395.0-0.0","0","0","96688","","null","","","null","43","","","","","","","","","","","","","","","",""
"","ITI","","html-keyboard-response","286","332990","0.0-1.0-396.0","0","0","96688","","null","","","null","43","","","","","","","","","","","","","","","NaN",""
"","S1","","html-keyboard-response","287","333243","0.0-1.0-398.0","0","0","96688","","null","","","null","44","","","","","","","","","","","","","","","",""
"","ISI","","html-keyboard-response","288","335245","0.0-1.0-399.0","0","0","96688","","null","","","null","44","NaN","","","","","","","","","","","","","","",""
"","S2","","html-keyboard-response","289","335498","0.0-1.0-400.0","0","0","96688","","null","","","null","44","","NaN","","","","","","","","","","","","","",""
"","response","","html-keyboard-response","290","336158","0.0-1.0-401.0","0","0","96688","","658","","","68","44","","","1","44","training","adjacent","FE","6","5","P.jpg","N.jpg","1","0","0","",""
"","feedback","","html-keyboard-response","291","337162","0.0-1.0-402.0-0.0","0","0","96688","","null","","","null","44","","","","","","","","","","","","","","","",""
"","time_out","","html-keyboard-response","292","339165","0.0-1.0-404.0-0.0","0","0","96688","","null","","","null","44","","","","","","","","","","","","","","","",""
"","ITI","","html-keyboard-response","293","340168","0.0-1.0-405.0","0","0","96688","","null","","","null","44","","","","","","","","","","","","","","","NaN",""
"","S1","","html-keyboard-response","294","340420","0.0-1.0-407.0","0","0","96688","","null","","","null","45","","","","","","","","","","","","","","","",""
"","ISI","","html-keyboard-response","295","342424","0.0-1.0-408.0","0","0","96688","","null","","","null","45","NaN","","","","","","","","","","","","","","",""
"","S2","","html-keyboard-response","296","342677","0.0-1.0-409.0","0","0","96688","","null","","","null","45","","NaN","","","","","","","","","","","","","",""
"","response","","html-keyboard-response","297","343217","0.0-1.0-410.0","0","0","96688","","539","","","68","45","","","1","45","training","adjacent","DE","4","5","L.jpg","N.jpg","1","1","1","",""
"","feedback","","html-keyboard-response","298","344220","0.0-1.0-411.0-0.0","0","0","96688","","null","","","null","45","","","","","","","","","","","","","","","",""
"","ITI","","html-keyboard-response","299","345224","0.0-1.0-414.0","0","0","96688","","null","","","null","45","","","","","","","","","","","","","","","NaN",""
"","S1","","html-keyboard-response","300","345476","0.0-1.0-416.0","0","0","96688","","null","","","null","46","","","","","","","","","","","","","","","",""
"","ISI","","html-keyboard-response","301","347478","0.0-1.0-417.0","0","0","96688","","null","","","null","46","NaN","","","","","","","","","","","","","","",""
"","S2","","html-keyboard-response","302","347731","0.0-1.0-418.0","0","0","96688","","null","","","null","46","","NaN","","","","","","","","","","","","","",""
"","response","","html-keyboard-response","303","348326","0.0-1.0-419.0","0","0","96688","","594","","","68","46","","","1","46","training","adjacent","EF","5","6","N.jpg","P.jpg","1","1","1","",""
"","feedback","","html-keyboard-response","304","349330","0.0-1.0-420.0-0.0","0","0","96688","","null","","","null","46","","","","","","","","","","","","","","","",""
"","ITI","","html-keyboard-response","305","350332","0.0-1.0-423.0","0","0","96688","","null","","","null","46","","","","","","","","","","","","","","","NaN",""
"","S1","","html-keyboard-response","306","350585","0.0-1.0-425.0","0","0","96688","","null","","","null","47","","","","","","","","","","","","","","","",""
"","ISI","","html-keyboard-response","307","352587","0.0-1.0-426.0","0","0","96688","","null","","","null","47","NaN","","","","","","","","","","","","","","",""
"","S2","","html-keyboard-response","308","352840","0.0-1.0-427.0","0","0","96688","","null","","","null","47","","NaN","","","","","","","","","","","","","",""
"","response","","html-keyboard-response","309","353420","0.0-1.0-428.0","0","0","96688","","579","","","68","47","","","1","47","training","adjacent","CD","3","4","M.jpg","L.jpg","1","1","1","",""
"","feedback","","html-keyboard-response","310","354424","0.0-1.0-429.0-0.0","0","0","96688","","null","","","null","47","","","","","","","","","","","","","","","",""
"","ITI","","html-keyboard-response","311","355426","0.0-1.0-432.0","0","0","96688","","null","","","null","47","","","","","","","","","","","","","","","NaN",""
"","block_over","","html-keyboard-response","312","374348","0.0-1.0-433.0-0.0","0","0","96688","","18919","","","32","47","","","","","","","","","","","","","","","",""
"","S1","","html-keyboard-response","313","374601","0.0-1.0-434.0","0","0","96688","","null","","","null","48","","","","","","","","","","","","","","","",""
"","ISI","","html-keyboard-response","314","376603","0.0-1.0-435.0","0","0","96688","","null","","","null","48","NaN","","","","","","","","","","","","","","",""
"","S2","","html-keyboard-response","315","376856","0.0-1.0-436.0","0","0","96688","","null","","","null","48","","NaN","","","","","","","","","","","","","",""
"","response","","html-keyboard-response","316","377789","0.0-1.0-437.0","0","0","96688","","932","","","68","48","","","2","48","training","adjacent","EF","5","6","N.jpg","P.jpg","1","1","1","",""
"","feedback","","html-keyboard-response","317","378792","0.0-1.0-438.0-0.0","0","0","96688","","null","","","null","48","","","","","","","","","","","","","","","",""
"","ITI","","html-keyboard-response","318","379795","0.0-1.0-441.0","0","0","96688","","null","","","null","48","","","","","","","","","","","","","","","NaN",""
"","S1","","html-keyboard-response","319","380047","0.0-1.0-443.0","0","0","96688","","null","","","null","49","","","","","","","","","","","","","","","",""
"","ISI","","html-keyboard-response","320","382051","0.0-1.0-444.0","0","0","96688","","null","","","null","49","NaN","","","","","","","","","","","","","","",""
"","S2","","html-keyboard-response","321","382303","0.0-1.0-445.0","0","0","96688","","null","","","null","49","","NaN","","","","","","","","","","","","","",""
"","response","","html-keyboard-response","322","382799","0.0-1.0-446.0","0","0","96688","","493","","","68","49","","","2","49","training","adjacent","ED","5","4","N.jpg","L.jpg","1","0","0","",""
"","feedback","","html-keyboard-response","323","383802","0.0-1.0-447.0-0.0","0","0","96688","","null","","","null","49","","","","","","","","","","","","","","","",""
"","time_out","","html-keyboard-response","324","385804","0.0-1.0-449.0-0.0","0","0","96688","","null","","","null","49","","","","","","","","","","","","","","","",""
"","ITI","","html-keyboard-response","325","386807","0.0-1.0-450.0","0","0","96688","","null","","","null","49","","","","","","","","","","","","","","","NaN",""
"","S1","","html-keyboard-response","326","387060","0.0-1.0-452.0","0","0","96688","","null","","","null","50","","","","","","","","","","","","","","","",""
"","ISI","","html-keyboard-response","327","389062","0.0-1.0-453.0","0","0","96688","","null","","","null","50","NaN","","","","","","","","","","","","","","",""
"","S2","","html-keyboard-response","328","389315","0.0-1.0-454.0","0","0","96688","","null","","","null","50","","NaN","","","","","","","","","","","","","",""
"","response","","html-keyboard-response","329","389593","0.0-1.0-455.0","0","0","96688","","276","","","68","50","","","2","50","training","adjacent","AB","1","2","Q.jpg","O.jpg","1","1","1","",""
"","feedback","","html-keyboard-response","330","390595","0.0-1.0-456.0-0.0","0","0","96688","","null","","","null","50","","","","","","","","","","","","","","","",""
"","ITI","","html-keyboard-response","331","391598","0.0-1.0-459.0","0","0","96688","","null","","","null","50","","","","","","","","","","","","","","","NaN",""
"","S1","","html-keyboard-response","332","391851","0.0-1.0-461.0","0","0","96688","","null","","","null","51","","","","","","","","","","","","","","","",""
"","ISI","","html-keyboard-response","333","393854","0.0-1.0-462.0","0","0","96688","","null","","","null","51","NaN","","","","","","","","","","","","","","",""
"","S2","","html-keyboard-response","334","394107","0.0-1.0-463.0","0","0","96688","","null","","","null","51","","NaN","","","","","","","","","","","","","",""
"","response","","html-keyboard-response","335","394651","0.0-1.0-464.0","0","0","96688","","542","","","75","51","","","2","51","training","adjacent","BC","2","3","O.jpg","M.jpg","0","1","0","",""
"","feedback","","html-keyboard-response","336","395667","0.0-1.0-465.0-0.0","0","0","96688","","null","","","null","51","","","","","","","","","","","","","","","",""
"","time_out","","html-keyboard-response","337","397669","0.0-1.0-467.0-0.0","0","0","96688","","null","","","null","51","","","","","","","","","","","","","","","",""
"","ITI","","html-keyboard-response","338","398671","0.0-1.0-468.0","0","0","96688","","null","","","null","51","","","","","","","","","","","","","","","NaN",""
"","S1","","html-keyboard-response","339","398924","0.0-1.0-470.0","0","0","96688","","null","","","null","52","","","","","","","","","","","","","","","",""
"","ISI","","html-keyboard-response","340","400927","0.0-1.0-471.0","0","0","96688","","null","","","null","52","NaN","","","","","","","","","","","","","","",""
"","S2","","html-keyboard-response","341","401179","0.0-1.0-472.0","0","0","96688","","null","","","null","52","","NaN","","","","","","","","","","","","","",""
"","response","","html-keyboard-response","342","401491","0.0-1.0-473.0","0","0","96688","","309","","","68","52","","","2","52","training","adjacent","AB","1","2","Q.jpg","O.jpg","1","1","1","",""
"","feedback","","html-keyboard-response","343","402493","0.0-1.0-474.0-0.0","0","0","96688","","null","","","null","52","","","","","","","","","","","","","","","",""
"","ITI","","html-keyboard-response","344","403495","0.0-1.0-477.0","0","0","96688","","null","","","null","52","","","","","","","","","","","","","","","NaN",""
"","S1","","html-keyboard-response","345","403748","0.0-1.0-479.0","0","0","96688","","null","","","null","53","","","","","","","","","","","","","","","",""
"","ISI","","html-keyboard-response","346","405750","0.0-1.0-480.0","0","0","96688","","null","","","null","53","NaN","","","","","","","","","","","","","","",""
"","S2","","html-keyboard-response","347","406004","0.0-1.0-481.0","0","0","96688","","null","","","null","53","","NaN","","","","","","","","","","","","","",""
"","response","","html-keyboard-response","348","406932","0.0-1.0-482.0","0","0","96688","","927","","","75","53","","","2","53","training","adjacent","AB","1","2","Q.jpg","O.jpg","0","1","0","",""
"","feedback","","html-keyboard-response","349","407935","0.0-1.0-483.0-0.0","0","0","96688","","null","","","null","53","","","","","","","","","","","","","","","",""
"","time_out","","html-keyboard-response","350","409937","0.0-1.0-485.0-0.0","0","0","96688","","null","","","null","53","","","","","","","","","","","","","","","",""
"","ITI","","html-keyboard-response","351","410940","0.0-1.0-486.0","0","0","96688","","null","","","null","53","","","","","","","","","","","","","","","NaN",""
"","S1","","html-keyboard-response","352","411192","0.0-1.0-488.0","0","0","96688","","null","","","null","54","","","","","","","","","","","","","","","",""
"","ISI","","html-keyboard-response","353","413196","0.0-1.0-489.0","0","0","96688","","null","","","null","54","NaN","","","","","","","","","","","","","","",""
"","S2","","html-keyboard-response","354","413448","0.0-1.0-490.0","0","0","96688","","null","","","null","54","","NaN","","","","","","","","","","","","","",""
"","response","","html-keyboard-response","355","414142","0.0-1.0-491.0","0","0","96688","","692","","","68","54","","","2","54","training","adjacent","DC","4","3","L.jpg","M.jpg","1","0","0","",""
"","feedback","","html-keyboard-response","356","415145","0.0-1.0-492.0-0.0","0","0","96688","","null","","","null","54","","","","","","","","","","","","","","","",""
"","time_out","","html-keyboard-response","357","417148","0.0-1.0-494.0-0.0","0","0","96688","","null","","","null","54","","","","","","","","","","","","","","","",""
"","ITI","","html-keyboard-response","358","418150","0.0-1.0-495.0","0","0","96688","","null","","","null","54","","","","","","","","","","","","","","","NaN",""
"","S1","","html-keyboard-response","359","418407","0.0-1.0-497.0","0","0","96688","","null","","","null","55","","","","","","","","","","","","","","","",""
"","ISI","","html-keyboard-response","360","420408","0.0-1.0-498.0","0","0","96688","","null","","","null","55","NaN","","","","","","","","","","","","","","",""
"","S2","","html-keyboard-response","361","420661","0.0-1.0-499.0","0","0","96688","","null","","","null","55","","NaN","","","","","","","","","","","","","",""
"","response","","html-keyboard-response","362","421110","0.0-1.0-500.0","0","0","96688","","448","","","68","55","","","2","55","training","adjacent","BC","2","3","O.jpg","M.jpg","1","1","1","",""
"","feedback","","html-keyboard-response","363","422114","0.0-1.0-501.0-0.0","0","0","96688","","null","","","null","55","","","","","","","","","","","","","","","",""
"","ITI","","html-keyboard-response","364","423125","0.0-1.0-504.0","0","0","96688","","null","","","null","55","","","","","","","","","","","","","","","NaN",""
"","S1","","html-keyboard-response","365","423378","0.0-1.0-506.0","0","0","96688","","null","","","null","56","","","","","","","","","","","","","","","",""
"","ISI","","html-keyboard-response","366","425380","0.0-1.0-507.0","0","0","96688","","null","","","null","56","NaN","","","","","","","","","","","","","","",""
"","S2","","html-keyboard-response","367","425645","0.0-1.0-508.0","0","0","96688","","null","","","null","56","","NaN","","","","","","","","","","","","","",""
"","response","","html-keyboard-response","368","426349","0.0-1.0-509.0","0","0","96688","","703","","","68","56","","","2","56","training","adjacent","DC","4","3","L.jpg","M.jpg","1","0","0","",""
"","feedback","","html-keyboard-response","369","427352","0.0-1.0-510.0-0.0","0","0","96688","","null","","","null","56","","","","","","","","","","","","","","","",""
"","time_out","","html-keyboard-response","370","429362","0.0-1.0-512.0-0.0","0","0","96688","","null","","","null","56","","","","","","","","","","","","","","","",""
"","ITI","","html-keyboard-response","371","430364","0.0-1.0-513.0","0","0","96688","","null","","","null","56","","","","","","","","","","","","","","","NaN",""
"","S1","","html-keyboard-response","372","430617","0.0-1.0-515.0","0","0","96688","","null","","","null","57","","","","","","","","","","","","","","","",""
"","ISI","","html-keyboard-response","373","432619","0.0-1.0-516.0","0","0","96688","","null","","","null","57","NaN","","","","","","","","","","","","","","",""
"","S2","","html-keyboard-response","374","432872","0.0-1.0-517.0","0","0","96688","","null","","","null","57","","NaN","","","","","","","","","","","","","",""
"","response","","html-keyboard-response","375","433232","0.0-1.0-518.0","0","0","96688","","358","","","75","57","","","2","57","training","adjacent","FE","6","5","P.jpg","N.jpg","0","0","1","",""
"","feedback","","html-keyboard-response","376","434246","0.0-1.0-519.0-0.0","0","0","96688","","null","","","null","57","","","","","","","","","","","","","","","",""
"","ITI","","html-keyboard-response","377","435249","0.0-1.0-522.0","0","0","96688","","null","","","null","57","","","","","","","","","","","","","","","NaN",""
"","S1","","html-keyboard-response","378","435502","0.0-1.0-524.0","0","0","96688","","null","","","null","58","","","","","","","","","","","","","","","",""
"","ISI","","html-keyboard-response","379","437505","0.0-1.0-525.0","0","0","96688","","null","","","null","58","NaN","","","","","","","","","","","","","","",""
"","S2","","html-keyboard-response","380","437758","0.0-1.0-526.0","0","0","96688","","null","","","null","58","","NaN","","","","","","","","","","","","","",""
"","response","","html-keyboard-response","381","438334","0.0-1.0-527.0","0","0","96688","","574","","","68","58","","","2","58","training","adjacent","CD","3","4","M.jpg","L.jpg","1","1","1","",""
"","feedback","","html-keyboard-response","382","439337","0.0-1.0-528.0-0.0","0","0","96688","","null","","","null","58","","","","","","","","","","","","","","","",""
"","ITI","","html-keyboard-response","383","440340","0.0-1.0-531.0","0","0","96688","","null","","","null","58","","","","","","","","","","","","","","","NaN",""
"","S1","","html-keyboard-response","384","440593","0.0-1.0-533.0","0","0","96688","","null","","","null","59","","","","","","","","","","","","","","","",""
"","ISI","","html-keyboard-response","385","442595","0.0-1.0-534.0","0","0","96688","","null","","","null","59","NaN","","","","","","","","","","","","","","",""
"","S2","","html-keyboard-response","386","442849","0.0-1.0-535.0","0","0","96688","","null","","","null","59","","NaN","","","","","","","","","","","","","",""
"","response","","html-keyboard-response","387","443711","0.0-1.0-536.0","0","0","96688","","861","","","75","59","","","2","59","training","adjacent","CD","3","4","M.jpg","L.jpg","0","1","0","",""
"","feedback","","html-keyboard-response","388","444714","0.0-1.0-537.0-0.0","0","0","96688","","null","","","null","59","","","","","","","","","","","","","","","",""
"","time_out","","html-keyboard-response","389","446717","0.0-1.0-539.0-0.0","0","0","96688","","null","","","null","59","","","","","","","","","","","","","","","",""
"","ITI","","html-keyboard-response","390","447720","0.0-1.0-540.0","0","0","96688","","null","","","null","59","","","","","","","","","","","","","","","NaN",""
"","S1","","html-keyboard-response","391","447973","0.0-1.0-542.0","0","0","96688","","null","","","null","60","","","","","","","","","","","","","","","",""
"","ISI","","html-keyboard-response","392","449977","0.0-1.0-543.0","0","0","96688","","null","","","null","60","NaN","","","","","","","","","","","","","","",""
"","S2","","html-keyboard-response","393","450230","0.0-1.0-544.0","0","0","96688","","null","","","null","60","","NaN","","","","","","","","","","","","","",""
"","response","","html-keyboard-response","394","450788","0.0-1.0-545.0","0","0","96688","","557","","","68","60","","","2","60","training","adjacent","CB","3","2","M.jpg","O.jpg","1","0","0","",""
"","feedback","","html-keyboard-response","395","451791","0.0-1.0-546.0-0.0","0","0","96688","","null","","","null","60","","","","","","","","","","","","","","","",""
"","time_out","","html-keyboard-response","396","453794","0.0-1.0-548.0-0.0","0","0","96688","","null","","","null","60","","","","","","","","","","","","","","","",""
"","ITI","","html-keyboard-response","397","454796","0.0-1.0-549.0","0","0","96688","","null","","","null","60","","","","","","","","","","","","","","","NaN",""
"","S1","","html-keyboard-response","398","455048","0.0-1.0-551.0","0","0","96688","","null","","","null","61","","","","","","","","","","","","","","","",""
"","ISI","","html-keyboard-response","399","457050","0.0-1.0-552.0","0","0","96688","","null","","","null","61","NaN","","","","","","","","","","","","","","",""
"","S2","","html-keyboard-response","400","457304","0.0-1.0-553.0","0","0","96688","","null","","","null","61","","NaN","","","","","","","","","","","","","",""
"","response","","html-keyboard-response","401","457800","0.0-1.0-554.0","0","0","96688","","495","","","68","61","","","2","61","training","adjacent","FG","6","7","P.jpg","R.jpg","1","1","1","",""
"","feedback","","html-keyboard-response","402","458803","0.0-1.0-555.0-0.0","0","0","96688","","null","","","null","61","","","","","","","","","","","","","","","",""
"","ITI","","html-keyboard-response","403","459805","0.0-1.0-558.0","0","0","96688","","null","","","null","61","","","","","","","","","","","","","","","NaN",""
"","S1","","html-keyboard-response","404","460058","0.0-1.0-560.0","0","0","96688","","null","","","null","62","","","","","","","","","","","","","","","",""
"","ISI","","html-keyboard-response","405","462060","0.0-1.0-561.0","0","0","96688","","null","","","null","62","NaN","","","","","","","","","","","","","","",""
"","S2","","html-keyboard-response","406","462312","0.0-1.0-562.0","0","0","96688","","null","","","null","62","","NaN","","","","","","","","","","","","","",""
"","response","","html-keyboard-response","407","463018","0.0-1.0-563.0","0","0","96688","","704","","","75","62","","","2","62","training","adjacent","CB","3","2","M.jpg","O.jpg","0","0","1","",""
"","feedback","","html-keyboard-response","408","464022","0.0-1.0-564.0-0.0","0","0","96688","","null","","","null","62","","","","","","","","","","","","","","","",""
"","ITI","","html-keyboard-response","409","465025","0.0-1.0-567.0","0","0","96688","","null","","","null","62","","","","","","","","","","","","","","","NaN",""
"","S1","","html-keyboard-response","410","465278","0.0-1.0-569.0","0","0","96688","","null","","","null","63","","","","","","","","","","","","","","","",""
"","ISI","","html-keyboard-response","411","467280","0.0-1.0-570.0","0","0","96688","","null","","","null","63","NaN","","","","","","","","","","","","","","",""
"","S2","","html-keyboard-response","412","467537","0.0-1.0-571.0","0","0","96688","","null","","","null","63","","NaN","","","","","","","","","","","","","",""
"","response","","html-keyboard-response","413","468134","0.0-1.0-572.0","0","0","96688","","596","","","68","63","","","2","63","training","adjacent","FE","6","5","P.jpg","N.jpg","1","0","0","",""
"","feedback","","html-keyboard-response","414","469137","0.0-1.0-573.0-0.0","0","0","96688","","null","","","null","63","","","","","","","","","","","","","","","",""
"","time_out","","html-keyboard-response","415","471140","0.0-1.0-575.0-0.0","0","0","96688","","null","","","null","63","","","","","","","","","","","","","","","",""
"","ITI","","html-keyboard-response","416","472144","0.0-1.0-576.0","0","0","96688","","null","","","null","63","","","","","","","","","","","","","","","NaN",""
"","S1","","html-keyboard-response","417","472396","0.0-1.0-578.0","0","0","96688","","null","","","null","64","","","","","","","","","","","","","","","",""
"","ISI","","html-keyboard-response","418","474399","0.0-1.0-579.0","0","0","96688","","null","","","null","64","NaN","","","","","","","","","","","","","","",""
"","S2","","html-keyboard-response","419","474652","0.0-1.0-580.0","0","0","96688","","null","","","null","64","","NaN","","","","","","","","","","","","","",""
"","response","","html-keyboard-response","420","475173","0.0-1.0-581.0","0","0","96688","","519","","","75","64","","","2","64","training","adjacent","CD","3","4","M.jpg","L.jpg","0","1","0","",""
"","feedback","","html-keyboard-response","421","476176","0.0-1.0-582.0-0.0","0","0","96688","","null","","","null","64","","","","","","","","","","","","","","","",""
"","time_out","","html-keyboard-response","422","478178","0.0-1.0-584.0-0.0","0","0","96688","","null","","","null","64","","","","","","","","","","","","","","","",""
"","ITI","","html-keyboard-response","423","479181","0.0-1.0-585.0","0","0","96688","","null","","","null","64","","","","","","","","","","","","","","","NaN",""
"","S1","","html-keyboard-response","424","479435","0.0-1.0-587.0","0","0","96688","","null","","","null","65","","","","","","","","","","","","","","","",""
"","ISI","","html-keyboard-response","425","481437","0.0-1.0-588.0","0","0","96688","","null","","","null","65","NaN","","","","","","","","","","","","","","",""
"","S2","","html-keyboard-response","426","481690","0.0-1.0-589.0","0","0","96688","","null","","","null","65","","NaN","","","","","","","","","","","","","",""
"","response","","html-keyboard-response","427","482210","0.0-1.0-590.0","0","0","96688","","519","","","68","65","","","2","65","training","adjacent","BC","2","3","O.jpg","M.jpg","1","1","1","",""
"","feedback","","html-keyboard-response","428","483214","0.0-1.0-591.0-0.0","0","0","96688","","null","","","null","65","","","","","","","","","","","","","","","",""
"","ITI","","html-keyboard-response","429","484216","0.0-1.0-594.0","0","0","96688","","null","","","null","65","","","","","","","","","","","","","","","NaN",""
"","S1","","html-keyboard-response","430","484468","0.0-1.0-596.0","0","0","96688","","null","","","null","66","","","","","","","","","","","","","","","",""
"","ISI","","html-keyboard-response","431","486471","0.0-1.0-597.0","0","0","96688","","null","","","null","66","NaN","","","","","","","","","","","","","","",""
"","S2","","html-keyboard-response","432","486724","0.0-1.0-598.0","0","0","96688","","null","","","null","66","","NaN","","","","","","","","","","","","","",""
"","response","","html-keyboard-response","433","487664","0.0-1.0-599.0","0","0","96688","","938","","","75","66","","","2","66","training","adjacent","DE","4","5","L.jpg","N.jpg","0","1","0","",""
"","feedback","","html-keyboard-response","434","488666","0.0-1.0-600.0-0.0","0","0","96688","","null","","","null","66","","","","","","","","","","","","","","","",""
"","time_out","","html-keyboard-response","435","490670","0.0-1.0-602.0-0.0","0","0","96688","","null","","","null","66","","","","","","","","","","","","","","","",""
"","ITI","","html-keyboard-response","436","491672","0.0-1.0-603.0","0","0","96688","","null","","","null","66","","","","","","","","","","","","","","","NaN",""
"","S1","","html-keyboard-response","437","491924","0.0-1.0-605.0","0","0","96688","","null","","","null","67","","","","","","","","","","","","","","","",""
"","ISI","","html-keyboard-response","438","493926","0.0-1.0-606.0","0","0","96688","","null","","","null","67","NaN","","","","","","","","","","","","","","",""
"","S2","","html-keyboard-response","439","494180","0.0-1.0-607.0","0","0","96688","","null","","","null","67","","NaN","","","","","","","","","","","","","",""
"","response","","html-keyboard-response","440","494603","0.0-1.0-608.0","0","0","96688","","422","","","75","67","","","2","67","training","adjacent","BA","2","1","O.jpg","Q.jpg","0","0","1","",""
"","feedback","","html-keyboard-response","441","495606","0.0-1.0-609.0-0.0","0","0","96688","","null","","","null","67","","","","","","","","","","","","","","","",""
"","ITI","","html-keyboard-response","442","496609","0.0-1.0-612.0","0","0","96688","","null","","","null","67","","","","","","","","","","","","","","","NaN",""
"","S1","","html-keyboard-response","443","496864","0.0-1.0-614.0","0","0","96688","","null","","","null","68","","","","","","","","","","","","","","","",""
"","ISI","","html-keyboard-response","444","498866","0.0-1.0-615.0","0","0","96688","","null","","","null","68","NaN","","","","","","","","","","","","","","",""
"","S2","","html-keyboard-response","445","499118","0.0-1.0-616.0","0","0","96688","","null","","","null","68","","NaN","","","","","","","","","","","","","",""
"","response","","html-keyboard-response","446","499853","0.0-1.0-617.0","0","0","96688","","734","","","68","68","","","2","68","training","adjacent","ED","5","4","N.jpg","L.jpg","1","0","0","",""
"","feedback","","html-keyboard-response","447","500856","0.0-1.0-618.0-0.0","0","0","96688","","null","","","null","68","","","","","","","","","","","","","","","",""
"","time_out","","html-keyboard-response","448","502859","0.0-1.0-620.0-0.0","0","0","96688","","null","","","null","68","","","","","","","","","","","","","","","",""
"","ITI","","html-keyboard-response","449","503862","0.0-1.0-621.0","0","0","96688","","null","","","null","68","","","","","","","","","","","","","","","NaN",""
"","S1","","html-keyboard-response","450","504115","0.0-1.0-623.0","0","0","96688","","null","","","null","69","","","","","","","","","","","","","","","",""
"","ISI","","html-keyboard-response","451","506118","0.0-1.0-624.0","0","0","96688","","null","","","null","69","NaN","","","","","","","","","","","","","","",""
"","S2","","html-keyboard-response","452","506371","0.0-1.0-625.0","0","0","96688","","null","","","null","69","","NaN","","","","","","","","","","","","","",""
"","response","","html-keyboard-response","453","506745","0.0-1.0-626.0","0","0","96688","","373","","","75","69","","","2","69","training","adjacent","BA","2","1","O.jpg","Q.jpg","0","0","1","",""
"","feedback","","html-keyboard-response","454","507748","0.0-1.0-627.0-0.0","0","0","96688","","null","","","null","69","","","","","","","","","","","","","","","",""
"","ITI","","html-keyboard-response","455","508750","0.0-1.0-630.0","0","0","96688","","null","","","null","69","","","","","","","","","","","","","","","NaN",""
"","S1","","html-keyboard-response","456","509004","0.0-1.0-632.0","0","0","96688","","null","","","null","70","","","","","","","","","","","","","","","",""
"","ISI","","html-keyboard-response","457","511006","0.0-1.0-633.0","0","0","96688","","null","","","null","70","NaN","","","","","","","","","","","","","","",""
"","S2","","html-keyboard-response","458","511259","0.0-1.0-634.0","0","0","96688","","null","","","null","70","","NaN","","","","","","","","","","","","","",""
"","response","","html-keyboard-response","459","511616","0.0-1.0-635.0","0","0","96688","","355","","","75","70","","","2","70","training","adjacent","GF","7","6","R.jpg","P.jpg","0","0","1","",""
"","feedback","","html-keyboard-response","460","512618","0.0-1.0-636.0-0.0","0","0","96688","","null","","","null","70","","","","","","","","","","","","","","","",""
"","ITI","","html-keyboard-response","461","513621","0.0-1.0-639.0","0","0","96688","","null","","","null","70","","","","","","","","","","","","","","","NaN",""
"","S1","","html-keyboard-response","462","513874","0.0-1.0-641.0","0","0","96688","","null","","","null","71","","","","","","","","","","","","","","","",""
"","ISI","","html-keyboard-response","463","515877","0.0-1.0-642.0","0","0","96688","","null","","","null","71","NaN","","","","","","","","","","","","","","",""
"","S2","","html-keyboard-response","464","516129","0.0-1.0-643.0","0","0","96688","","null","","","null","71","","NaN","","","","","","","","","","","","","",""
"","response","","html-keyboard-response","465","516913","0.0-1.0-644.0","0","0","96688","","782","","","68","71","","","2","71","training","adjacent","CB","3","2","M.jpg","O.jpg","1","0","0","",""
"","feedback","","html-keyboard-response","466","517916","0.0-1.0-645.0-0.0","0","0","96688","","null","","","null","71","","","","","","","","","","","","","","","",""
"","time_out","","html-keyboard-response","467","519918","0.0-1.0-647.0-0.0","0","0","96688","","null","","","null","71","","","","","","","","","","","","","","","",""
"","ITI","","html-keyboard-response","468","520920","0.0-1.0-648.0","0","0","96688","","null","","","null","71","","","","","","","","","","","","","","","NaN",""
"","S1","","html-keyboard-response","469","521174","0.0-1.0-650.0","0","0","96688","","null","","","null","72","","","","","","","","","","","","","","","",""
"","ISI","","html-keyboard-response","470","523177","0.0-1.0-651.0","0","0","96688","","null","","","null","72","NaN","","","","","","","","","","","","","","",""
"","S2","","html-keyboard-response","471","523430","0.0-1.0-652.0","0","0","96688","","null","","","null","72","","NaN","","","","","","","","","","","","","",""
"","response","","html-keyboard-response","472","524070","0.0-1.0-653.0","0","0","96688","","639","","","68","72","","","2","72","training","adjacent","DE","4","5","L.jpg","N.jpg","1","1","1","",""
"","feedback","","html-keyboard-response","473","525073","0.0-1.0-654.0-0.0","0","0","96688","","null","","","null","72","","","","","","","","","","","","","","","",""
"","ITI","","html-keyboard-response","474","526077","0.0-1.0-657.0","0","0","96688","","null","","","null","72","","","","","","","","","","","","","","","NaN",""
"","S1","","html-keyboard-response","475","526329","0.0-1.0-659.0","0","0","96688","","null","","","null","73","","","","","","","","","","","","","","","",""
"","ISI","","html-keyboard-response","476","528331","0.0-1.0-660.0","0","0","96688","","null","","","null","73","NaN","","","","","","","","","","","","","","",""
"","S2","","html-keyboard-response","477","528584","0.0-1.0-661.0","0","0","96688","","null","","","null","73","","NaN","","","","","","","","","","","","","",""
"","response","","html-keyboard-response","478","528842","0.0-1.0-662.0","0","0","96688","","256","","","75","73","","","2","73","training","adjacent","BA","2","1","O.jpg","Q.jpg","0","0","1","",""
"","feedback","","html-keyboard-response","479","529845","0.0-1.0-663.0-0.0","0","0","96688","","null","","","null","73","","","","","","","","","","","","","","","",""
"","ITI","","html-keyboard-response","480","530847","0.0-1.0-666.0","0","0","96688","","null","","","null","73","","","","","","","","","","","","","","","NaN",""
"","S1","","html-keyboard-response","481","531100","0.0-1.0-668.0","0","0","96688","","null","","","null","74","","","","","","","","","","","","","","","",""
"","ISI","","html-keyboard-response","482","533102","0.0-1.0-669.0","0","0","96688","","null","","","null","74","NaN","","","","","","","","","","","","","","",""
"","S2","","html-keyboard-response","483","533355","0.0-1.0-670.0","0","0","96688","","null","","","null","74","","NaN","","","","","","","","","","","","","",""
"","response","","html-keyboard-response","484","534171","0.0-1.0-671.0","0","0","96688","","814","","","75","74","","","2","74","training","adjacent","FE","6","5","P.jpg","N.jpg","0","0","1","",""
"","feedback","","html-keyboard-response","485","535174","0.0-1.0-672.0-0.0","0","0","96688","","null","","","null","74","","","","","","","","","","","","","","","",""
"","ITI","","html-keyboard-response","486","536176","0.0-1.0-675.0","0","0","96688","","null","","","null","74","","","","","","","","","","","","","","","NaN",""
"","S1","","html-keyboard-response","487","536429","0.0-1.0-677.0","0","0","96688","","null","","","null","75","","","","","","","","","","","","","","","",""
"","ISI","","html-keyboard-response","488","538431","0.0-1.0-678.0","0","0","96688","","null","","","null","75","NaN","","","","","","","","","","","","","","",""
"","S2","","html-keyboard-response","489","538684","0.0-1.0-679.0","0","0","96688","","null","","","null","75","","NaN","","","","","","","","","","","","","",""
"","response","","html-keyboard-response","490","539243","0.0-1.0-680.0","0","0","96688","","557","","","68","75","","","2","75","training","adjacent","ED","5","4","N.jpg","L.jpg","1","0","0","",""
"","feedback","","html-keyboard-response","491","540245","0.0-1.0-681.0-0.0","0","0","96688","","null","","","null","75","","","","","","","","","","","","","","","",""
"","time_out","","html-keyboard-response","492","542247","0.0-1.0-683.0-0.0","0","0","96688","","null","","","null","75","","","","","","","","","","","","","","","",""
"","ITI","","html-keyboard-response","493","543249","0.0-1.0-684.0","0","0","96688","","null","","","null","75","","","","","","","","","","","","","","","NaN",""
"","S1","","html-keyboard-response","494","543503","0.0-1.0-686.0","0","0","96688","","null","","","null","76","","","","","","","","","","","","","","","",""
"","ISI","","html-keyboard-response","495","545506","0.0-1.0-687.0","0","0","96688","","1409","","","84","76","t","","","","","","","","","","","","","","",""
"","S2","","html-keyboard-response","496","545758","0.0-1.0-688.0","0","0","96688","","null","","","null","76","","NaN","","","","","","","","","","","","","",""
"","response","","html-keyboard-response","497","546518","0.0-1.0-689.0","0","0","96688","","758","","","68","76","","","2","76","training","adjacent","ED","5","4","N.jpg","L.jpg","1","0","0","",""
"","feedback","","html-keyboard-response","498","547522","0.0-1.0-690.0-0.0","0","0","96688","","null","","","null","76","","","","","","","","","","","","","","","",""
"","time_out","","html-keyboard-response","499","549524","0.0-1.0-692.0-0.0","0","0","96688","","null","","","null","76","","","","","","","","","","","","","","","",""
"","ITI","","html-keyboard-response","500","550527","0.0-1.0-693.0","0","0","96688","","null","","","null","76","","","","","","","","","","","","","","","NaN",""
"","S1","","html-keyboard-response","501","550781","0.0-1.0-695.0","0","0","96688","","null","","","null","77","","","","","","","","","","","","","","","",""
"","ISI","","html-keyboard-response","502","552784","0.0-1.0-696.0","0","0","96688","","null","","","null","77","NaN","","","","","","","","","","","","","","",""
"","S2","","html-keyboard-response","503","553037","0.0-1.0-697.0","0","0","96688","","null","","","null","77","","NaN","","","","","","","","","","","","","",""
"","response","","html-keyboard-response","504","553539","0.0-1.0-698.0","0","0","96688","","500","","","68","77","","","2","77","training","adjacent","AB","1","2","Q.jpg","O.jpg","1","1","1","",""
"","feedback","","html-keyboard-response","505","554542","0.0-1.0-699.0-0.0","0","0","96688","","null","","","null","77","","","","","","","","","","","","","","","",""
"","ITI","","html-keyboard-response","506","555545","0.0-1.0-702.0","0","0","96688","","null","","","null","77","","","","","","","","","","","","","","","NaN",""
"","S1","","html-keyboard-response","507","555799","0.0-1.0-704.0","0","0","96688","","null","","","null","78","","","","","","","","","","","","","","","",""
"","ISI","","html-keyboard-response","508","557801","0.0-1.0-705.0","0","0","96688","","null","","","null","78","NaN","","","","","","","","","","","","","","",""
"","S2","","html-keyboard-response","509","558055","0.0-1.0-706.0","0","0","96688","","null","","","null","78","","NaN","","","","","","","","","","","","","",""
"","response","","html-keyboard-response","510","558608","0.0-1.0-707.0","0","0","96688","","552","","","68","78","","","2","78","training","adjacent","EF","5","6","N.jpg","P.jpg","1","1","1","",""
"","feedback","","html-keyboard-response","511","559610","0.0-1.0-708.0-0.0","0","0","96688","","null","","","null","78","","","","","","","","","","","","","","","",""
"","ITI","","html-keyboard-response","512","560614","0.0-1.0-711.0","0","0","96688","","null","","","null","78","","","","","","","","","","","","","","","NaN",""
"","S1","","html-keyboard-response","513","560866","0.0-1.0-713.0","0","0","96688","","null","","","null","79","","","","","","","","","","","","","","","",""
"","ISI","","html-keyboard-response","514","562869","0.0-1.0-714.0","0","0","96688","","null","","","null","79","NaN","","","","","","","","","","","","","","",""
"","S2","","html-keyboard-response","515","563122","0.0-1.0-715.0","0","0","96688","","null","","","null","79","","NaN","","","","","","","","","","","","","",""
"","response","","html-keyboard-response","516","564066","0.0-1.0-716.0","0","0","96688","","943","","","75","79","","","2","79","training","adjacent","DC","4","3","L.jpg","M.jpg","0","0","1","",""
"","feedback","","html-keyboard-response","517","565069","0.0-1.0-717.0-0.0","0","0","96688","","null","","","null","79","","","","","","","","","","","","","","","",""
"","ITI","","html-keyboard-response","518","566072","0.0-1.0-720.0","0","0","96688","","null","","","null","79","","","","","","","","","","","","","","","NaN",""
"","S1","","html-keyboard-response","519","566324","0.0-1.0-722.0","0","0","96688","","null","","","null","80","","","","","","","","","","","","","","","",""
"","ISI","","html-keyboard-response","520","568327","0.0-1.0-723.0","0","0","96688","","null","","","null","80","NaN","","","","","","","","","","","","","","",""
"","S2","","html-keyboard-response","521","568579","0.0-1.0-724.0","0","0","96688","","null","","","null","80","","NaN","","","","","","","","","","","","","",""
"","response","","html-keyboard-response","522","569222","0.0-1.0-725.0","0","0","96688","","640","","","68","80","","","2","80","training","adjacent","FG","6","7","P.jpg","R.jpg","1","1","1","",""
"","feedback","","html-keyboard-response","523","570225","0.0-1.0-726.0-0.0","0","0","96688","","null","","","null","80","","","","","","","","","","","","","","","",""
"","ITI","","html-keyboard-response","524","571228","0.0-1.0-729.0","0","0","96688","","null","","","null","80","","","","","","","","","","","","","","","NaN",""
"","S1","","html-keyboard-response","525","571491","0.0-1.0-731.0","0","0","96688","","null","","","null","81","","","","","","","","","","","","","","","",""
"","ISI","","html-keyboard-response","526","573494","0.0-1.0-732.0","0","0","96688","","null","","","null","81","NaN","","","","","","","","","","","","","","",""
"","S2","","html-keyboard-response","527","573747","0.0-1.0-733.0","0","0","96688","","null","","","null","81","","NaN","","","","","","","","","","","","","",""
"","response","","html-keyboard-response","528","574258","0.0-1.0-734.0","0","0","96688","","509","","","68","81","","","2","81","training","adjacent","DE","4","5","L.jpg","N.jpg","1","1","1","",""
"","feedback","","html-keyboard-response","529","575262","0.0-1.0-735.0-0.0","0","0","96688","","null","","","null","81","","","","","","","","","","","","","","","",""
"","ITI","","html-keyboard-response","530","576265","0.0-1.0-738.0","0","0","96688","","null","","","null","81","","","","","","","","","","","","","","","NaN",""
"","S1","","html-keyboard-response","531","576517","0.0-1.0-740.0","0","0","96688","","null","","","null","82","","","","","","","","","","","","","","","",""
"","ISI","","html-keyboard-response","532","578521","0.0-1.0-741.0","0","0","96688","","null","","","null","82","NaN","","","","","","","","","","","","","","",""
"","S2","","html-keyboard-response","533","578774","0.0-1.0-742.0","0","0","96688","","null","","","null","82","","NaN","","","","","","","","","","","","","",""
"","response","","html-keyboard-response","534","579862","0.0-1.0-743.0","0","0","96688","","1086","","","75","82","","","2","82","training","adjacent","CD","3","4","M.jpg","L.jpg","0","1","0","",""
"","feedback","","html-keyboard-response","535","580865","0.0-1.0-744.0-0.0","0","0","96688","","null","","","null","82","","","","","","","","","","","","","","","",""
"","time_out","","html-keyboard-response","536","582867","0.0-1.0-746.0-0.0","0","0","96688","","null","","","null","82","","","","","","","","","","","","","","","",""
"","ITI","","html-keyboard-response","537","583870","0.0-1.0-747.0","0","0","96688","","null","","","null","82","","","","","","","","","","","","","","","NaN",""
"","S1","","html-keyboard-response","538","584124","0.0-1.0-749.0","0","0","96688","","null","","","null","83","","","","","","","","","","","","","","","",""
"","ISI","","html-keyboard-response","539","586127","0.0-1.0-750.0","0","0","96688","","null","","","null","83","NaN","","","","","","","","","","","","","","",""
"","S2","","html-keyboard-response","540","586380","0.0-1.0-751.0","0","0","96688","","null","","","null","83","","NaN","","","","","","","","","","","","","",""
"","response","","html-keyboard-response","541","586850","0.0-1.0-752.0","0","0","96688","","468","","","75","83","","","2","83","training","adjacent","BA","2","1","O.jpg","Q.jpg","0","0","1","",""
"","feedback","","html-keyboard-response","542","587853","0.0-1.0-753.0-0.0","0","0","96688","","null","","","null","83","","","","","","","","","","","","","","","",""
"","ITI","","html-keyboard-response","543","588855","0.0-1.0-756.0","0","0","96688","","null","","","null","83","","","","","","","","","","","","","","","NaN",""
"","S1","","html-keyboard-response","544","589108","0.0-1.0-758.0","0","0","96688","","null","","","null","84","","","","","","","","","","","","","","","",""
"","ISI","","html-keyboard-response","545","591110","0.0-1.0-759.0","0","0","96688","","null","","","null","84","NaN","","","","","","","","","","","","","","",""
"","S2","","html-keyboard-response","546","591364","0.0-1.0-760.0","0","0","96688","","null","","","null","84","","NaN","","","","","","","","","","","","","",""
"","response","","html-keyboard-response","547","592367","0.0-1.0-761.0","0","0","96688","","1001","","","68","84","","","2","84","training","adjacent","DE","4","5","L.jpg","N.jpg","1","1","1","",""
"","feedback","","html-keyboard-response","548","593370","0.0-1.0-762.0-0.0","0","0","96688","","null","","","null","84","","","","","","","","","","","","","","","",""
"","ITI","","html-keyboard-response","549","594373","0.0-1.0-765.0","0","0","96688","","null","","","null","84","","","","","","","","","","","","","","","NaN",""
"","S1","","html-keyboard-response","550","594626","0.0-1.0-767.0","0","0","96688","","null","","","null","85","","","","","","","","","","","","","","","",""
"","ISI","","html-keyboard-response","551","596629","0.0-1.0-768.0","0","0","96688","","null","","","null","85","NaN","","","","","","","","","","","","","","",""
"","S2","","html-keyboard-response","552","596882","0.0-1.0-769.0","0","0","96688","","null","","","null","85","","NaN","","","","","","","","","","","","","",""
"","response","","html-keyboard-response","553","597572","0.0-1.0-770.0","0","0","96688","","688","","","68","85","","","2","85","training","adjacent","BC","2","3","O.jpg","M.jpg","1","1","1","",""
"","feedback","","html-keyboard-response","554","598575","0.0-1.0-771.0-0.0","0","0","96688","","null","","","null","85","","","","","","","","","","","","","","","",""
"","ITI","","html-keyboard-response","555","599578","0.0-1.0-774.0","0","0","96688","","null","","","null","85","","","","","","","","","","","","","","","NaN",""
"","S1","","html-keyboard-response","556","599831","0.0-1.0-776.0","0","0","96688","","null","","","null","86","","","","","","","","","","","","","","","",""
"","ISI","","html-keyboard-response","557","601834","0.0-1.0-777.0","0","0","96688","","null","","","null","86","NaN","","","","","","","","","","","","","","",""
"","S2","","html-keyboard-response","558","602087","0.0-1.0-778.0","0","0","96688","","null","","","null","86","","NaN","","","","","","","","","","","","","",""
"","response","","html-keyboard-response","559","602788","0.0-1.0-779.0","0","0","96688","","699","","","68","86","","","2","86","training","adjacent","FG","6","7","P.jpg","R.jpg","1","1","1","",""
"","feedback","","html-keyboard-response","560","603790","0.0-1.0-780.0-0.0","0","0","96688","","null","","","null","86","","","","","","","","","","","","","","","",""
"","ITI","","html-keyboard-response","561","604794","0.0-1.0-783.0","0","0","96688","","null","","","null","86","","","","","","","","","","","","","","","NaN",""
"","S1","","html-keyboard-response","562","605046","0.0-1.0-785.0","0","0","96688","","null","","","null","87","","","","","","","","","","","","","","","",""
"","ISI","","html-keyboard-response","563","607049","0.0-1.0-786.0","0","0","96688","","null","","","null","87","NaN","","","","","","","","","","","","","","",""
"","S2","","html-keyboard-response","564","607304","0.0-1.0-787.0","0","0","96688","","null","","","null","87","","NaN","","","","","","","","","","","","","",""
"","response","","html-keyboard-response","565","608705","0.0-1.0-788.0","0","0","96688","","1400","","","75","87","","","2","87","training","adjacent","CB","3","2","M.jpg","O.jpg","0","0","1","",""
"","feedback","","html-keyboard-response","566","609708","0.0-1.0-789.0-0.0","0","0","96688","","null","","","null","87","","","","","","","","","","","","","","","",""
"","ITI","","html-keyboard-response","567","610710","0.0-1.0-792.0","0","0","96688","","null","","","null","87","","","","","","","","","","","","","","","NaN",""
"","S1","","html-keyboard-response","568","610964","0.0-1.0-794.0","0","0","96688","","null","","","null","88","","","","","","","","","","","","","","","",""
"","ISI","","html-keyboard-response","569","612967","0.0-1.0-795.0","0","0","96688","","null","","","null","88","NaN","","","","","","","","","","","","","","",""
"","S2","","html-keyboard-response","570","613219","0.0-1.0-796.0","0","0","96688","","null","","","null","88","","NaN","","","","","","","","","","","","","",""
"","response","","html-keyboard-response","571","614200","0.0-1.0-797.0","0","0","96688","","979","","","68","88","","","2","88","training","adjacent","EF","5","6","N.jpg","P.jpg","1","1","1","",""
"","feedback","","html-keyboard-response","572","615203","0.0-1.0-798.0-0.0","0","0","96688","","null","","","null","88","","","","","","","","","","","","","","","",""
"","ITI","","html-keyboard-response","573","616205","0.0-1.0-801.0","0","0","96688","","null","","","null","88","","","","","","","","","","","","","","","NaN",""
"","S1","","html-keyboard-response","574","616458","0.0-1.0-803.0","0","0","96688","","null","","","null","89","","","","","","","","","","","","","","","",""
"","ISI","","html-keyboard-response","575","618461","0.0-1.0-804.0","0","0","96688","","null","","","null","89","NaN","","","","","","","","","","","","","","",""
"","S2","","html-keyboard-response","576","618714","0.0-1.0-805.0","0","0","96688","","null","","","null","89","","NaN","","","","","","","","","","","","","",""
"","response","","html-keyboard-response","577","619044","0.0-1.0-806.0","0","0","96688","","327","","","75","89","","","2","89","training","adjacent","GF","7","6","R.jpg","P.jpg","0","0","1","",""
"","feedback","","html-keyboard-response","578","620047","0.0-1.0-807.0-0.0","0","0","96688","","null","","","null","89","","","","","","","","","","","","","","","",""
"","ITI","","html-keyboard-response","579","621050","0.0-1.0-810.0","0","0","96688","","null","","","null","89","","","","","","","","","","","","","","","NaN",""
"","S1","","html-keyboard-response","580","621302","0.0-1.0-812.0","0","0","96688","","null","","","null","90","","","","","","","","","","","","","","","",""
"","ISI","","html-keyboard-response","581","623305","0.0-1.0-813.0","0","0","96688","","null","","","null","90","NaN","","","","","","","","","","","","","","",""
"","S2","","html-keyboard-response","582","623557","0.0-1.0-814.0","0","0","96688","","null","","","null","90","","NaN","","","","","","","","","","","","","",""
"","response","","html-keyboard-response","583","623736","0.0-1.0-815.0","0","0","96688","","177","","","75","90","","","2","90","training","adjacent","GF","7","6","R.jpg","P.jpg","0","0","1","",""
"","feedback","","html-keyboard-response","584","624740","0.0-1.0-816.0-0.0","0","0","96688","","null","","","null","90","","","","","","","","","","","","","","","",""
