"success","ttype","start_time","trial_type","trial_index","time_elapsed","internal_node_id","warning","missed_checkup","PID","view_history","rt","responses","repeat_instructions","key_press","index","keypress_isi","keypress_S2","block","trial_num","phase","group_type","pair_type","S1_stim","S2_stim","S1_img","S2_img","S1_chosen","S1_higher","accuracy","keypress_iti","total_bonus_tally"
"true","full_screen","d03032023hr1942","fullscreen","0","2355","0.0-0.0","0","0","98182","","","","","","","","","","","","","","","","","","","","","",""
"","instructions","","instructions","1","16169","0.0-1.0-0.0-0.0","0","0","98182","[{""page_index"":0,""viewing_time"":1884},{""page_index"":1,""viewing_time"":8210},{""page_index"":2,""viewing_time"":2382},{""page_index"":3,""viewing_time"":1336}]","13812","","","","","","","","","","","","","","","","","","","",""
"","comprehension_check","","survey-multi-choice","2","64043","0.0-1.0-0.0-1.0","0","0","98182","","47870","{""Q0"":""True"",""Q1"":""D"",""Q2"":""Only while the second image is shown"",""Q3"":""Green mark"",""Q4"":""either D or K""}","1","","","","","","","","","","","","","","","","","",""
"","missed_instruction_checkup","","html-keyboard-response","3","65627","0.0-1.0-0.0-2.0-0.0","0","1","98182","","1581","","","32","","","","","","","","","","","","","","","","",""
"","instructions","","instructions","4","74058","0.0-1.0-0.1-0.1","0","0","98182","[{""page_index"":0,""viewing_time"":2765},{""page_index"":1,""viewing_time"":3144},{""page_index"":2,""viewing_time"":1368},{""page_index"":3,""viewing_time"":1152}]","8430","","","","","","","","","","","","","","","","","","","",""
"","comprehension_check","","survey-multi-choice","5","98812","0.0-1.0-0.1-1.1","0","0","98182","","24750","{""Q0"":""True"",""Q1"":""D"",""Q2"":""Only while the second image is shown"",""Q3"":""Green mark"",""Q4"":""either D or K""}","1","","","","","","","","","","","","","","","","","",""
"","missed_instruction_checkup","","html-keyboard-response","6","100963","0.0-1.0-0.1-2.1-0.1","0","1","98182","","2150","","","32","","","","","","","","","","","","","","","","",""
"","instructions","","instructions","7","108378","0.0-1.0-0.2-0.2","0","0","98182","[{""page_index"":0,""viewing_time"":1942},{""page_index"":1,""viewing_time"":1782},{""page_index"":2,""viewing_time"":1642},{""page_index"":3,""viewing_time"":2047}]","7413","","","","","","","","","","","","","","","","","","","",""
"","comprehension_check","","survey-multi-choice","8","131258","0.0-1.0-0.2-1.2","0","0","98182","","22872","{""Q0"":""False"",""Q1"":""D"",""Q2"":""Only while the second image is shown"",""Q3"":""Red cross"",""Q4"":""Use a mouse""}","1","","","","","","","","","","","","","","","","","",""
"","missed_instruction_checkup","","html-keyboard-response","9","135965","0.0-1.0-0.2-2.2-0.2","0","1","98182","","4704","","","32","","","","","","","","","","","","","","","","",""
"","instructions","","instructions","10","213618","0.0-1.0-0.3-0.3","0","0","98182","[{""page_index"":0,""viewing_time"":4867},{""page_index"":1,""viewing_time"":68257},{""page_index"":2,""viewing_time"":1863},{""page_index"":3,""viewing_time"":2665}]","77652","","","","","","","","","","","","","","","","","","","",""
"","comprehension_check","","survey-multi-choice","11","225597","0.0-1.0-0.3-1.3","0","0","98182","","11975","{""Q0"":""True"",""Q1"":""D"",""Q2"":""Only while the second image is shown"",""Q3"":""Green mark"",""Q4"":""Use a mouse""}","1","","","","","","","","","","","","","","","","","",""
"","missed_instruction_checkup","","html-keyboard-response","12","229423","0.0-1.0-0.3-2.3-0.3","0","1","98182","","3824","","","32","","","","","","","","","","","","","","","","",""
"","instructions","","instructions","13","315393","0.0-1.0-0.4-0.4","0","0","98182","[{""page_index"":0,""viewing_time"":2712},{""page_index"":1,""viewing_time"":79263},{""page_index"":2,""viewing_time"":2646},{""page_index"":3,""viewing_time"":1346}]","85968","","","","","","","","","","","","","","","","","","","",""
"","comprehension_check","","survey-multi-choice","14","335729","0.0-1.0-0.4-1.4","0","0","98182","","20333","{""Q0"":""True"",""Q1"":""D"",""Q2"":""Once the second image appears and while the screen 'MAKE A CHOICE' is shown"",""Q3"":""Green mark"",""Q4"":""either D or K""}","0","","","","","","","","","","","","","","","","","",""
"","start_exp","","html-keyboard-response","15","338191","0.0-1.0-1.0","0","0","98182","","2460","","","32","","","","","","","","","","","","","","","","",""
"","S1","","html-keyboard-response","16","338458","0.0-1.0-2.0","0","0","98182","","null","","","null","0","","","","","","","","","","","","","","","",""
"","ISI","","html-keyboard-response","17","338963","0.0-1.0-3.0","0","0","98182","","null","","","null","0","NaN","","","","","","","","","","","","","","",""
"","S2","","html-keyboard-response","18","339216","0.0-1.0-4.0","0","0","98182","","null","","","null","0","","NaN","","","","","","","","","","","","","",""
"","response","","html-keyboard-response","19","340970","0.0-1.0-5.0-0.0","0","0","98182","","null","","","null","0","","","1","0","training","adjacent","EF","5","6","M.jpg","N.jpg","NaN","1","0","",""
"","too_slow_prompt","","html-keyboard-response","20","341979","0.0-1.0-7.0-0.0","1","0","98182","","null","","","null","","","","","","","","","","","","","","","","",""
"","time_out","","html-keyboard-response","21","343987","0.0-1.0-8.0-0.0","0","0","98182","","null","","","null","0","","","","","","","","","","","","","","","",""
"","ITI","","html-keyboard-response","22","344994","0.0-1.0-9.0","0","0","98182","","384","","","68","0","","","","","","","","","","","","","","","d",""
"","S1","","html-keyboard-response","23","345250","0.0-1.0-11.0","0","0","98182","","null","","","null","1","","","","","","","","","","","","","","","",""
"","ISI","","html-keyboard-response","24","345753","0.0-1.0-12.0","0","0","98182","","250","","","75","1","k","","","","","","","","","","","","","","",""
"","S2","","html-keyboard-response","25","345909","0.0-1.0-13.0","0","0","98182","","155","","","68","1","","d","1","1","training","adjacent","FG","6","7","N.jpg","O.jpg","1","1","1","",""
"","feedback","","html-keyboard-response","26","346915","0.0-1.0-15.0-0.0","0","0","98182","","null","","","null","1","","","","","","","","","","","","","","","",""
"","ITI","","html-keyboard-response","27","347922","0.0-1.0-18.0","0","0","98182","","296","","","75","1","","","","","","","","","","","","","","","k",""
"","S1","","html-keyboard-response","28","348179","0.0-1.0-20.0","0","0","98182","","null","","","null","2","","","","","","","","","","","","","","","",""
"","ISI","","html-keyboard-response","29","348683","0.0-1.0-21.0","0","0","98182","","79","","","68","2","d","","","","","","","","","","","","","","",""
"","S2","","html-keyboard-response","30","348938","0.0-1.0-22.0","0","0","98182","","null","","","null","2","","NaN","","","","","","","","","","","","","",""
"","response","","html-keyboard-response","31","349459","0.0-1.0-23.0-0.0","0","0","98182","","520","","","75","2","","","1","2","training","adjacent","AB","1","2","Q.jpg","P.jpg","0","1","0","",""
"","feedback","","html-keyboard-response","32","350467","0.0-1.0-24.0-0.0","0","0","98182","","null","","","null","2","","","","","","","","","","","","","","","",""
"","time_out","","html-keyboard-response","33","352474","0.0-1.0-26.0-0.0","0","0","98182","","null","","","null","2","","","","","","","","","","","","","","","",""
"","ITI","","html-keyboard-response","34","353482","0.0-1.0-27.0","0","0","98182","","null","","","null","2","","","","","","","","","","","","","","","NaN",""
"","S1","","html-keyboard-response","35","353738","0.0-1.0-29.0","0","0","98182","","null","","","null","3","","","","","","","","","","","","","","","",""
"","ISI","","html-keyboard-response","36","354320","0.0-1.0-30.0","0","0","98182","","null","","","null","3","NaN","","","","","","","","","","","","","","",""
"","S2","","html-keyboard-response","37","355316","0.0-1.0-31.0","0","0","98182","","null","","","null","3","","NaN","","","","","","","","","","","","","",""
"","response","","html-keyboard-response","38","357316","0.0-1.0-32.0-0.0","0","0","98182","","null","","","null","3","","","1","3","training","adjacent","FG","6","7","N.jpg","O.jpg","NaN","1","0","",""
"","too_slow_prompt","","html-keyboard-response","39","359313","0.0-1.0-34.0-0.0","1","0","98182","","null","","","null","","","","","","","","","","","","","","","","",""
"","time_out","","html-keyboard-response","40","362315","0.0-1.0-35.0-0.0","0","0","98182","","null","","","null","3","","","","","","","","","","","","","","","",""
"","ITI","","html-keyboard-response","41","364322","0.0-1.0-36.0","0","0","98182","","null","","","null","3","","","","","","","","","","","","","","","NaN",""
"","S1","","html-keyboard-response","42","365315","0.0-1.0-38.0","0","0","98182","","null","","","null","4","","","","","","","","","","","","","","","",""
"","ISI","","html-keyboard-response","43","366356","0.0-1.0-39.0","0","0","98182","","null","","","null","4","NaN","","","","","","","","","","","","","","",""
"","S2","","html-keyboard-response","44","367314","0.0-1.0-40.0","0","0","98182","","null","","","null","4","","NaN","","","","","","","","","","","","","",""
"","response","","html-keyboard-response","45","369315","0.0-1.0-41.0-0.0","0","0","98182","","null","","","null","4","","","1","4","training","adjacent","EF","5","6","M.jpg","N.jpg","NaN","1","0","",""
"","too_slow_prompt","","html-keyboard-response","46","371426","0.0-1.0-43.0-0.0","1","0","98182","","null","","","null","","","","","","","","","","","","","","","","",""
"","time_out","","html-keyboard-response","47","373435","0.0-1.0-44.0-0.0","0","0","98182","","null","","","null","4","","","","","","","","","","","","","","","",""
"","ITI","","html-keyboard-response","48","374436","0.0-1.0-45.0","0","0","98182","","812","","","68","4","","","","","","","","","","","","","","","d",""
"","S1","","html-keyboard-response","49","374690","0.0-1.0-47.0","0","0","98182","","null","","","null","5","","","","","","","","","","","","","","","",""
"","ISI","","html-keyboard-response","50","375194","0.0-1.0-48.0","0","0","98182","","null","","","null","5","NaN","","","","","","","","","","","","","","",""
"","S2","","html-keyboard-response","51","375450","0.0-1.0-49.0","0","0","98182","","null","","","null","5","","NaN","","","","","","","","","","","","","",""
"","response","","html-keyboard-response","52","375617","0.0-1.0-50.0-0.0","0","0","98182","","164","","","68","5","","","1","5","training","adjacent","CB","3","2","L.jpg","P.jpg","1","0","0","",""
"","feedback","","html-keyboard-response","53","377322","0.0-1.0-51.0-0.0","0","0","98182","","null","","","null","5","","","","","","","","","","","","","","","",""
"","time_out","","html-keyboard-response","54","379329","0.0-1.0-53.0-0.0","0","0","98182","","null","","","null","5","","","","","","","","","","","","","","","",""
"","ITI","","html-keyboard-response","55","380339","0.0-1.0-54.0","0","0","98182","","545","","","68","5","","","","","","","","","","","","","","","d",""
"","S1","","html-keyboard-response","56","380594","0.0-1.0-56.0","0","0","98182","","null","","","null","6","","","","","","","","","","","","","","","",""
"","ISI","","html-keyboard-response","57","381102","0.0-1.0-57.0","0","0","98182","","228","","","68","6","d","","","","","","","","","","","","","","",""
"","S2","","html-keyboard-response","58","381389","0.0-1.0-58.0","0","0","98182","","null","","","null","6","","NaN","","","","","","","","","","","","","",""
"","response","","html-keyboard-response","59","382125","0.0-1.0-59.0-0.0","0","0","98182","","734","","","68","6","","","1","6","training","adjacent","BA","2","1","P.jpg","Q.jpg","1","0","0","",""
"","feedback","","html-keyboard-response","60","383129","0.0-1.0-60.0-0.0","0","0","98182","","null","","","null","6","","","","","","","","","","","","","","","",""
"","time_out","","html-keyboard-response","61","385139","0.0-1.0-62.0-0.0","0","0","98182","","null","","","null","6","","","","","","","","","","","","","","","",""
"","ITI","","html-keyboard-response","62","386146","0.0-1.0-63.0","0","0","98182","","506","","","68","6","","","","","","","","","","","","","","","d",""
"","S1","","html-keyboard-response","63","386402","0.0-1.0-65.0","0","0","98182","","null","","","null","7","","","","","","","","","","","","","","","",""
"","ISI","","html-keyboard-response","64","386908","0.0-1.0-66.0","0","0","98182","","432","","","68","7","d","","","","","","","","","","","","","","",""
"","S2","","html-keyboard-response","65","387162","0.0-1.0-67.0","0","0","98182","","null","","","null","7","","NaN","","","","","","","","","","","","","",""
"","response","","html-keyboard-response","66","387595","0.0-1.0-68.0-0.0","0","0","98182","","431","","","68","7","","","1","7","training","adjacent","ED","5","4","M.jpg","R.jpg","1","0","0","",""
"","feedback","","html-keyboard-response","67","388602","0.0-1.0-69.0-0.0","0","0","98182","","null","","","null","7","","","","","","","","","","","","","","","",""
"","time_out","","html-keyboard-response","68","390612","0.0-1.0-71.0-0.0","0","0","98182","","null","","","null","7","","","","","","","","","","","","","","","",""
"","ITI","","html-keyboard-response","69","391619","0.0-1.0-72.0","0","0","98182","","null","","","null","7","","","","","","","","","","","","","","","NaN",""
"","S1","","html-keyboard-response","70","391875","0.0-1.0-74.0","0","0","98182","","null","","","null","8","","","","","","","","","","","","","","","",""
"","ISI","","html-keyboard-response","71","392378","0.0-1.0-75.0","0","0","98182","","null","","","null","8","NaN","","","","","","","","","","","","","","",""
"","S2","","html-keyboard-response","72","392561","0.0-1.0-76.0","0","0","98182","","180","","","68","8","","d","1","8","training","adjacent","FE","6","5","N.jpg","M.jpg","1","0","0","",""
"","feedback","","html-keyboard-response","73","393562","0.0-1.0-78.0-0.0","0","0","98182","","null","","","null","8","","","","","","","","","","","","","","","",""
"","time_out","","html-keyboard-response","74","395570","0.0-1.0-80.0-0.0","0","0","98182","","null","","","null","8","","","","","","","","","","","","","","","",""
"","ITI","","html-keyboard-response","75","396580","0.0-1.0-81.0","0","0","98182","","28","","","75","8","","","","","","","","","","","","","","","k",""
"","S1","","html-keyboard-response","76","396836","0.0-1.0-83.0","0","0","98182","","null","","","null","9","","","","","","","","","","","","","","","",""
"","ISI","","html-keyboard-response","77","397337","0.0-1.0-84.0","0","0","98182","","null","","","null","9","NaN","","","","","","","","","","","","","","",""
"","S2","","html-keyboard-response","78","397598","0.0-1.0-85.0","0","0","98182","","null","","","null","9","","NaN","","","","","","","","","","","","","",""
"","response","","html-keyboard-response","79","397671","0.0-1.0-86.0-0.0","0","0","98182","","71","","","68","9","","","1","9","training","adjacent","FE","6","5","N.jpg","M.jpg","1","0","0","",""
"","feedback","","html-keyboard-response","80","398675","0.0-1.0-87.0-0.0","0","0","98182","","null","","","null","9","","","","","","","","","","","","","","","",""
"","time_out","","html-keyboard-response","81","400682","0.0-1.0-89.0-0.0","0","0","98182","","null","","","null","9","","","","","","","","","","","","","","","",""
"","ITI","","html-keyboard-response","82","401691","0.0-1.0-90.0","0","0","98182","","273","","","68","9","","","","","","","","","","","","","","","d",""
"","S1","","html-keyboard-response","83","401947","0.0-1.0-92.0","0","0","98182","","null","","","null","10","","","","","","","","","","","","","","","",""
"","ISI","","html-keyboard-response","84","402450","0.0-1.0-93.0","0","0","98182","","444","","","68","10","d","","","","","","","","","","","","","","",""
"","S2","","html-keyboard-response","85","402772","0.0-1.0-94.0","0","0","98182","","null","","","null","10","","NaN","","","","","","","","","","","","","",""
"","response","","html-keyboard-response","86","403235","0.0-1.0-95.0-0.0","0","0","98182","","461","","","68","10","","","1","10","training","adjacent","BA","2","1","P.jpg","Q.jpg","1","0","0","",""
"","feedback","","html-keyboard-response","87","404243","0.0-1.0-96.0-0.0","0","0","98182","","null","","","null","10","","","","","","","","","","","","","","","",""
"","time_out","","html-keyboard-response","88","406250","0.0-1.0-98.0-0.0","0","0","98182","","null","","","null","10","","","","","","","","","","","","","","","",""
"","ITI","","html-keyboard-response","89","407258","0.0-1.0-99.0","0","0","98182","","null","","","null","10","","","","","","","","","","","","","","","NaN",""
"","S1","","html-keyboard-response","90","407513","0.0-1.0-101.0","0","0","98182","","null","","","null","11","","","","","","","","","","","","","","","",""
"","ISI","","html-keyboard-response","91","408019","0.0-1.0-102.0","0","0","98182","","null","","","null","11","NaN","","","","","","","","","","","","","","",""
"","S2","","html-keyboard-response","92","408274","0.0-1.0-103.0","0","0","98182","","null","","","null","11","","NaN","","","","","","","","","","","","","",""
"","response","","html-keyboard-response","93","410035","0.0-1.0-104.0-0.0","0","0","98182","","null","","","null","11","","","1","11","training","adjacent","CB","3","2","L.jpg","P.jpg","NaN","0","0","",""
"","too_slow_prompt","","html-keyboard-response","94","411043","0.0-1.0-106.0-0.0","1","0","98182","","null","","","null","","","","","","","","","","","","","","","","",""
"","time_out","","html-keyboard-response","95","413051","0.0-1.0-107.0-0.0","0","0","98182","","null","","","null","11","","","","","","","","","","","","","","","",""
"","ITI","","html-keyboard-response","96","414058","0.0-1.0-108.0","0","0","98182","","null","","","null","11","","","","","","","","","","","","","","","NaN",""
"","S1","","html-keyboard-response","97","414341","0.0-1.0-110.0","0","0","98182","","null","","","null","12","","","","","","","","","","","","","","","",""
"","ISI","","html-keyboard-response","98","414844","0.0-1.0-111.0","0","0","98182","","450","","","68","12","d","","","","","","","","","","","","","","",""
"","S2","","html-keyboard-response","99","415095","0.0-1.0-112.0","0","0","98182","","249","","","68","12","","d","1","12","training","adjacent","FG","6","7","N.jpg","O.jpg","1","1","1","",""
"","feedback","","html-keyboard-response","100","416098","0.0-1.0-114.0-0.0","0","0","98182","","null","","","null","12","","","","","","","","","","","","","","","",""
"","ITI","","html-keyboard-response","101","417105","0.0-1.0-117.0","0","0","98182","","null","","","null","12","","","","","","","","","","","","","","","NaN",""
"","S1","","html-keyboard-response","102","417374","0.0-1.0-119.0","0","0","98182","","null","","","null","13","","","","","","","","","","","","","","","",""
"","ISI","","html-keyboard-response","103","417882","0.0-1.0-120.0","0","0","98182","","331","","","68","13","d","","","","","","","","","","","","","","",""
"","S2","","html-keyboard-response","104","418138","0.0-1.0-121.0","0","0","98182","","null","","","null","13","","NaN","","","","","","","","","","","","","",""
"","response","","html-keyboard-response","105","419890","0.0-1.0-122.0-0.0","0","0","98182","","null","","","null","13","","","1","13","training","adjacent","AB","1","2","Q.jpg","P.jpg","NaN","1","0","",""
"","too_slow_prompt","","html-keyboard-response","106","420897","0.0-1.0-124.0-0.0","1","0","98182","","null","","","null","","","","","","","","","","","","","","","","",""
"","time_out","","html-keyboard-response","107","422906","0.0-1.0-125.0-0.0","0","0","98182","","null","","","null","13","","","","","","","","","","","","","","","",""
"","ITI","","html-keyboard-response","108","423920","0.0-1.0-126.0","0","0","98182","","null","","","null","13","","","","","","","","","","","","","","","NaN",""
"","S1","","html-keyboard-response","109","424178","0.0-1.0-128.0","0","0","98182","","null","","","null","14","","","","","","","","","","","","","","","",""
"","ISI","","html-keyboard-response","110","424683","0.0-1.0-129.0","0","0","98182","","null","","","null","14","NaN","","","","","","","","","","","","","","",""
"","S2","","html-keyboard-response","111","424938","0.0-1.0-130.0","0","0","98182","","null","","","null","14","","NaN","","","","","","","","","","","","","",""
"","response","","html-keyboard-response","112","426365","0.0-1.0-131.0-0.0","0","0","98182","","1425","","","68","14","","","1","14","training","adjacent","CD","3","4","L.jpg","R.jpg","1","1","1","",""
"","feedback","","html-keyboard-response","113","427370","0.0-1.0-132.0-0.0","0","0","98182","","null","","","null","14","","","","","","","","","","","","","","","",""
"","ITI","","html-keyboard-response","114","428370","0.0-1.0-135.0","0","0","98182","","803","","","68","14","","","","","","","","","","","","","","","d",""
"","S1","","html-keyboard-response","115","428626","0.0-1.0-137.0","0","0","98182","","null","","","null","15","","","","","","","","","","","","","","","",""
"","ISI","","html-keyboard-response","116","429131","0.0-1.0-138.0","0","0","98182","","null","","","null","15","NaN","","","","","","","","","","","","","","",""
"","S2","","html-keyboard-response","117","429386","0.0-1.0-139.0","0","0","98182","","null","","","null","15","","NaN","","","","","","","","","","","","","",""
"","response","","html-keyboard-response","118","430154","0.0-1.0-140.0-0.0","0","0","98182","","767","","","68","15","","","1","15","training","adjacent","FE","6","5","N.jpg","M.jpg","1","0","0","",""
"","feedback","","html-keyboard-response","119","431162","0.0-1.0-141.0-0.0","0","0","98182","","null","","","null","15","","","","","","","","","","","","","","","",""
"","time_out","","html-keyboard-response","120","433170","0.0-1.0-143.0-0.0","0","0","98182","","null","","","null","15","","","","","","","","","","","","","","","",""
"","ITI","","html-keyboard-response","121","434177","0.0-1.0-144.0","0","0","98182","","251","","","76","15","","","","","","","","","","","","","","","l",""
"","S1","","html-keyboard-response","122","434434","0.0-1.0-146.0","0","0","98182","","null","","","null","16","","","","","","","","","","","","","","","",""
"","ISI","","html-keyboard-response","123","434938","0.0-1.0-147.0","0","0","98182","","42","","","68","16","d","","","","","","","","","","","","","","",""
"","S2","","html-keyboard-response","124","435195","0.0-1.0-148.0","0","0","98182","","null","","","null","16","","NaN","","","","","","","","","","","","","",""
"","response","","html-keyboard-response","125","435799","0.0-1.0-149.0-0.0","0","0","98182","","601","","","68","16","","","1","16","training","adjacent","CD","3","4","L.jpg","R.jpg","1","1","1","",""
"","feedback","","html-keyboard-response","126","436802","0.0-1.0-150.0-0.0","0","0","98182","","null","","","null","16","","","","","","","","","","","","","","","",""
"","ITI","","html-keyboard-response","127","437811","0.0-1.0-153.0","0","0","98182","","150","","","68","16","","","","","","","","","","","","","","","d",""
"","S1","","html-keyboard-response","128","438068","0.0-1.0-155.0","0","0","98182","","null","","","null","17","","","","","","","","","","","","","","","",""
"","ISI","","html-keyboard-response","129","438570","0.0-1.0-156.0","0","0","98182","","39","","","75","17","k","","","","","","","","","","","","","","",""
"","S2","","html-keyboard-response","130","438826","0.0-1.0-157.0","0","0","98182","","null","","","null","17","","NaN","","","","","","","","","","","","","",""
"","response","","html-keyboard-response","131","439285","0.0-1.0-158.0-0.0","0","0","98182","","458","","","68","17","","","1","17","training","adjacent","DC","4","3","R.jpg","L.jpg","1","0","0","",""
"","feedback","","html-keyboard-response","132","440290","0.0-1.0-159.0-0.0","0","0","98182","","null","","","null","17","","","","","","","","","","","","","","","",""
"","time_out","","html-keyboard-response","133","442299","0.0-1.0-161.0-0.0","0","0","98182","","null","","","null","17","","","","","","","","","","","","","","","",""
"","ITI","","html-keyboard-response","134","443305","0.0-1.0-162.0","0","0","98182","","539","","","68","17","","","","","","","","","","","","","","","d",""
"","S1","","html-keyboard-response","135","443561","0.0-1.0-164.0","0","0","98182","","null","","","null","18","","","","","","","","","","","","","","","",""
"","ISI","","html-keyboard-response","136","444065","0.0-1.0-165.0","0","0","98182","","147","","","68","18","d","","","","","","","","","","","","","","",""
"","S2","","html-keyboard-response","137","444323","0.0-1.0-166.0","0","0","98182","","null","","","null","18","","NaN","","","","","","","","","","","","","",""
"","response","","html-keyboard-response","138","446090","0.0-1.0-167.0-0.0","0","0","98182","","null","","","null","18","","","1","18","training","adjacent","DC","4","3","R.jpg","L.jpg","NaN","0","0","",""
"","too_slow_prompt","","html-keyboard-response","139","447097","0.0-1.0-169.0-0.0","1","0","98182","","null","","","null","","","","","","","","","","","","","","","","",""
"","time_out","","html-keyboard-response","140","449105","0.0-1.0-170.0-0.0","0","0","98182","","null","","","null","18","","","","","","","","","","","","","","","",""
"","ITI","","html-keyboard-response","141","450110","0.0-1.0-171.0","0","0","98182","","139","","","75","18","","","","","","","","","","","","","","","k",""
"","S1","","html-keyboard-response","142","450363","0.0-1.0-173.0","0","0","98182","","null","","","null","19","","","","","","","","","","","","","","","",""
"","ISI","","html-keyboard-response","143","450866","0.0-1.0-174.0","0","0","98182","","165","","","76","19","l","","","","","","","","","","","","","","",""
"","S2","","html-keyboard-response","144","451009","0.0-1.0-175.0","0","0","98182","","141","","","68","19","","d","1","19","training","adjacent","BC","2","3","P.jpg","L.jpg","1","1","1","",""
"","feedback","","html-keyboard-response","145","452019","0.0-1.0-177.0-0.0","0","0","98182","","null","","","null","19","","","","","","","","","","","","","","","",""
"","ITI","","html-keyboard-response","146","453027","0.0-1.0-180.0","0","0","98182","","130","","","68","19","","","","","","","","","","","","","","","d",""
"","S1","","html-keyboard-response","147","453282","0.0-1.0-182.0","0","0","98182","","null","","","null","20","","","","","","","","","","","","","","","",""
"","ISI","","html-keyboard-response","148","453787","0.0-1.0-183.0","0","0","98182","","187","","","68","20","d","","","","","","","","","","","","","","",""
"","S2","","html-keyboard-response","149","454042","0.0-1.0-184.0","0","0","98182","","null","","","null","20","","NaN","","","","","","","","","","","","","",""
"","response","","html-keyboard-response","150","454089","0.0-1.0-185.0-0.0","0","0","98182","","45","","","68","20","","","1","20","training","adjacent","GF","7","6","O.jpg","N.jpg","1","0","0","",""
"","feedback","","html-keyboard-response","151","455099","0.0-1.0-186.0-0.0","0","0","98182","","null","","","null","20","","","","","","","","","","","","","","","",""
"","time_out","","html-keyboard-response","152","457118","0.0-1.0-188.0-0.0","0","0","98182","","null","","","null","20","","","","","","","","","","","","","","","",""
"","ITI","","html-keyboard-response","153","458123","0.0-1.0-189.0","0","0","98182","","null","","","null","20","","","","","","","","","","","","","","","NaN",""
"","S1","","html-keyboard-response","154","458384","0.0-1.0-191.0","0","0","98182","","null","","","null","21","","","","","","","","","","","","","","","",""
"","ISI","","html-keyboard-response","155","458889","0.0-1.0-192.0","0","0","98182","","null","","","null","21","NaN","","","","","","","","","","","","","","",""
"","S2","","html-keyboard-response","156","459190","0.0-1.0-193.0","0","0","98182","","null","","","null","21","","NaN","","","","","","","","","","","","","",""
"","response","","html-keyboard-response","157","459981","0.0-1.0-194.0-0.0","0","0","98182","","790","","","68","21","","","1","21","training","adjacent","DC","4","3","R.jpg","L.jpg","1","0","0","",""
"","feedback","","html-keyboard-response","158","460986","0.0-1.0-195.0-0.0","0","0","98182","","null","","","null","21","","","","","","","","","","","","","","","",""
"","time_out","","html-keyboard-response","159","462995","0.0-1.0-197.0-0.0","0","0","98182","","null","","","null","21","","","","","","","","","","","","","","","",""
"","ITI","","html-keyboard-response","160","464003","0.0-1.0-198.0","0","0","98182","","687","","","75","21","","","","","","","","","","","","","","","k",""
"","S1","","html-keyboard-response","161","464259","0.0-1.0-200.0","0","0","98182","","null","","","null","22","","","","","","","","","","","","","","","",""
"","ISI","","html-keyboard-response","162","464763","0.0-1.0-201.0","0","0","98182","","150","","","75","22","k","","","","","","","","","","","","","","",""
"","S2","","html-keyboard-response","163","465019","0.0-1.0-202.0","0","0","98182","","null","","","null","22","","NaN","","","","","","","","","","","","","",""
"","response","","html-keyboard-response","164","465112","0.0-1.0-203.0-0.0","0","0","98182","","92","","","68","22","","","1","22","training","adjacent","EF","5","6","M.jpg","N.jpg","1","1","1","",""
"","feedback","","html-keyboard-response","165","466114","0.0-1.0-204.0-0.0","0","0","98182","","null","","","null","22","","","","","","","","","","","","","","","",""
"","ITI","","html-keyboard-response","166","467121","0.0-1.0-207.0","0","0","98182","","20","","","83","22","","","","","","","","","","","","","","","s",""
"","S1","","html-keyboard-response","167","467379","0.0-1.0-209.0","0","0","98182","","null","","","null","23","","","","","","","","","","","","","","","",""
"","ISI","","html-keyboard-response","168","467881","0.0-1.0-210.0","0","0","98182","","26","","","83","23","s","","","","","","","","","","","","","","",""
"","S2","","html-keyboard-response","169","467990","0.0-1.0-211.0","0","0","98182","","107","","","75","23","","k","1","23","training","adjacent","DE","4","5","R.jpg","M.jpg","0","1","0","",""
"","feedback","","html-keyboard-response","170","468994","0.0-1.0-213.0-0.0","0","0","98182","","null","","","null","23","","","","","","","","","","","","","","","",""
"","time_out","","html-keyboard-response","171","471008","0.0-1.0-215.0-0.0","0","0","98182","","null","","","null","23","","","","","","","","","","","","","","","",""
"","ITI","","html-keyboard-response","172","472011","0.0-1.0-216.0","0","0","98182","","113","","","76","23","","","","","","","","","","","","","","","l",""
"","S1","","html-keyboard-response","173","472266","0.0-1.0-218.0","0","0","98182","","null","","","null","24","","","","","","","","","","","","","","","",""
"","ISI","","html-keyboard-response","174","472769","0.0-1.0-219.0","0","0","98182","","50","","","83","24","s","","","","","","","","","","","","","","",""
"","S2","","html-keyboard-response","175","472834","0.0-1.0-220.0","0","0","98182","","65","","","68","24","","d","1","24","training","adjacent","AB","1","2","Q.jpg","P.jpg","1","1","1","",""
"","feedback","","html-keyboard-response","176","473842","0.0-1.0-222.0-0.0","0","0","98182","","null","","","null","24","","","","","","","","","","","","","","","",""
"","ITI","","html-keyboard-response","177","474851","0.0-1.0-225.0","0","0","98182","","null","","","null","24","","","","","","","","","","","","","","","NaN",""
"","S1","","html-keyboard-response","178","475140","0.0-1.0-227.0","0","0","98182","","null","","","null","25","","","","","","","","","","","","","","","",""
"","ISI","","html-keyboard-response","179","475643","0.0-1.0-228.0","0","0","98182","","null","","","null","25","NaN","","","","","","","","","","","","","","",""
"","S2","","html-keyboard-response","180","475898","0.0-1.0-229.0","0","0","98182","","null","","","null","25","","NaN","","","","","","","","","","","","","",""
"","response","","html-keyboard-response","181","476604","0.0-1.0-230.0-0.0","0","0","98182","","704","","","68","25","","","1","25","training","adjacent","CB","3","2","L.jpg","P.jpg","1","0","0","",""
"","feedback","","html-keyboard-response","182","477610","0.0-1.0-231.0-0.0","0","0","98182","","null","","","null","25","","","","","","","","","","","","","","","",""
"","time_out","","html-keyboard-response","183","480343","0.0-1.0-233.0-0.0","0","0","98182","","null","","","null","25","","","","","","","","","","","","","","","",""
"","ITI","","html-keyboard-response","184","482318","0.0-1.0-234.0","0","0","98182","","null","","","null","25","","","","","","","","","","","","","","","NaN",""
"","S1","","html-keyboard-response","185","483063","0.0-1.0-236.0","0","0","98182","","null","","","null","26","","","","","","","","","","","","","","","",""
"","ISI","","html-keyboard-response","186","483568","0.0-1.0-237.0","0","0","98182","","null","","","null","26","NaN","","","","","","","","","","","","","","",""
"","S2","","html-keyboard-response","187","483825","0.0-1.0-238.0","0","0","98182","","null","","","null","26","","NaN","","","","","","","","","","","","","",""
"","response","","html-keyboard-response","188","483987","0.0-1.0-239.0-0.0","0","0","98182","","159","","","68","26","","","1","26","training","adjacent","BC","2","3","P.jpg","L.jpg","1","1","1","",""
"","feedback","","html-keyboard-response","189","484995","0.0-1.0-240.0-0.0","0","0","98182","","null","","","null","26","","","","","","","","","","","","","","","",""
"","ITI","","html-keyboard-response","190","486003","0.0-1.0-243.0","0","0","98182","","null","","","null","26","","","","","","","","","","","","","","","NaN",""
"","S1","","html-keyboard-response","191","486258","0.0-1.0-245.0","0","0","98182","","null","","","null","27","","","","","","","","","","","","","","","",""
"","ISI","","html-keyboard-response","192","486763","0.0-1.0-246.0","0","0","98182","","null","","","null","27","NaN","","","","","","","","","","","","","","",""
"","S2","","html-keyboard-response","193","487019","0.0-1.0-247.0","0","0","98182","","null","","","null","27","","NaN","","","","","","","","","","","","","",""
"","response","","html-keyboard-response","194","488771","0.0-1.0-248.0-0.0","0","0","98182","","null","","","null","27","","","1","27","training","adjacent","AB","1","2","Q.jpg","P.jpg","NaN","1","0","",""
"","too_slow_prompt","","html-keyboard-response","195","489779","0.0-1.0-250.0-0.0","1","0","98182","","null","","","null","","","","","","","","","","","","","","","","",""
"","time_out","","html-keyboard-response","196","491787","0.0-1.0-251.0-0.0","0","0","98182","","null","","","null","27","","","","","","","","","","","","","","","",""
"","ITI","","html-keyboard-response","197","492794","0.0-1.0-252.0","0","0","98182","","319","","","83","27","","","","","","","","","","","","","","","s",""
"","S1","","html-keyboard-response","198","493050","0.0-1.0-254.0","0","0","98182","","null","","","null","28","","","","","","","","","","","","","","","",""
"","ISI","","html-keyboard-response","199","493554","0.0-1.0-255.0","0","0","98182","","null","","","null","28","NaN","","","","","","","","","","","","","","",""
"","S2","","html-keyboard-response","200","493810","0.0-1.0-256.0","0","0","98182","","null","","","null","28","","NaN","","","","","","","","","","","","","",""
"","response","","html-keyboard-response","201","494628","0.0-1.0-257.0-0.0","0","0","98182","","816","","","68","28","","","1","28","training","adjacent","GF","7","6","O.jpg","N.jpg","1","0","0","",""
"","feedback","","html-keyboard-response","202","495635","0.0-1.0-258.0-0.0","0","0","98182","","null","","","null","28","","","","","","","","","","","","","","","",""
"","time_out","","html-keyboard-response","203","497644","0.0-1.0-260.0-0.0","0","0","98182","","null","","","null","28","","","","","","","","","","","","","","","",""
"","ITI","","html-keyboard-response","204","498650","0.0-1.0-261.0","0","0","98182","","211","","","83","28","","","","","","","","","","","","","","","s",""
"","S1","","html-keyboard-response","205","498907","0.0-1.0-263.0","0","0","98182","","null","","","null","29","","","","","","","","","","","","","","","",""
"","ISI","","html-keyboard-response","206","499410","0.0-1.0-264.0","0","0","98182","","126","","","70","29","f","","","","","","","","","","","","","","",""
"","S2","","html-keyboard-response","207","499495","0.0-1.0-265.0","0","0","98182","","83","","","68","29","","d","1","29","training","adjacent","BA","2","1","P.jpg","Q.jpg","1","0","0","",""
"","feedback","","html-keyboard-response","208","500498","0.0-1.0-267.0-0.0","0","0","98182","","null","","","null","29","","","","","","","","","","","","","","","",""
"","time_out","","html-keyboard-response","209","502506","0.0-1.0-269.0-0.0","0","0","98182","","null","","","null","29","","","","","","","","","","","","","","","",""
"","ITI","","html-keyboard-response","210","503515","0.0-1.0-270.0","0","0","98182","","358","","","65","29","","","","","","","","","","","","","","","a",""
"","S1","","html-keyboard-response","211","503771","0.0-1.0-272.0","0","0","98182","","null","","","null","30","","","","","","","","","","","","","","","",""
"","ISI","","html-keyboard-response","212","504275","0.0-1.0-273.0","0","0","98182","","235","","","68","30","d","","","","","","","","","","","","","","",""
"","S2","","html-keyboard-response","213","504530","0.0-1.0-274.0","0","0","98182","","null","","","null","30","","NaN","","","","","","","","","","","","","",""
"","response","","html-keyboard-response","214","504647","0.0-1.0-275.0-0.0","0","0","98182","","116","","","68","30","","","1","30","training","adjacent","ED","5","4","M.jpg","R.jpg","1","0","0","",""
"","feedback","","html-keyboard-response","215","505650","0.0-1.0-276.0-0.0","0","0","98182","","null","","","null","30","","","","","","","","","","","","","","","",""
"","time_out","","html-keyboard-response","216","508314","0.0-1.0-278.0-0.0","0","0","98182","","null","","","null","30","","","","","","","","","","","","","","","",""
"","ITI","","html-keyboard-response","217","510316","0.0-1.0-279.0","0","0","98182","","null","","","null","30","","","","","","","","","","","","","","","NaN",""
"","S1","","html-keyboard-response","218","511314","0.0-1.0-281.0","0","0","98182","","null","","","null","31","","","","","","","","","","","","","","","",""
"","ISI","","html-keyboard-response","219","512314","0.0-1.0-282.0","0","0","98182","","null","","","null","31","NaN","","","","","","","","","","","","","","",""
"","S2","","html-keyboard-response","220","513314","0.0-1.0-283.0","0","0","98182","","null","","","null","31","","NaN","","","","","","","","","","","","","",""
"","response","","html-keyboard-response","221","515325","0.0-1.0-284.0-0.0","0","0","98182","","null","","","null","31","","","1","31","training","adjacent","ED","5","4","M.jpg","R.jpg","NaN","0","0","",""
"","too_slow_prompt","","html-keyboard-response","222","517396","0.0-1.0-286.0-0.0","1","0","98182","","null","","","null","","","","","","","","","","","","","","","","",""
"","time_out","","html-keyboard-response","223","519402","0.0-1.0-287.0-0.0","0","0","98182","","null","","","null","31","","","","","","","","","","","","","","","",""
"","ITI","","html-keyboard-response","224","520409","0.0-1.0-288.0","0","0","98182","","634","","","68","31","","","","","","","","","","","","","","","d",""
"","S1","","html-keyboard-response","225","520667","0.0-1.0-290.0","0","0","98182","","null","","","null","32","","","","","","","","","","","","","","","",""
"","ISI","","html-keyboard-response","226","521170","0.0-1.0-291.0","0","0","98182","","127","","","65","32","a","","","","","","","","","","","","","","",""
"","S2","","html-keyboard-response","227","521426","0.0-1.0-292.0","0","0","98182","","null","","","null","32","","NaN","","","","","","","","","","","","","",""
"","response","","html-keyboard-response","228","523178","0.0-1.0-293.0-0.0","0","0","98182","","null","","","null","32","","","1","32","training","adjacent","EF","5","6","M.jpg","N.jpg","NaN","1","0","",""
"","too_slow_prompt","","html-keyboard-response","229","524186","0.0-1.0-295.0-0.0","1","0","98182","","null","","","null","","","","","","","","","","","","","","","","",""
"","time_out","","html-keyboard-response","230","526195","0.0-1.0-296.0-0.0","0","0","98182","","null","","","null","32","","","","","","","","","","","","","","","",""
"","ITI","","html-keyboard-response","231","527202","0.0-1.0-297.0","0","0","98182","","182","","","83","32","","","","","","","","","","","","","","","s",""
"","S1","","html-keyboard-response","232","527459","0.0-1.0-299.0","0","0","98182","","null","","","null","33","","","","","","","","","","","","","","","",""
"","ISI","","html-keyboard-response","233","527963","0.0-1.0-300.0","0","0","98182","","349","","","83","33","s","","","","","","","","","","","","","","",""
"","S2","","html-keyboard-response","234","528219","0.0-1.0-301.0","0","0","98182","","null","","","null","33","","NaN","","","","","","","","","","","","","",""
"","response","","html-keyboard-response","235","529682","0.0-1.0-302.0-0.0","0","0","98182","","1462","","","68","33","","","1","33","training","adjacent","DE","4","5","R.jpg","M.jpg","1","1","1","",""
"","feedback","","html-keyboard-response","236","530690","0.0-1.0-303.0-0.0","0","0","98182","","null","","","null","33","","","","","","","","","","","","","","","",""
"","ITI","","html-keyboard-response","237","531698","0.0-1.0-306.0","0","0","98182","","343","","","65","33","","","","","","","","","","","","","","","a",""
"","S1","","html-keyboard-response","238","531955","0.0-1.0-308.0","0","0","98182","","null","","","null","34","","","","","","","","","","","","","","","",""
"","ISI","","html-keyboard-response","239","532459","0.0-1.0-309.0","0","0","98182","","384","","","68","34","d","","","","","","","","","","","","","","",""
"","S2","","html-keyboard-response","240","532714","0.0-1.0-310.0","0","0","98182","","null","","","null","34","","NaN","","","","","","","","","","","","","",""
"","response","","html-keyboard-response","241","532972","0.0-1.0-311.0-0.0","0","0","98182","","257","","","68","34","","","1","34","training","adjacent","BA","2","1","P.jpg","Q.jpg","1","0","0","",""
"","feedback","","html-keyboard-response","242","533979","0.0-1.0-312.0-0.0","0","0","98182","","null","","","null","34","","","","","","","","","","","","","","","",""
"","time_out","","html-keyboard-response","243","535987","0.0-1.0-314.0-0.0","0","0","98182","","null","","","null","34","","","","","","","","","","","","","","","",""
"","ITI","","html-keyboard-response","244","536994","0.0-1.0-315.0","0","0","98182","","201","","","68","34","","","","","","","","","","","","","","","d",""
"","S1","","html-keyboard-response","245","537255","0.0-1.0-317.0","0","0","98182","","null","","","null","35","","","","","","","","","","","","","","","",""
"","ISI","","html-keyboard-response","246","537777","0.0-1.0-318.0","0","0","98182","","117","","","68","35","d","","","","","","","","","","","","","","",""
"","S2","","html-keyboard-response","247","538035","0.0-1.0-319.0","0","0","98182","","null","","","null","35","","NaN","","","","","","","","","","","","","",""
"","response","","html-keyboard-response","248","539794","0.0-1.0-320.0-0.0","0","0","98182","","null","","","null","35","","","1","35","training","adjacent","GF","7","6","O.jpg","N.jpg","NaN","0","0","",""
"","too_slow_prompt","","html-keyboard-response","249","540802","0.0-1.0-322.0-0.0","1","0","98182","","null","","","null","","","","","","","","","","","","","","","","",""
"","time_out","","html-keyboard-response","250","542811","0.0-1.0-323.0-0.0","0","0","98182","","null","","","null","35","","","","","","","","","","","","","","","",""
"","ITI","","html-keyboard-response","251","543817","0.0-1.0-324.0","0","0","98182","","50","","","83","35","","","","","","","","","","","","","","","s",""
"","S1","","html-keyboard-response","252","544075","0.0-1.0-326.0","0","0","98182","","null","","","null","36","","","","","","","","","","","","","","","",""
"","ISI","","html-keyboard-response","253","544578","0.0-1.0-327.0","0","0","98182","","282","","","65","36","a","","","","","","","","","","","","","","",""
"","S2","","html-keyboard-response","254","544774","0.0-1.0-328.0","0","0","98182","","194","","","68","36","","d","1","36","training","adjacent","FE","6","5","N.jpg","M.jpg","1","0","0","",""
"","feedback","","html-keyboard-response","255","545779","0.0-1.0-330.0-0.0","0","0","98182","","null","","","null","36","","","","","","","","","","","","","","","",""
"","time_out","","html-keyboard-response","256","547787","0.0-1.0-332.0-0.0","0","0","98182","","null","","","null","36","","","","","","","","","","","","","","","",""
"","ITI","","html-keyboard-response","257","548795","0.0-1.0-333.0","0","0","98182","","52","","","83","36","","","","","","","","","","","","","","","s",""
"","S1","","html-keyboard-response","258","549051","0.0-1.0-335.0","0","0","98182","","null","","","null","37","","","","","","","","","","","","","","","",""
"","ISI","","html-keyboard-response","259","549555","0.0-1.0-336.0","0","0","98182","","321","","","68","37","d","","","","","","","","","","","","","","",""
"","S2","","html-keyboard-response","260","549811","0.0-1.0-337.0","0","0","98182","","null","","","null","37","","NaN","","","","","","","","","","","","","",""
"","response","","html-keyboard-response","261","549821","0.0-1.0-338.0-0.0","0","0","98182","","8","","","75","37","","","1","37","training","adjacent","FG","6","7","N.jpg","O.jpg","0","1","0","",""
"","feedback","","html-keyboard-response","262","550827","0.0-1.0-339.0-0.0","0","0","98182","","null","","","null","37","","","","","","","","","","","","","","","",""
"","time_out","","html-keyboard-response","263","552836","0.0-1.0-341.0-0.0","0","0","98182","","null","","","null","37","","","","","","","","","","","","","","","",""
"","ITI","","html-keyboard-response","264","553842","0.0-1.0-342.0","0","0","98182","","37","","","83","37","","","","","","","","","","","","","","","s",""
"","S1","","html-keyboard-response","265","554099","0.0-1.0-344.0","0","0","98182","","null","","","null","38","","","","","","","","","","","","","","","",""
"","ISI","","html-keyboard-response","266","554604","0.0-1.0-345.0","0","0","98182","","459","","","83","38","s","","","","","","","","","","","","","","",""
"","S2","","html-keyboard-response","267","554859","0.0-1.0-346.0","0","0","98182","","null","","","null","38","","NaN","","","","","","","","","","","","","",""
"","response","","html-keyboard-response","268","555217","0.0-1.0-347.0-0.0","0","0","98182","","356","","","68","38","","","1","38","training","adjacent","BC","2","3","P.jpg","L.jpg","1","1","1","",""
"","feedback","","html-keyboard-response","269","556219","0.0-1.0-348.0-0.0","0","0","98182","","null","","","null","38","","","","","","","","","","","","","","","",""
"","ITI","","html-keyboard-response","270","557227","0.0-1.0-351.0","0","0","98182","","122","","","68","38","","","","","","","","","","","","","","","d",""
"","S1","","html-keyboard-response","271","557484","0.0-1.0-353.0","0","0","98182","","null","","","null","39","","","","","","","","","","","","","","","",""
"","ISI","","html-keyboard-response","272","557987","0.0-1.0-354.0","0","0","98182","","17","","","83","39","s","","","","","","","","","","","","","","",""
"","S2","","html-keyboard-response","273","558244","0.0-1.0-355.0","0","0","98182","","null","","","null","39","","NaN","","","","","","","","","","","","","",""
"","response","","html-keyboard-response","274","559999","0.0-1.0-356.0-0.0","0","0","98182","","null","","","null","39","","","1","39","training","adjacent","BC","2","3","P.jpg","L.jpg","NaN","1","0","",""
"","too_slow_prompt","","html-keyboard-response","275","561003","0.0-1.0-358.0-0.0","1","0","98182","","null","","","null","","","","","","","","","","","","","","","","",""
"","time_out","","html-keyboard-response","276","563011","0.0-1.0-359.0-0.0","0","0","98182","","null","","","null","39","","","","","","","","","","","","","","","",""
"","ITI","","html-keyboard-response","277","564019","0.0-1.0-360.0","0","0","98182","","68","","","83","39","","","","","","","","","","","","","","","s",""
"","S1","","html-keyboard-response","278","564275","0.0-1.0-362.0","0","0","98182","","null","","","null","40","","","","","","","","","","","","","","","",""
"","ISI","","html-keyboard-response","279","564780","0.0-1.0-363.0","0","0","98182","","373","","","65","40","a","","","","","","","","","","","","","","",""
"","S2","","html-keyboard-response","280","565035","0.0-1.0-364.0","0","0","98182","","null","","","null","40","","NaN","","","","","","","","","","","","","",""
"","response","","html-keyboard-response","281","566205","0.0-1.0-365.0-0.0","0","0","98182","","1168","","","68","40","","","1","40","training","adjacent","GF","7","6","O.jpg","N.jpg","1","0","0","",""
"","feedback","","html-keyboard-response","282","567212","0.0-1.0-366.0-0.0","0","0","98182","","null","","","null","40","","","","","","","","","","","","","","","",""
"","time_out","","html-keyboard-response","283","569314","0.0-1.0-368.0-0.0","0","0","98182","","null","","","null","40","","","","","","","","","","","","","","","",""
"","ITI","","html-keyboard-response","284","571315","0.0-1.0-369.0","0","0","98182","","null","","","null","40","","","","","","","","","","","","","","","NaN",""
"","S1","","html-keyboard-response","285","572332","0.0-1.0-371.0","0","0","98182","","null","","","null","41","","","","","","","","","","","","","","","",""
"","ISI","","html-keyboard-response","286","573315","0.0-1.0-372.0","0","0","98182","","null","","","null","41","NaN","","","","","","","","","","","","","","",""
"","S2","","html-keyboard-response","287","573614","0.0-1.0-373.0","0","0","98182","","null","","","null","41","","NaN","","","","","","","","","","","","","",""
"","response","","html-keyboard-response","288","575137","0.0-1.0-374.0-0.0","0","0","98182","","1522","","","68","41","","","1","41","training","adjacent","CD","3","4","L.jpg","R.jpg","1","1","1","",""
"","feedback","","html-keyboard-response","289","576139","0.0-1.0-375.0-0.0","0","0","98182","","null","","","null","41","","","","","","","","","","","","","","","",""
"","ITI","","html-keyboard-response","290","577147","0.0-1.0-378.0","0","0","98182","","null","","","null","41","","","","","","","","","","","","","","","NaN",""
"","S1","","html-keyboard-response","291","577404","0.0-1.0-380.0","0","0","98182","","null","","","null","42","","","","","","","","","","","","","","","",""
"","ISI","","html-keyboard-response","292","577909","0.0-1.0-381.0","0","0","98182","","119","","","83","42","s","","","","","","","","","","","","","","",""
"","S2","","html-keyboard-response","293","578164","0.0-1.0-382.0","0","0","98182","","null","","","null","42","","NaN","","","","","","","","","","","","","",""
"","response","","html-keyboard-response","294","579915","0.0-1.0-383.0-0.0","0","0","98182","","null","","","null","42","","","1","42","training","adjacent","CB","3","2","L.jpg","P.jpg","NaN","0","0","",""
"","too_slow_prompt","","html-keyboard-response","295","580923","0.0-1.0-385.0-0.0","1","0","98182","","null","","","null","","","","","","","","","","","","","","","","",""
"","time_out","","html-keyboard-response","296","582934","0.0-1.0-386.0-0.0","0","0","98182","","null","","","null","42","","","","","","","","","","","","","","","",""
"","ITI","","html-keyboard-response","297","583939","0.0-1.0-387.0","0","0","98182","","265","","","68","42","","","","","","","","","","","","","","","d",""
"","S1","","html-keyboard-response","298","584196","0.0-1.0-389.0","0","0","98182","","null","","","null","43","","","","","","","","","","","","","","","",""
"","ISI","","html-keyboard-response","299","584701","0.0-1.0-390.0","0","0","98182","","235","","","32","43","space","","","","","","","","","","","","","","",""
"","S2","","html-keyboard-response","300","584956","0.0-1.0-391.0","0","0","98182","","null","","","null","43","","NaN","","","","","","","","","","","","","",""
"","response","","html-keyboard-response","301","585386","0.0-1.0-392.0-0.0","0","0","98182","","428","","","68","43","","","1","43","training","adjacent","DE","4","5","R.jpg","M.jpg","1","1","1","",""
"","feedback","","html-keyboard-response","302","586387","0.0-1.0-393.0-0.0","0","0","98182","","null","","","null","43","","","","","","","","","","","","","","","",""
"","ITI","","html-keyboard-response","303","587398","0.0-1.0-396.0","0","0","98182","","167","","","68","43","","","","","","","","","","","","","","","d",""
"","S1","","html-keyboard-response","304","587652","0.0-1.0-398.0","0","0","98182","","null","","","null","44","","","","","","","","","","","","","","","",""
"","ISI","","html-keyboard-response","305","588168","0.0-1.0-399.0","0","0","98182","","57","","","75","44","k","","","","","","","","","","","","","","",""
"","S2","","html-keyboard-response","306","588233","0.0-1.0-400.0","0","0","98182","","63","","","68","44","","d","1","44","training","adjacent","CD","3","4","L.jpg","R.jpg","1","1","1","",""
"","feedback","","html-keyboard-response","307","589235","0.0-1.0-402.0-0.0","0","0","98182","","null","","","null","44","","","","","","","","","","","","","","","",""
"","ITI","","html-keyboard-response","308","590245","0.0-1.0-405.0","0","0","98182","","59","","","68","44","","","","","","","","","","","","","","","d",""
"","S1","","html-keyboard-response","309","590506","0.0-1.0-407.0","0","0","98182","","null","","","null","45","","","","","","","","","","","","","","","",""
"","ISI","","html-keyboard-response","310","591011","0.0-1.0-408.0","0","0","98182","","48","","","75","45","k","","","","","","","","","","","","","","",""
"","S2","","html-keyboard-response","311","591141","0.0-1.0-409.0","0","0","98182","","127","","","75","45","","k","1","45","training","adjacent","DE","4","5","R.jpg","M.jpg","0","1","0","",""
"","feedback","","html-keyboard-response","312","592148","0.0-1.0-411.0-0.0","0","0","98182","","null","","","null","45","","","","","","","","","","","","","","","",""
"","time_out","","html-keyboard-response","313","594187","0.0-1.0-413.0-0.0","0","0","98182","","null","","","null","45","","","","","","","","","","","","","","","",""
"","ITI","","html-keyboard-response","314","595202","0.0-1.0-414.0","0","0","98182","","42","","","75","45","","","","","","","","","","","","","","","k",""
"","S1","","html-keyboard-response","315","595461","0.0-1.0-416.0","0","0","98182","","null","","","null","46","","","","","","","","","","","","","","","",""
"","ISI","","html-keyboard-response","316","595964","0.0-1.0-417.0","0","0","98182","","72","","","68","46","d","","","","","","","","","","","","","","",""
"","S2","","html-keyboard-response","317","596074","0.0-1.0-418.0","0","0","98182","","109","","","68","46","","d","1","46","training","adjacent","ED","5","4","M.jpg","R.jpg","1","0","0","",""
"","feedback","","html-keyboard-response","318","597137","0.0-1.0-420.0-0.0","0","0","98182","","null","","","null","46","","","","","","","","","","","","","","","",""
"","time_out","","html-keyboard-response","319","599140","0.0-1.0-422.0-0.0","0","0","98182","","null","","","null","46","","","","","","","","","","","","","","","",""
"","ITI","","html-keyboard-response","320","600146","0.0-1.0-423.0","0","0","98182","","231","","","75","46","","","","","","","","","","","","","","","k",""
"","S1","","html-keyboard-response","321","600404","0.0-1.0-425.0","0","0","98182","","null","","","null","47","","","","","","","","","","","","","","","",""
"","ISI","","html-keyboard-response","322","600908","0.0-1.0-426.0","0","0","98182","","96","","","75","47","k","","","","","","","","","","","","","","",""
"","S2","","html-keyboard-response","323","600918","0.0-1.0-427.0","0","0","98182","","9","","","68","47","","d","1","47","training","adjacent","DC","4","3","R.jpg","L.jpg","1","0","0","",""
"","feedback","","html-keyboard-response","324","601924","0.0-1.0-429.0-0.0","0","0","98182","","null","","","null","47","","","","","","","","","","","","","","","",""
"","time_out","","html-keyboard-response","325","603929","0.0-1.0-431.0-0.0","0","0","98182","","null","","","null","47","","","","","","","","","","","","","","","",""
"","ITI","","html-keyboard-response","326","604933","0.0-1.0-432.0","0","0","98182","","89","","","75","47","","","","","","","","","","","","","","","k",""
"","block_over","","html-keyboard-response","327","612086","0.0-1.0-433.0-0.0","0","0","98182","","7151","","","32","47","","","","","","","","","","","","","","","",""
"","S1","","html-keyboard-response","328","612338","0.0-1.0-434.0","0","0","98182","","null","","","null","48","","","","","","","","","","","","","","","",""
"","ISI","","html-keyboard-response","329","612843","0.0-1.0-435.0","0","0","98182","","null","","","null","48","NaN","","","","","","","","","","","","","","",""
"","S2","","html-keyboard-response","330","613098","0.0-1.0-436.0","0","0","98182","","null","","","null","48","","NaN","","","","","","","","","","","","","",""
"","response","","html-keyboard-response","331","613952","0.0-1.0-437.0-0.0","0","0","98182","","853","","","68","48","","","2","48","training","adjacent","ED","5","4","M.jpg","R.jpg","1","0","0","",""
"","feedback","","html-keyboard-response","332","614954","0.0-1.0-438.0-0.0","0","0","98182","","null","","","null","48","","","","","","","","","","","","","","","",""
"","time_out","","html-keyboard-response","333","616962","0.0-1.0-440.0-0.0","0","0","98182","","null","","","null","48","","","","","","","","","","","","","","","",""
"","ITI","","html-keyboard-response","334","617970","0.0-1.0-441.0","0","0","98182","","3","","","68","48","","","","","","","","","","","","","","","d",""
"","S1","","html-keyboard-response","335","618227","0.0-1.0-443.0","0","0","98182","","null","","","null","49","","","","","","","","","","","","","","","",""
"","ISI","","html-keyboard-response","336","618730","0.0-1.0-444.0","0","0","98182","","null","","","null","49","NaN","","","","","","","","","","","","","","",""
"","S2","","html-keyboard-response","337","618987","0.0-1.0-445.0","0","0","98182","","null","","","null","49","","NaN","","","","","","","","","","","","","",""
"","response","","html-keyboard-response","338","620738","0.0-1.0-446.0-0.0","0","0","98182","","null","","","null","49","","","2","49","training","adjacent","FG","6","7","N.jpg","O.jpg","NaN","1","0","",""
"","too_slow_prompt","","html-keyboard-response","339","621746","0.0-1.0-448.0-0.0","1","0","98182","","null","","","null","","","","","","","","","","","","","","","","",""
"","time_out","","html-keyboard-response","340","623755","0.0-1.0-449.0-0.0","0","0","98182","","null","","","null","49","","","","","","","","","","","","","","","",""
"","ITI","","html-keyboard-response","341","624762","0.0-1.0-450.0","0","0","98182","","null","","","null","49","","","","","","","","","","","","","","","NaN",""
"","S1","","html-keyboard-response","342","625019","0.0-1.0-452.0","0","0","98182","","null","","","null","50","","","","","","","","","","","","","","","",""
"","ISI","","html-keyboard-response","343","625523","0.0-1.0-453.0","0","0","98182","","null","","","null","50","NaN","","","","","","","","","","","","","","",""
"","S2","","html-keyboard-response","344","625786","0.0-1.0-454.0","0","0","98182","","null","","","null","50","","NaN","","","","","","","","","","","","","",""
"","response","","html-keyboard-response","345","627539","0.0-1.0-455.0-0.0","0","0","98182","","null","","","null","50","","","2","50","training","adjacent","EF","5","6","M.jpg","N.jpg","NaN","1","0","",""
"","too_slow_prompt","","html-keyboard-response","346","628546","0.0-1.0-457.0-0.0","1","0","98182","","null","","","null","","","","","","","","","","","","","","","","",""
"","time_out","","html-keyboard-response","347","630554","0.0-1.0-458.0-0.0","0","0","98182","","null","","","null","50","","","","","","","","","","","","","","","",""
"","ITI","","html-keyboard-response","348","631562","0.0-1.0-459.0","0","0","98182","","null","","","null","50","","","","","","","","","","","","","","","NaN",""
"","S1","","html-keyboard-response","349","631818","0.0-1.0-461.0","0","0","98182","","null","","","null","51","","","","","","","","","","","","","","","",""
"","ISI","","html-keyboard-response","350","632322","0.0-1.0-462.0","0","0","98182","","null","","","null","51","NaN","","","","","","","","","","","","","","",""
"","S2","","html-keyboard-response","351","632578","0.0-1.0-463.0","0","0","98182","","null","","","null","51","","NaN","","","","","","","","","","","","","",""
"","response","","html-keyboard-response","352","634336","0.0-1.0-464.0-0.0","0","0","98182","","null","","","null","51","","","2","51","training","adjacent","GF","7","6","O.jpg","N.jpg","NaN","0","0","",""
"","too_slow_prompt","","html-keyboard-response","353","635338","0.0-1.0-466.0-0.0","1","0","98182","","null","","","null","","","","","","","","","","","","","","","","",""
"","time_out","","html-keyboard-response","354","637347","0.0-1.0-467.0-0.0","0","0","98182","","null","","","null","51","","","","","","","","","","","","","","","",""
"","ITI","","html-keyboard-response","355","638354","0.0-1.0-468.0","0","0","98182","","null","","","null","51","","","","","","","","","","","","","","","NaN",""
"","S1","","html-keyboard-response","356","638611","0.0-1.0-470.0","0","0","98182","","null","","","null","52","","","","","","","","","","","","","","","",""
"","ISI","","html-keyboard-response","357","639115","0.0-1.0-471.0","0","0","98182","","null","","","null","52","NaN","","","","","","","","","","","","","","",""
"","S2","","html-keyboard-response","358","639371","0.0-1.0-472.0","0","0","98182","","null","","","null","52","","NaN","","","","","","","","","","","","","",""
"","response","","html-keyboard-response","359","641122","0.0-1.0-473.0-0.0","0","0","98182","","null","","","null","52","","","2","52","training","adjacent","BC","2","3","P.jpg","L.jpg","NaN","1","0","",""
"","too_slow_prompt","","html-keyboard-response","360","642129","0.0-1.0-475.0-0.0","1","0","98182","","null","","","null","","","","","","","","","","","","","","","","",""
"","time_out","","html-keyboard-response","361","644138","0.0-1.0-476.0-0.0","0","0","98182","","null","","","null","52","","","","","","","","","","","","","","","",""
"","ITI","","html-keyboard-response","362","645147","0.0-1.0-477.0","0","0","98182","","null","","","null","52","","","","","","","","","","","","","","","NaN",""
"","S1","","html-keyboard-response","363","645401","0.0-1.0-479.0","0","0","98182","","null","","","null","53","","","","","","","","","","","","","","","",""
"","ISI","","html-keyboard-response","364","645910","0.0-1.0-480.0","0","0","98182","","111","","","75","53","k","","","","","","","","","","","","","","",""
"","S2","","html-keyboard-response","365","645917","0.0-1.0-481.0","0","0","98182","","7","","","68","53","","d","2","53","training","adjacent","DE","4","5","R.jpg","M.jpg","1","1","1","",""
"","feedback","","html-keyboard-response","366","646921","0.0-1.0-483.0-0.0","0","0","98182","","null","","","null","53","","","","","","","","","","","","","","","",""
"","ITI","","html-keyboard-response","367","647931","0.0-1.0-486.0","0","0","98182","","784","","","68","53","","","","","","","","","","","","","","","d",""
"","S1","","html-keyboard-response","368","648186","0.0-1.0-488.0","0","0","98182","","null","","","null","54","","","","","","","","","","","","","","","",""
"","ISI","","html-keyboard-response","369","648691","0.0-1.0-489.0","0","0","98182","","106","","","75","54","k","","","","","","","","","","","","","","",""
"","S2","","html-keyboard-response","370","648814","0.0-1.0-490.0","0","0","98182","","121","","","68","54","","d","2","54","training","adjacent","AB","1","2","Q.jpg","P.jpg","1","1","1","",""
"","feedback","","html-keyboard-response","371","649815","0.0-1.0-492.0-0.0","0","0","98182","","null","","","null","54","","","","","","","","","","","","","","","",""
"","ITI","","html-keyboard-response","372","650819","0.0-1.0-495.0","0","0","98182","","759","","","75","54","","","","","","","","","","","","","","","k",""
"","S1","","html-keyboard-response","373","651074","0.0-1.0-497.0","0","0","98182","","null","","","null","55","","","","","","","","","","","","","","","",""
"","ISI","","html-keyboard-response","374","651578","0.0-1.0-498.0","0","0","98182","","202","","","68","55","d","","","","","","","","","","","","","","",""
"","S2","","html-keyboard-response","375","651708","0.0-1.0-499.0","0","0","98182","","127","","","68","55","","d","2","55","training","adjacent","DE","4","5","R.jpg","M.jpg","1","1","1","",""
"","feedback","","html-keyboard-response","376","652714","0.0-1.0-501.0-0.0","0","0","98182","","null","","","null","55","","","","","","","","","","","","","","","",""
"","ITI","","html-keyboard-response","377","653722","0.0-1.0-504.0","0","0","98182","","705","","","68","55","","","","","","","","","","","","","","","d",""
"","S1","","html-keyboard-response","378","653979","0.0-1.0-506.0","0","0","98182","","null","","","null","56","","","","","","","","","","","","","","","",""
"","ISI","","html-keyboard-response","379","654517","0.0-1.0-507.0","0","0","98182","","58","","","68","56","d","","","","","","","","","","","","","","",""
"","S2","","html-keyboard-response","380","654771","0.0-1.0-508.0","0","0","98182","","null","","","null","56","","NaN","","","","","","","","","","","","","",""
"","response","","html-keyboard-response","381","655527","0.0-1.0-509.0-0.0","0","0","98182","","755","","","68","56","","","2","56","training","adjacent","AB","1","2","Q.jpg","P.jpg","1","1","1","",""
"","feedback","","html-keyboard-response","382","656531","0.0-1.0-510.0-0.0","0","0","98182","","null","","","null","56","","","","","","","","","","","","","","","",""
"","ITI","","html-keyboard-response","383","657540","0.0-1.0-513.0","0","0","98182","","null","","","null","56","","","","","","","","","","","","","","","NaN",""
"","S1","","html-keyboard-response","384","657794","0.0-1.0-515.0","0","0","98182","","null","","","null","57","","","","","","","","","","","","","","","",""
"","ISI","","html-keyboard-response","385","658299","0.0-1.0-516.0","0","0","98182","","null","","","null","57","NaN","","","","","","","","","","","","","","",""
"","S2","","html-keyboard-response","386","658555","0.0-1.0-517.0","0","0","98182","","null","","","null","57","","NaN","","","","","","","","","","","","","",""
"","response","","html-keyboard-response","387","659429","0.0-1.0-518.0-0.0","0","0","98182","","873","","","75","57","","","2","57","training","adjacent","BA","2","1","P.jpg","Q.jpg","0","0","1","",""
"","feedback","","html-keyboard-response","388","660438","0.0-1.0-519.0-0.0","0","0","98182","","null","","","null","57","","","","","","","","","","","","","","","",""
"","ITI","","html-keyboard-response","389","661443","0.0-1.0-522.0","0","0","98182","","null","","","null","57","","","","","","","","","","","","","","","NaN",""
"","S1","","html-keyboard-response","390","661698","0.0-1.0-524.0","0","0","98182","","null","","","null","58","","","","","","","","","","","","","","","",""
"","ISI","","html-keyboard-response","391","662203","0.0-1.0-525.0","0","0","98182","","null","","","null","58","NaN","","","","","","","","","","","","","","",""
"","S2","","html-keyboard-response","392","662459","0.0-1.0-526.0","0","0","98182","","null","","","null","58","","NaN","","","","","","","","","","","","","",""
"","response","","html-keyboard-response","393","663147","0.0-1.0-527.0-0.0","0","0","98182","","687","","","75","58","","","2","58","training","adjacent","ED","5","4","M.jpg","R.jpg","0","0","1","",""
"","feedback","","html-keyboard-response","394","664155","0.0-1.0-528.0-0.0","0","0","98182","","null","","","null","58","","","","","","","","","","","","","","","",""
"","ITI","","html-keyboard-response","395","665162","0.0-1.0-531.0","0","0","98182","","null","","","null","58","","","","","","","","","","","","","","","NaN",""
"","S1","","html-keyboard-response","396","665418","0.0-1.0-533.0","0","0","98182","","null","","","null","59","","","","","","","","","","","","","","","",""
"","ISI","","html-keyboard-response","397","665923","0.0-1.0-534.0","0","0","98182","","null","","","null","59","NaN","","","","","","","","","","","","","","",""
"","S2","","html-keyboard-response","398","666200","0.0-1.0-535.0","0","0","98182","","null","","","null","59","","NaN","","","","","","","","","","","","","",""
"","response","","html-keyboard-response","399","667098","0.0-1.0-536.0-0.0","0","0","98182","","893","","","75","59","","","2","59","training","adjacent","FG","6","7","N.jpg","O.jpg","0","1","0","",""
"","feedback","","html-keyboard-response","400","668106","0.0-1.0-537.0-0.0","0","0","98182","","null","","","null","59","","","","","","","","","","","","","","","",""
"","time_out","","html-keyboard-response","401","670115","0.0-1.0-539.0-0.0","0","0","98182","","null","","","null","59","","","","","","","","","","","","","","","",""
"","ITI","","html-keyboard-response","402","671122","0.0-1.0-540.0","0","0","98182","","null","","","null","59","","","","","","","","","","","","","","","NaN",""
"","S1","","html-keyboard-response","403","671398","0.0-1.0-542.0","0","0","98182","","null","","","null","60","","","","","","","","","","","","","","","",""
"","ISI","","html-keyboard-response","404","671905","0.0-1.0-543.0","0","0","98182","","4","","","68","60","d","","","","","","","","","","","","","","",""
"","S2","","html-keyboard-response","405","672164","0.0-1.0-544.0","0","0","98182","","null","","","null","60","","NaN","","","","","","","","","","","","","",""
"","response","","html-keyboard-response","406","673218","0.0-1.0-545.0-0.0","0","0","98182","","1052","","","68","60","","","2","60","training","adjacent","CB","3","2","L.jpg","P.jpg","1","0","0","",""
"","feedback","","html-keyboard-response","407","674226","0.0-1.0-546.0-0.0","0","0","98182","","null","","","null","60","","","","","","","","","","","","","","","",""
"","time_out","","html-keyboard-response","408","676236","0.0-1.0-548.0-0.0","0","0","98182","","null","","","null","60","","","","","","","","","","","","","","","",""
"","ITI","","html-keyboard-response","409","677243","0.0-1.0-549.0","0","0","98182","","null","","","null","60","","","","","","","","","","","","","","","NaN",""
"","S1","","html-keyboard-response","410","677498","0.0-1.0-551.0","0","0","98182","","null","","","null","61","","","","","","","","","","","","","","","",""
"","ISI","","html-keyboard-response","411","678002","0.0-1.0-552.0","0","0","98182","","null","","","null","61","NaN","","","","","","","","","","","","","","",""
"","S2","","html-keyboard-response","412","678169","0.0-1.0-553.0","0","0","98182","","165","","","75","61","","k","2","61","training","adjacent","EF","5","6","M.jpg","N.jpg","0","1","0","",""
"","feedback","","html-keyboard-response","413","679178","0.0-1.0-555.0-0.0","0","0","98182","","null","","","null","61","","","","","","","","","","","","","","","",""
"","time_out","","html-keyboard-response","414","681187","0.0-1.0-557.0-0.0","0","0","98182","","null","","","null","61","","","","","","","","","","","","","","","",""
"","ITI","","html-keyboard-response","415","682200","0.0-1.0-558.0","0","0","98182","","766","","","68","61","","","","","","","","","","","","","","","d",""
"","S1","","html-keyboard-response","416","682458","0.0-1.0-560.0","0","0","98182","","null","","","null","62","","","","","","","","","","","","","","","",""
"","ISI","","html-keyboard-response","417","682962","0.0-1.0-561.0","0","0","98182","","null","","","null","62","NaN","","","","","","","","","","","","","","",""
"","S2","","html-keyboard-response","418","683236","0.0-1.0-562.0","0","0","98182","","null","","","null","62","","NaN","","","","","","","","","","","","","",""
"","response","","html-keyboard-response","419","683253","0.0-1.0-563.0-0.0","0","0","98182","","15","","","68","62","","","2","62","training","adjacent","CD","3","4","L.jpg","R.jpg","1","1","1","",""
"","feedback","","html-keyboard-response","420","684282","0.0-1.0-564.0-0.0","0","0","98182","","null","","","null","62","","","","","","","","","","","","","","","",""
"","ITI","","html-keyboard-response","421","685291","0.0-1.0-567.0","0","0","98182","","null","","","null","62","","","","","","","","","","","","","","","NaN",""
"","S1","","html-keyboard-response","422","685547","0.0-1.0-569.0","0","0","98182","","null","","","null","63","","","","","","","","","","","","","","","",""
"","ISI","","html-keyboard-response","423","686051","0.0-1.0-570.0","0","0","98182","","163","","","68","63","d","","","","","","","","","","","","","","",""
"","S2","","html-keyboard-response","424","686307","0.0-1.0-571.0","0","0","98182","","null","","","null","63","","NaN","","","","","","","","","","","","","",""
"","response","","html-keyboard-response","425","686720","0.0-1.0-572.0-0.0","0","0","98182","","412","","","68","63","","","2","63","training","adjacent","CD","3","4","L.jpg","R.jpg","1","1","1","",""
"","feedback","","html-keyboard-response","426","687722","0.0-1.0-573.0-0.0","0","0","98182","","null","","","null","63","","","","","","","","","","","","","","","",""
"","ITI","","html-keyboard-response","427","688731","0.0-1.0-576.0","0","0","98182","","null","","","null","63","","","","","","","","","","","","","","","NaN",""
"","S1","","html-keyboard-response","428","688986","0.0-1.0-578.0","0","0","98182","","null","","","null","64","","","","","","","","","","","","","","","",""
"","ISI","","html-keyboard-response","429","689490","0.0-1.0-579.0","0","0","98182","","null","","","null","64","NaN","","","","","","","","","","","","","","",""
"","S2","","html-keyboard-response","430","689747","0.0-1.0-580.0","0","0","98182","","null","","","null","64","","NaN","","","","","","","","","","","","","",""
"","response","","html-keyboard-response","431","689773","0.0-1.0-581.0-0.0","0","0","98182","","24","","","68","64","","","2","64","training","adjacent","DC","4","3","R.jpg","L.jpg","1","0","0","",""
"","feedback","","html-keyboard-response","432","690778","0.0-1.0-582.0-0.0","0","0","98182","","null","","","null","64","","","","","","","","","","","","","","","",""
"","time_out","","html-keyboard-response","433","692800","0.0-1.0-584.0-0.0","0","0","98182","","null","","","null","64","","","","","","","","","","","","","","","",""
"","ITI","","html-keyboard-response","434","693802","0.0-1.0-585.0","0","0","98182","","null","","","null","64","","","","","","","","","","","","","","","NaN",""
"","S1","","html-keyboard-response","435","694059","0.0-1.0-587.0","0","0","98182","","null","","","null","65","","","","","","","","","","","","","","","",""
"","ISI","","html-keyboard-response","436","694563","0.0-1.0-588.0","0","0","98182","","null","","","null","65","NaN","","","","","","","","","","","","","","",""
"","S2","","html-keyboard-response","437","694817","0.0-1.0-589.0","0","0","98182","","null","","","null","65","","NaN","","","","","","","","","","","","","",""
"","response","","html-keyboard-response","438","695099","0.0-1.0-590.0-0.0","0","0","98182","","280","","","75","65","","","2","65","training","adjacent","BA","2","1","P.jpg","Q.jpg","0","0","1","",""
"","feedback","","html-keyboard-response","439","696112","0.0-1.0-591.0-0.0","0","0","98182","","null","","","null","65","","","","","","","","","","","","","","","",""
"","ITI","","html-keyboard-response","440","697115","0.0-1.0-594.0","0","0","98182","","null","","","null","65","","","","","","","","","","","","","","","NaN",""
"","S1","","html-keyboard-response","441","697371","0.0-1.0-596.0","0","0","98182","","null","","","null","66","","","","","","","","","","","","","","","",""
"","ISI","","html-keyboard-response","442","697874","0.0-1.0-597.0","0","0","98182","","null","","","null","66","NaN","","","","","","","","","","","","","","",""
"","S2","","html-keyboard-response","443","698131","0.0-1.0-598.0","0","0","98182","","null","","","null","66","","NaN","","","","","","","","","","","","","",""
"","response","","html-keyboard-response","444","699850","0.0-1.0-599.0-0.0","0","0","98182","","1718","","","68","66","","","2","66","training","adjacent","GF","7","6","O.jpg","N.jpg","1","0","0","",""
"","feedback","","html-keyboard-response","445","700858","0.0-1.0-600.0-0.0","0","0","98182","","null","","","null","66","","","","","","","","","","","","","","","",""
"","time_out","","html-keyboard-response","446","702867","0.0-1.0-602.0-0.0","0","0","98182","","null","","","null","66","","","","","","","","","","","","","","","",""
"","ITI","","html-keyboard-response","447","703874","0.0-1.0-603.0","0","0","98182","","null","","","null","66","","","","","","","","","","","","","","","NaN",""
"","S1","","html-keyboard-response","448","704131","0.0-1.0-605.0","0","0","98182","","null","","","null","67","","","","","","","","","","","","","","","",""
"","ISI","","html-keyboard-response","449","704634","0.0-1.0-606.0","0","0","98182","","12","","","75","67","k","","","","","","","","","","","","","","",""
"","S2","","html-keyboard-response","450","704891","0.0-1.0-607.0","0","0","98182","","null","","","null","67","","NaN","","","","","","","","","","","","","",""
"","response","","html-keyboard-response","451","706008","0.0-1.0-608.0-0.0","0","0","98182","","1115","","","68","67","","","2","67","training","adjacent","FE","6","5","N.jpg","M.jpg","1","0","0","",""
"","feedback","","html-keyboard-response","452","707011","0.0-1.0-609.0-0.0","0","0","98182","","null","","","null","67","","","","","","","","","","","","","","","",""
"","time_out","","html-keyboard-response","453","709019","0.0-1.0-611.0-0.0","0","0","98182","","null","","","null","67","","","","","","","","","","","","","","","",""
"","ITI","","html-keyboard-response","454","710027","0.0-1.0-612.0","0","0","98182","","null","","","null","67","","","","","","","","","","","","","","","NaN",""
"","S1","","html-keyboard-response","455","710282","0.0-1.0-614.0","0","0","98182","","null","","","null","68","","","","","","","","","","","","","","","",""
"","ISI","","html-keyboard-response","456","710787","0.0-1.0-615.0","0","0","98182","","null","","","null","68","NaN","","","","","","","","","","","","","","",""
"","S2","","html-keyboard-response","457","711043","0.0-1.0-616.0","0","0","98182","","null","","","null","68","","NaN","","","","","","","","","","","","","",""
"","response","","html-keyboard-response","458","711737","0.0-1.0-617.0-0.0","0","0","98182","","693","","","75","68","","","2","68","training","adjacent","CB","3","2","L.jpg","P.jpg","0","0","1","",""
"","feedback","","html-keyboard-response","459","712746","0.0-1.0-618.0-0.0","0","0","98182","","null","","","null","68","","","","","","","","","","","","","","","",""
"","ITI","","html-keyboard-response","460","713754","0.0-1.0-621.0","0","0","98182","","936","","","68","68","","","","","","","","","","","","","","","d",""
"","S1","","html-keyboard-response","461","714011","0.0-1.0-623.0","0","0","98182","","null","","","null","69","","","","","","","","","","","","","","","",""
"","ISI","","html-keyboard-response","462","714524","0.0-1.0-624.0","0","0","98182","","null","","","null","69","NaN","","","","","","","","","","","","","","",""
"","S2","","html-keyboard-response","463","714779","0.0-1.0-625.0","0","0","98182","","null","","","null","69","","NaN","","","","","","","","","","","","","",""
"","response","","html-keyboard-response","464","715857","0.0-1.0-626.0-0.0","0","0","98182","","1077","","","75","69","","","2","69","training","adjacent","GF","7","6","O.jpg","N.jpg","0","0","1","",""
"","feedback","","html-keyboard-response","465","716866","0.0-1.0-627.0-0.0","0","0","98182","","null","","","null","69","","","","","","","","","","","","","","","",""
"","ITI","","html-keyboard-response","466","717875","0.0-1.0-630.0","0","0","98182","","null","","","null","69","","","","","","","","","","","","","","","NaN",""
"","S1","","html-keyboard-response","467","718130","0.0-1.0-632.0","0","0","98182","","null","","","null","70","","","","","","","","","","","","","","","",""
"","ISI","","html-keyboard-response","468","718633","0.0-1.0-633.0","0","0","98182","","400","","","68","70","d","","","","","","","","","","","","","","",""
"","S2","","html-keyboard-response","469","718892","0.0-1.0-634.0","0","0","98182","","null","","","null","70","","NaN","","","","","","","","","","","","","",""
"","response","","html-keyboard-response","470","719142","0.0-1.0-635.0-0.0","0","0","98182","","246","","","75","70","","","2","70","training","adjacent","DE","4","5","R.jpg","M.jpg","0","1","0","",""
"","feedback","","html-keyboard-response","471","720147","0.0-1.0-636.0-0.0","0","0","98182","","null","","","null","70","","","","","","","","","","","","","","","",""
"","time_out","","html-keyboard-response","472","722155","0.0-1.0-638.0-0.0","0","0","98182","","null","","","null","70","","","","","","","","","","","","","","","",""
"","ITI","","html-keyboard-response","473","723163","0.0-1.0-639.0","0","0","98182","","null","","","null","70","","","","","","","","","","","","","","","NaN",""
"","S1","","html-keyboard-response","474","723418","0.0-1.0-641.0","0","0","98182","","null","","","null","71","","","","","","","","","","","","","","","",""
"","ISI","","html-keyboard-response","475","723922","0.0-1.0-642.0","0","0","98182","","null","","","null","71","NaN","","","","","","","","","","","","","","",""
"","S2","","html-keyboard-response","476","724178","0.0-1.0-643.0","0","0","98182","","null","","","null","71","","NaN","","","","","","","","","","","","","",""
"","response","","html-keyboard-response","477","725931","0.0-1.0-644.0-0.0","0","0","98182","","null","","","null","71","","","2","71","training","adjacent","DC","4","3","R.jpg","L.jpg","NaN","0","0","",""
"","too_slow_prompt","","html-keyboard-response","478","726938","0.0-1.0-646.0-0.0","1","0","98182","","null","","","null","","","","","","","","","","","","","","","","",""
"","time_out","","html-keyboard-response","479","728946","0.0-1.0-647.0-0.0","0","0","98182","","null","","","null","71","","","","","","","","","","","","","","","",""
"","ITI","","html-keyboard-response","480","729953","0.0-1.0-648.0","0","0","98182","","901","","","68","71","","","","","","","","","","","","","","","d",""
"","S1","","html-keyboard-response","481","730211","0.0-1.0-650.0","0","0","98182","","null","","","null","72","","","","","","","","","","","","","","","",""
"","ISI","","html-keyboard-response","482","730714","0.0-1.0-651.0","0","0","98182","","8","","","68","72","d","","","","","","","","","","","","","","",""
"","S2","","html-keyboard-response","483","730970","0.0-1.0-652.0","0","0","98182","","null","","","null","72","","NaN","","","","","","","","","","","","","",""
"","response","","html-keyboard-response","484","731629","0.0-1.0-653.0-0.0","0","0","98182","","658","","","75","72","","","2","72","training","adjacent","BA","2","1","P.jpg","Q.jpg","0","0","1","",""
"","feedback","","html-keyboard-response","485","732634","0.0-1.0-654.0-0.0","0","0","98182","","null","","","null","72","","","","","","","","","","","","","","","",""
"","ITI","","html-keyboard-response","486","733643","0.0-1.0-657.0","0","0","98182","","null","","","null","72","","","","","","","","","","","","","","","NaN",""
"","S1","","html-keyboard-response","487","733899","0.0-1.0-659.0","0","0","98182","","null","","","null","73","","","","","","","","","","","","","","","",""
"","ISI","","html-keyboard-response","488","734402","0.0-1.0-660.0","0","0","98182","","null","","","null","73","NaN","","","","","","","","","","","","","","",""
"","S2","","html-keyboard-response","489","734473","0.0-1.0-661.0","0","0","98182","","70","","","68","73","","d","2","73","training","adjacent","CD","3","4","L.jpg","R.jpg","1","1","1","",""
"","feedback","","html-keyboard-response","490","735490","0.0-1.0-663.0-0.0","0","0","98182","","null","","","null","73","","","","","","","","","","","","","","","",""
"","ITI","","html-keyboard-response","491","736499","0.0-1.0-666.0","0","0","98182","","null","","","null","73","","","","","","","","","","","","","","","NaN",""
"","S1","","html-keyboard-response","492","736754","0.0-1.0-668.0","0","0","98182","","null","","","null","74","","","","","","","","","","","","","","","",""
"","ISI","","html-keyboard-response","493","737259","0.0-1.0-669.0","0","0","98182","","459","","","75","74","k","","","","","","","","","","","","","","",""
"","S2","","html-keyboard-response","494","737513","0.0-1.0-670.0","0","0","98182","","null","","","null","74","","NaN","","","","","","","","","","","","","",""
"","response","","html-keyboard-response","495","738161","0.0-1.0-671.0-0.0","0","0","98182","","646","","","68","74","","","2","74","training","adjacent","CB","3","2","L.jpg","P.jpg","1","0","0","",""
"","feedback","","html-keyboard-response","496","739173","0.0-1.0-672.0-0.0","0","0","98182","","null","","","null","74","","","","","","","","","","","","","","","",""
"","time_out","","html-keyboard-response","497","741184","0.0-1.0-674.0-0.0","0","0","98182","","null","","","null","74","","","","","","","","","","","","","","","",""
"","ITI","","html-keyboard-response","498","742187","0.0-1.0-675.0","0","0","98182","","403","","","75","74","","","","","","","","","","","","","","","k",""
"","S1","","html-keyboard-response","499","742444","0.0-1.0-677.0","0","0","98182","","null","","","null","75","","","","","","","","","","","","","","","",""
"","ISI","","html-keyboard-response","500","742947","0.0-1.0-678.0","0","0","98182","","null","","","null","75","NaN","","","","","","","","","","","","","","",""
"","S2","","html-keyboard-response","501","743203","0.0-1.0-679.0","0","0","98182","","null","","","null","75","","NaN","","","","","","","","","","","","","",""
"","response","","html-keyboard-response","502","744954","0.0-1.0-680.0-0.0","0","0","98182","","null","","","null","75","","","2","75","training","adjacent","FE","6","5","N.jpg","M.jpg","NaN","0","0","",""
"","too_slow_prompt","","html-keyboard-response","503","745994","0.0-1.0-682.0-0.0","1","0","98182","","null","","","null","","","","","","","","","","","","","","","","",""
"","time_out","","html-keyboard-response","504","748003","0.0-1.0-683.0-0.0","0","0","98182","","null","","","null","75","","","","","","","","","","","","","","","",""
"","ITI","","html-keyboard-response","505","749010","0.0-1.0-684.0","0","0","98182","","358","","","75","75","","","","","","","","","","","","","","","k",""
"","S1","","html-keyboard-response","506","749267","0.0-1.0-686.0","0","0","98182","","null","","","null","76","","","","","","","","","","","","","","","",""
"","ISI","","html-keyboard-response","507","749771","0.0-1.0-687.0","0","0","98182","","null","","","null","76","NaN","","","","","","","","","","","","","","",""
"","S2","","html-keyboard-response","508","750027","0.0-1.0-688.0","0","0","98182","","null","","","null","76","","NaN","","","","","","","","","","","","","",""
"","response","","html-keyboard-response","509","751787","0.0-1.0-689.0-0.0","0","0","98182","","null","","","null","76","","","2","76","training","adjacent","ED","5","4","M.jpg","R.jpg","NaN","0","0","",""
"","too_slow_prompt","","html-keyboard-response","510","752795","0.0-1.0-691.0-0.0","1","0","98182","","null","","","null","","","","","","","","","","","","","","","","",""
"","time_out","","html-keyboard-response","511","754802","0.0-1.0-692.0-0.0","0","0","98182","","null","","","null","76","","","","","","","","","","","","","","","",""
"","ITI","","html-keyboard-response","512","755839","0.0-1.0-693.0","0","0","98182","","null","","","null","76","","","","","","","","","","","","","","","NaN",""
"","S1","","html-keyboard-response","513","756098","0.0-1.0-695.0","0","0","98182","","null","","","null","77","","","","","","","","","","","","","","","",""
"","ISI","","html-keyboard-response","514","756602","0.0-1.0-696.0","0","0","98182","","null","","","null","77","NaN","","","","","","","","","","","","","","",""
"","S2","","html-keyboard-response","515","756609","0.0-1.0-697.0","0","0","98182","","6","","","75","77","","k","2","77","training","adjacent","FG","6","7","N.jpg","O.jpg","0","1","0","",""
"","feedback","","html-keyboard-response","516","757618","0.0-1.0-699.0-0.0","0","0","98182","","null","","","null","77","","","","","","","","","","","","","","","",""
"","time_out","","html-keyboard-response","517","759626","0.0-1.0-701.0-0.0","0","0","98182","","null","","","null","77","","","","","","","","","","","","","","","",""
"","ITI","","html-keyboard-response","518","760634","0.0-1.0-702.0","0","0","98182","","404","","","75","77","","","","","","","","","","","","","","","k",""
"","S1","","html-keyboard-response","519","760890","0.0-1.0-704.0","0","0","98182","","null","","","null","78","","","","","","","","","","","","","","","",""
"","ISI","","html-keyboard-response","520","761393","0.0-1.0-705.0","0","0","98182","","null","","","null","78","NaN","","","","","","","","","","","","","","",""
"","S2","","html-keyboard-response","521","761653","0.0-1.0-706.0","0","0","98182","","null","","","null","78","","NaN","","","","","","","","","","","","","",""
"","response","","html-keyboard-response","522","762939","0.0-1.0-707.0-0.0","0","0","98182","","1285","","","68","78","","","2","78","training","adjacent","FE","6","5","N.jpg","M.jpg","1","0","0","",""
"","feedback","","html-keyboard-response","523","763947","0.0-1.0-708.0-0.0","0","0","98182","","null","","","null","78","","","","","","","","","","","","","","","",""
"","time_out","","html-keyboard-response","524","765955","0.0-1.0-710.0-0.0","0","0","98182","","null","","","null","78","","","","","","","","","","","","","","","",""
"","ITI","","html-keyboard-response","525","766961","0.0-1.0-711.0","0","0","98182","","740","","","68","78","","","","","","","","","","","","","","","d",""
"","S1","","html-keyboard-response","526","767219","0.0-1.0-713.0","0","0","98182","","null","","","null","79","","","","","","","","","","","","","","","",""
"","ISI","","html-keyboard-response","527","767723","0.0-1.0-714.0","0","0","98182","","null","","","null","79","NaN","","","","","","","","","","","","","","",""
"","S2","","html-keyboard-response","528","767909","0.0-1.0-715.0","0","0","98182","","185","","","75","79","","k","2","79","training","adjacent","AB","1","2","Q.jpg","P.jpg","0","1","0","",""
"","feedback","","html-keyboard-response","529","768915","0.0-1.0-717.0-0.0","0","0","98182","","null","","","null","79","","","","","","","","","","","","","","","",""
"","time_out","","html-keyboard-response","530","770937","0.0-1.0-719.0-0.0","0","0","98182","","null","","","null","79","","","","","","","","","","","","","","","",""
"","ITI","","html-keyboard-response","531","771938","0.0-1.0-720.0","0","0","98182","","null","","","null","79","","","","","","","","","","","","","","","NaN",""
"","S1","","html-keyboard-response","532","772194","0.0-1.0-722.0","0","0","98182","","null","","","null","80","","","","","","","","","","","","","","","",""
"","ISI","","html-keyboard-response","533","772697","0.0-1.0-723.0","0","0","98182","","null","","","null","80","NaN","","","","","","","","","","","","","","",""
"","S2","","html-keyboard-response","534","772895","0.0-1.0-724.0","0","0","98182","","196","","","68","80","","d","2","80","training","adjacent","AB","1","2","Q.jpg","P.jpg","1","1","1","",""
"","feedback","","html-keyboard-response","535","773899","0.0-1.0-726.0-0.0","0","0","98182","","null","","","null","80","","","","","","","","","","","","","","","",""
"","ITI","","html-keyboard-response","536","774910","0.0-1.0-729.0","0","0","98182","","null","","","null","80","","","","","","","","","","","","","","","NaN",""
"","S1","","html-keyboard-response","537","775197","0.0-1.0-731.0","0","0","98182","","null","","","null","81","","","","","","","","","","","","","","","",""
"","ISI","","html-keyboard-response","538","775705","0.0-1.0-732.0","0","0","98182","","420","","","75","81","k","","","","","","","","","","","","","","",""
"","S2","","html-keyboard-response","539","775966","0.0-1.0-733.0","0","0","98182","","null","","","null","81","","NaN","","","","","","","","","","","","","",""
"","response","","html-keyboard-response","540","776652","0.0-1.0-734.0-0.0","0","0","98182","","684","","","75","81","","","2","81","training","adjacent","GF","7","6","O.jpg","N.jpg","0","0","1","",""
"","feedback","","html-keyboard-response","541","777659","0.0-1.0-735.0-0.0","0","0","98182","","null","","","null","81","","","","","","","","","","","","","","","",""
"","ITI","","html-keyboard-response","542","778666","0.0-1.0-738.0","0","0","98182","","null","","","null","81","","","","","","","","","","","","","","","NaN",""
"","S1","","html-keyboard-response","543","778927","0.0-1.0-740.0","0","0","98182","","null","","","null","82","","","","","","","","","","","","","","","",""
"","ISI","","html-keyboard-response","544","779435","0.0-1.0-741.0","0","0","98182","","null","","","null","82","NaN","","","","","","","","","","","","","","",""
"","S2","","html-keyboard-response","545","779690","0.0-1.0-742.0","0","0","98182","","null","","","null","82","","NaN","","","","","","","","","","","","","",""
"","response","","html-keyboard-response","546","779848","0.0-1.0-743.0-0.0","0","0","98182","","156","","","68","82","","","2","82","training","adjacent","DC","4","3","R.jpg","L.jpg","1","0","0","",""
"","feedback","","html-keyboard-response","547","780850","0.0-1.0-744.0-0.0","0","0","98182","","null","","","null","82","","","","","","","","","","","","","","","",""
"","time_out","","html-keyboard-response","548","782858","0.0-1.0-746.0-0.0","0","0","98182","","null","","","null","82","","","","","","","","","","","","","","","",""
"","ITI","","html-keyboard-response","549","783867","0.0-1.0-747.0","0","0","98182","","null","","","null","82","","","","","","","","","","","","","","","NaN",""
"","S1","","html-keyboard-response","550","784123","0.0-1.0-749.0","0","0","98182","","null","","","null","83","","","","","","","","","","","","","","","",""
"","ISI","","html-keyboard-response","551","784627","0.0-1.0-750.0","0","0","98182","","283","","","68","83","d","","","","","","","","","","","","","","",""
"","S2","","html-keyboard-response","552","784882","0.0-1.0-751.0","0","0","98182","","null","","","null","83","","NaN","","","","","","","","","","","","","",""
"","response","","html-keyboard-response","553","785458","0.0-1.0-752.0-0.0","0","0","98182","","575","","","68","83","","","2","83","training","adjacent","BC","2","3","P.jpg","L.jpg","1","1","1","",""
"","feedback","","html-keyboard-response","554","786466","0.0-1.0-753.0-0.0","0","0","98182","","null","","","null","83","","","","","","","","","","","","","","","",""
"","ITI","","html-keyboard-response","555","787475","0.0-1.0-756.0","0","0","98182","","null","","","null","83","","","","","","","","","","","","","","","NaN",""
"","S1","","html-keyboard-response","556","787731","0.0-1.0-758.0","0","0","98182","","null","","","null","84","","","","","","","","","","","","","","","",""
"","ISI","","html-keyboard-response","557","788235","0.0-1.0-759.0","0","0","98182","","null","","","null","84","NaN","","","","","","","","","","","","","","",""
"","S2","","html-keyboard-response","558","788491","0.0-1.0-760.0","0","0","98182","","null","","","null","84","","NaN","","","","","","","","","","","","","",""
"","response","","html-keyboard-response","559","789195","0.0-1.0-761.0-0.0","0","0","98182","","703","","","75","84","","","2","84","training","adjacent","EF","5","6","M.jpg","N.jpg","0","1","0","",""
"","feedback","","html-keyboard-response","560","790204","0.0-1.0-762.0-0.0","0","0","98182","","null","","","null","84","","","","","","","","","","","","","","","",""
"","time_out","","html-keyboard-response","561","792212","0.0-1.0-764.0-0.0","0","0","98182","","null","","","null","84","","","","","","","","","","","","","","","",""
"","ITI","","html-keyboard-response","562","793218","0.0-1.0-765.0","0","0","98182","","null","","","null","84","","","","","","","","","","","","","","","NaN",""
"","S1","","html-keyboard-response","563","793475","0.0-1.0-767.0","0","0","98182","","null","","","null","85","","","","","","","","","","","","","","","",""
"","ISI","","html-keyboard-response","564","793979","0.0-1.0-768.0","0","0","98182","","null","","","null","85","NaN","","","","","","","","","","","","","","",""
"","S2","","html-keyboard-response","565","794236","0.0-1.0-769.0","0","0","98182","","null","","","null","85","","NaN","","","","","","","","","","","","","",""
"","response","","html-keyboard-response","566","795987","0.0-1.0-770.0-0.0","0","0","98182","","null","","","null","85","","","2","85","training","adjacent","EF","5","6","M.jpg","N.jpg","NaN","1","0","",""
"","too_slow_prompt","","html-keyboard-response","567","796995","0.0-1.0-772.0-0.0","1","0","98182","","null","","","null","","","","","","","","","","","","","","","","",""
"","time_out","","html-keyboard-response","568","799004","0.0-1.0-773.0-0.0","0","0","98182","","null","","","null","85","","","","","","","","","","","","","","","",""
"","ITI","","html-keyboard-response","569","800012","0.0-1.0-774.0","0","0","98182","","null","","","null","85","","","","","","","","","","","","","","","NaN",""
"","S1","","html-keyboard-response","570","800272","0.0-1.0-776.0","0","0","98182","","null","","","null","86","","","","","","","","","","","","","","","",""
"","ISI","","html-keyboard-response","571","800779","0.0-1.0-777.0","0","0","98182","","null","","","null","86","NaN","","","","","","","","","","","","","","",""
"","S2","","html-keyboard-response","572","801035","0.0-1.0-778.0","0","0","98182","","null","","","null","86","","NaN","","","","","","","","","","","","","",""
"","response","","html-keyboard-response","573","801159","0.0-1.0-779.0-0.0","0","0","98182","","123","","","75","86","","","2","86","training","adjacent","BC","2","3","P.jpg","L.jpg","0","1","0","",""
"","feedback","","html-keyboard-response","574","802165","0.0-1.0-780.0-0.0","0","0","98182","","null","","","null","86","","","","","","","","","","","","","","","",""
"","time_out","","html-keyboard-response","575","804171","0.0-1.0-782.0-0.0","0","0","98182","","null","","","null","86","","","","","","","","","","","","","","","",""
"","ITI","","html-keyboard-response","576","805179","0.0-1.0-783.0","0","0","98182","","null","","","null","86","","","","","","","","","","","","","","","NaN",""
"","S1","","html-keyboard-response","577","805437","0.0-1.0-785.0","0","0","98182","","null","","","null","87","","","","","","","","","","","","","","","",""
