"success","ttype","start_time","trial_type","trial_index","time_elapsed","internal_node_id","warning","missed_checkup","PID","view_history","rt","responses","repeat_instructions","key_press","index","keypress_isi","keypress_S2","block","trial_num","phase","group_type","pair_type","S1_stim","S2_stim","S1_img","S2_img","S1_chosen","S1_higher","accuracy","keypress_iti","total_bonus_tally"
"true","full_screen","d08012022hr1351","fullscreen","0","15107","0.0-0.0","0","0","46750","","","","","","","","","","","","","","","","","","","","","",""
"","instructions","","instructions","1","69909","0.0-1.0-0.0-0.0","0","0","46750","[{""page_index"":0,""viewing_time"":12863},{""page_index"":1,""viewing_time"":23784},{""page_index"":2,""viewing_time"":15855},{""page_index"":3,""viewing_time"":2296}]","54799","","","","","","","","","","","","","","","","","","","",""
"","comprehension_check","","survey-multi-choice","2","94365","0.0-1.0-0.0-1.0","0","0","46750","","24453","{""Q0"":""True"",""Q1"":""D"",""Q2"":""When you see the prompt 'MAKE A CHOICE' after the second image was presented"",""Q3"":""Green mark"",""Q4"":""either D or K""}","0","","","","","","","","","","","","","","","","","",""
"","start_exp","","html-keyboard-response","3","96248","0.0-1.0-1.0","0","0","46750","","1878","","","32","","","","","","","","","","","","","","","","",""
"","S1","","html-keyboard-response","4","96503","0.0-1.0-2.0","0","0","46750","","null","","","null","0","","","","","","","","","","","","","","","",""
"","ISI","","html-keyboard-response","5","98506","0.0-1.0-3.0","0","0","46750","","null","","","null","0","NaN","","","","","","","","","","","","","","",""
"","S2","","html-keyboard-response","6","98761","0.0-1.0-4.0","0","0","46750","","null","","","null","0","","NaN","","","","","","","","","","","","","",""
"","response","","html-keyboard-response","7","99231","0.0-1.0-5.0","0","0","46750","","465","","","75","0","","","1","0","training","adjacent","GF","7","6","R.jpg","O.jpg","0","0","1","",""
"","feedback","","html-keyboard-response","8","100236","0.0-1.0-6.0-0.0","0","0","46750","","null","","","null","0","","","","","","","","","","","","","","","",""
"","ITI","","html-keyboard-response","9","101240","0.0-1.0-9.0","0","0","46750","","null","","","null","0","","","","","","","","","","","","","","","NaN",""
"","S1","","html-keyboard-response","10","101493","0.0-1.0-11.0","0","0","46750","","null","","","null","1","","","","","","","","","","","","","","","",""
"","ISI","","html-keyboard-response","11","103495","0.0-1.0-12.0","0","0","46750","","null","","","null","1","NaN","","","","","","","","","","","","","","",""
"","S2","","html-keyboard-response","12","103748","0.0-1.0-13.0","0","0","46750","","null","","","null","1","","NaN","","","","","","","","","","","","","",""
"","response","","html-keyboard-response","13","104159","0.0-1.0-14.0","0","0","46750","","407","","","68","1","","","1","1","training","adjacent","AB","1","2","M.jpg","N.jpg","1","1","1","",""
"","feedback","","html-keyboard-response","14","105164","0.0-1.0-15.0-0.0","0","0","46750","","null","","","null","1","","","","","","","","","","","","","","","",""
"","ITI","","html-keyboard-response","15","106168","0.0-1.0-18.0","0","0","46750","","null","","","null","1","","","","","","","","","","","","","","","NaN",""
"","S1","","html-keyboard-response","16","106422","0.0-1.0-20.0","0","0","46750","","null","","","null","2","","","","","","","","","","","","","","","",""
"","ISI","","html-keyboard-response","17","108426","0.0-1.0-21.0","0","0","46750","","null","","","null","2","NaN","","","","","","","","","","","","","","",""
"","S2","","html-keyboard-response","18","108681","0.0-1.0-22.0","0","0","46750","","null","","","null","2","","NaN","","","","","","","","","","","","","",""
"","response","","html-keyboard-response","19","109343","0.0-1.0-23.0","0","0","46750","","658","","","75","2","","","1","2","training","adjacent","BA","2","1","N.jpg","M.jpg","0","0","1","",""
"","feedback","","html-keyboard-response","20","110347","0.0-1.0-24.0-0.0","0","0","46750","","null","","","null","2","","","","","","","","","","","","","","","",""
"","ITI","","html-keyboard-response","21","111351","0.0-1.0-27.0","0","0","46750","","null","","","null","2","","","","","","","","","","","","","","","NaN",""
"","S1","","html-keyboard-response","22","111605","0.0-1.0-29.0","0","0","46750","","null","","","null","3","","","","","","","","","","","","","","","",""
"","ISI","","html-keyboard-response","23","113608","0.0-1.0-30.0","0","0","46750","","null","","","null","3","NaN","","","","","","","","","","","","","","",""
"","S2","","html-keyboard-response","24","113864","0.0-1.0-31.0","0","0","46750","","null","","","null","3","","NaN","","","","","","","","","","","","","",""
"","response","","html-keyboard-response","25","114215","0.0-1.0-32.0","0","0","46750","","347","","","68","3","","","1","3","training","adjacent","CB","3","2","L.jpg","N.jpg","1","0","0","",""
"","feedback","","html-keyboard-response","26","115219","0.0-1.0-33.0-0.0","0","0","46750","","null","","","null","3","","","","","","","","","","","","","","","",""
"","time_out","","html-keyboard-response","27","117223","0.0-1.0-35.0-0.0","0","0","46750","","null","","","null","3","","","","","","","","","","","","","","","",""
"","ITI","","html-keyboard-response","28","118228","0.0-1.0-36.0","0","0","46750","","null","","","null","3","","","","","","","","","","","","","","","NaN",""
"","S1","","html-keyboard-response","29","118481","0.0-1.0-38.0","0","0","46750","","null","","","null","4","","","","","","","","","","","","","","","",""
"","ISI","","html-keyboard-response","30","120486","0.0-1.0-39.0","0","0","46750","","null","","","null","4","NaN","","","","","","","","","","","","","","",""
"","S2","","html-keyboard-response","31","120740","0.0-1.0-40.0","0","0","46750","","null","","","null","4","","NaN","","","","","","","","","","","","","",""
"","response","","html-keyboard-response","32","121183","0.0-1.0-41.0","0","0","46750","","439","","","75","4","","","1","4","training","adjacent","GF","7","6","R.jpg","O.jpg","0","0","1","",""
"","feedback","","html-keyboard-response","33","122186","0.0-1.0-42.0-0.0","0","0","46750","","null","","","null","4","","","","","","","","","","","","","","","",""
"","ITI","","html-keyboard-response","34","123190","0.0-1.0-45.0","0","0","46750","","null","","","null","4","","","","","","","","","","","","","","","NaN",""
"","S1","","html-keyboard-response","35","123458","0.0-1.0-47.0","0","0","46750","","null","","","null","5","","","","","","","","","","","","","","","",""
"","ISI","","html-keyboard-response","36","125462","0.0-1.0-48.0","0","0","46750","","null","","","null","5","NaN","","","","","","","","","","","","","","",""
"","S2","","html-keyboard-response","37","125716","0.0-1.0-49.0","0","0","46750","","null","","","null","5","","NaN","","","","","","","","","","","","","",""
"","response","","html-keyboard-response","38","126071","0.0-1.0-50.0","0","0","46750","","351","","","75","5","","","1","5","training","adjacent","CB","3","2","L.jpg","N.jpg","0","0","1","",""
"","feedback","","html-keyboard-response","39","127075","0.0-1.0-51.0-0.0","0","0","46750","","null","","","null","5","","","","","","","","","","","","","","","",""
"","ITI","","html-keyboard-response","40","128079","0.0-1.0-54.0","0","0","46750","","null","","","null","5","","","","","","","","","","","","","","","NaN",""
"","S1","","html-keyboard-response","41","128347","0.0-1.0-56.0","0","0","46750","","null","","","null","6","","","","","","","","","","","","","","","",""
"","ISI","","html-keyboard-response","42","130350","0.0-1.0-57.0","0","0","46750","","null","","","null","6","NaN","","","","","","","","","","","","","","",""
"","S2","","html-keyboard-response","43","130605","0.0-1.0-58.0","0","0","46750","","null","","","null","6","","NaN","","","","","","","","","","","","","",""
"","response","","html-keyboard-response","44","130943","0.0-1.0-59.0","0","0","46750","","334","","","68","6","","","1","6","training","adjacent","FG","6","7","O.jpg","R.jpg","1","1","1","",""
"","feedback","","html-keyboard-response","45","131947","0.0-1.0-60.0-0.0","0","0","46750","","null","","","null","6","","","","","","","","","","","","","","","",""
"","ITI","","html-keyboard-response","46","132952","0.0-1.0-63.0","0","0","46750","","null","","","null","6","","","","","","","","","","","","","","","NaN",""
"","S1","","html-keyboard-response","47","133207","0.0-1.0-65.0","0","0","46750","","null","","","null","7","","","","","","","","","","","","","","","",""
"","ISI","","html-keyboard-response","48","135210","0.0-1.0-66.0","0","0","46750","","null","","","null","7","NaN","","","","","","","","","","","","","","",""
"","S2","","html-keyboard-response","49","135465","0.0-1.0-67.0","0","0","46750","","null","","","null","7","","NaN","","","","","","","","","","","","","",""
"","response","","html-keyboard-response","50","135687","0.0-1.0-68.0","0","0","46750","","218","","","68","7","","","1","7","training","adjacent","AB","1","2","M.jpg","N.jpg","1","1","1","",""
"","feedback","","html-keyboard-response","51","136692","0.0-1.0-69.0-0.0","0","0","46750","","null","","","null","7","","","","","","","","","","","","","","","",""
"","ITI","","html-keyboard-response","52","137696","0.0-1.0-72.0","0","0","46750","","null","","","null","7","","","","","","","","","","","","","","","NaN",""
"","S1","","html-keyboard-response","53","137950","0.0-1.0-74.0","0","0","46750","","null","","","null","8","","","","","","","","","","","","","","","",""
"","ISI","","html-keyboard-response","54","139954","0.0-1.0-75.0","0","0","46750","","null","","","null","8","NaN","","","","","","","","","","","","","","",""
"","S2","","html-keyboard-response","55","140208","0.0-1.0-76.0","0","0","46750","","null","","","null","8","","NaN","","","","","","","","","","","","","",""
"","response","","html-keyboard-response","56","140487","0.0-1.0-77.0","0","0","46750","","275","","","75","8","","","1","8","training","adjacent","CD","3","4","L.jpg","P.jpg","0","1","0","",""
"","feedback","","html-keyboard-response","57","141490","0.0-1.0-78.0-0.0","0","0","46750","","null","","","null","8","","","","","","","","","","","","","","","",""
"","time_out","","html-keyboard-response","58","143494","0.0-1.0-80.0-0.0","0","0","46750","","null","","","null","8","","","","","","","","","","","","","","","",""
"","ITI","","html-keyboard-response","59","144497","0.0-1.0-81.0","0","0","46750","","null","","","null","8","","","","","","","","","","","","","","","NaN",""
"","S1","","html-keyboard-response","60","144751","0.0-1.0-83.0","0","0","46750","","null","","","null","9","","","","","","","","","","","","","","","",""
"","ISI","","html-keyboard-response","61","146755","0.0-1.0-84.0","0","0","46750","","null","","","null","9","NaN","","","","","","","","","","","","","","",""
"","S2","","html-keyboard-response","62","147010","0.0-1.0-85.0","0","0","46750","","null","","","null","9","","NaN","","","","","","","","","","","","","",""
"","response","","html-keyboard-response","63","147215","0.0-1.0-86.0","0","0","46750","","200","","","68","9","","","1","9","training","adjacent","BC","2","3","N.jpg","L.jpg","1","1","1","",""
"","feedback","","html-keyboard-response","64","148219","0.0-1.0-87.0-0.0","0","0","46750","","null","","","null","9","","","","","","","","","","","","","","","",""
"","ITI","","html-keyboard-response","65","149223","0.0-1.0-90.0","0","0","46750","","null","","","null","9","","","","","","","","","","","","","","","NaN",""
"","S1","","html-keyboard-response","66","149477","0.0-1.0-92.0","0","0","46750","","null","","","null","10","","","","","","","","","","","","","","","",""
"","ISI","","html-keyboard-response","67","151481","0.0-1.0-93.0","0","0","46750","","null","","","null","10","NaN","","","","","","","","","","","","","","",""
"","S2","","html-keyboard-response","68","151735","0.0-1.0-94.0","0","0","46750","","null","","","null","10","","NaN","","","","","","","","","","","","","",""
"","response","","html-keyboard-response","69","152295","0.0-1.0-95.0","0","0","46750","","556","","","68","10","","","1","10","training","adjacent","GF","7","6","R.jpg","O.jpg","1","0","0","",""
"","feedback","","html-keyboard-response","70","153299","0.0-1.0-96.0-0.0","0","0","46750","","null","","","null","10","","","","","","","","","","","","","","","",""
"","time_out","","html-keyboard-response","71","155303","0.0-1.0-98.0-0.0","0","0","46750","","null","","","null","10","","","","","","","","","","","","","","","",""
"","ITI","","html-keyboard-response","72","156307","0.0-1.0-99.0","0","0","46750","","null","","","null","10","","","","","","","","","","","","","","","NaN",""
"","S1","","html-keyboard-response","73","156561","0.0-1.0-101.0","0","0","46750","","null","","","null","11","","","","","","","","","","","","","","","",""
"","ISI","","html-keyboard-response","74","158566","0.0-1.0-102.0","0","0","46750","","null","","","null","11","NaN","","","","","","","","","","","","","","",""
"","S2","","html-keyboard-response","75","158820","0.0-1.0-103.0","0","0","46750","","null","","","null","11","","NaN","","","","","","","","","","","","","",""
"","response","","html-keyboard-response","76","159206","0.0-1.0-104.0","0","0","46750","","383","","","68","11","","","1","11","training","adjacent","CD","3","4","L.jpg","P.jpg","1","1","1","",""
"","feedback","","html-keyboard-response","77","160211","0.0-1.0-105.0-0.0","0","0","46750","","null","","","null","11","","","","","","","","","","","","","","","",""
"","ITI","","html-keyboard-response","78","161216","0.0-1.0-108.0","0","0","46750","","null","","","null","11","","","","","","","","","","","","","","","NaN",""
"","S1","","html-keyboard-response","79","161468","0.0-1.0-110.0","0","0","46750","","null","","","null","12","","","","","","","","","","","","","","","",""
"","ISI","","html-keyboard-response","80","163471","0.0-1.0-111.0","0","0","46750","","null","","","null","12","NaN","","","","","","","","","","","","","","",""
"","S2","","html-keyboard-response","81","163724","0.0-1.0-112.0","0","0","46750","","null","","","null","12","","NaN","","","","","","","","","","","","","",""
"","response","","html-keyboard-response","82","164087","0.0-1.0-113.0","0","0","46750","","359","","","75","12","","","1","12","training","adjacent","CD","3","4","L.jpg","P.jpg","0","1","0","",""
"","feedback","","html-keyboard-response","83","165091","0.0-1.0-114.0-0.0","0","0","46750","","null","","","null","12","","","","","","","","","","","","","","","",""
"","time_out","","html-keyboard-response","84","167095","0.0-1.0-116.0-0.0","0","0","46750","","null","","","null","12","","","","","","","","","","","","","","","",""
"","ITI","","html-keyboard-response","85","168099","0.0-1.0-117.0","0","0","46750","","null","","","null","12","","","","","","","","","","","","","","","NaN",""
"","S1","","html-keyboard-response","86","168354","0.0-1.0-119.0","0","0","46750","","null","","","null","13","","","","","","","","","","","","","","","",""
"","ISI","","html-keyboard-response","87","170357","0.0-1.0-120.0","0","0","46750","","null","","","null","13","NaN","","","","","","","","","","","","","","",""
"","S2","","html-keyboard-response","88","170614","0.0-1.0-121.0","0","0","46750","","null","","","null","13","","NaN","","","","","","","","","","","","","",""
"","response","","html-keyboard-response","89","171334","0.0-1.0-122.0","0","0","46750","","717","","","75","13","","","1","13","training","adjacent","DE","4","5","P.jpg","Q.jpg","0","1","0","",""
"","feedback","","html-keyboard-response","90","172338","0.0-1.0-123.0-0.0","0","0","46750","","null","","","null","13","","","","","","","","","","","","","","","",""
"","time_out","","html-keyboard-response","91","174342","0.0-1.0-125.0-0.0","0","0","46750","","null","","","null","13","","","","","","","","","","","","","","","",""
"","ITI","","html-keyboard-response","92","175346","0.0-1.0-126.0","0","0","46750","","null","","","null","13","","","","","","","","","","","","","","","NaN",""
"","S1","","html-keyboard-response","93","175600","0.0-1.0-128.0","0","0","46750","","null","","","null","14","","","","","","","","","","","","","","","",""
"","ISI","","html-keyboard-response","94","177604","0.0-1.0-129.0","0","0","46750","","null","","","null","14","NaN","","","","","","","","","","","","","","",""
"","S2","","html-keyboard-response","95","177858","0.0-1.0-130.0","0","0","46750","","null","","","null","14","","NaN","","","","","","","","","","","","","",""
"","response","","html-keyboard-response","96","178343","0.0-1.0-131.0","0","0","46750","","481","","","75","14","","","1","14","training","adjacent","BA","2","1","N.jpg","M.jpg","0","0","1","",""
"","feedback","","html-keyboard-response","97","179347","0.0-1.0-132.0-0.0","0","0","46750","","null","","","null","14","","","","","","","","","","","","","","","",""
"","ITI","","html-keyboard-response","98","180351","0.0-1.0-135.0","0","0","46750","","null","","","null","14","","","","","","","","","","","","","","","NaN",""
"","S1","","html-keyboard-response","99","180606","0.0-1.0-137.0","0","0","46750","","null","","","null","15","","","","","","","","","","","","","","","",""
"","ISI","","html-keyboard-response","100","182609","0.0-1.0-138.0","0","0","46750","","null","","","null","15","NaN","","","","","","","","","","","","","","",""
"","S2","","html-keyboard-response","101","182863","0.0-1.0-139.0","0","0","46750","","null","","","null","15","","NaN","","","","","","","","","","","","","",""
"","response","","html-keyboard-response","102","183334","0.0-1.0-140.0","0","0","46750","","469","","","75","15","","","1","15","training","adjacent","CB","3","2","L.jpg","N.jpg","0","0","1","",""
"","feedback","","html-keyboard-response","103","184338","0.0-1.0-141.0-0.0","0","0","46750","","null","","","null","15","","","","","","","","","","","","","","","",""
"","ITI","","html-keyboard-response","104","185342","0.0-1.0-144.0","0","0","46750","","null","","","null","15","","","","","","","","","","","","","","","NaN",""
"","S1","","html-keyboard-response","105","185596","0.0-1.0-146.0","0","0","46750","","null","","","null","16","","","","","","","","","","","","","","","",""
"","ISI","","html-keyboard-response","106","187600","0.0-1.0-147.0","0","0","46750","","null","","","null","16","NaN","","","","","","","","","","","","","","",""
"","S2","","html-keyboard-response","107","187854","0.0-1.0-148.0","0","0","46750","","null","","","null","16","","NaN","","","","","","","","","","","","","",""
"","response","","html-keyboard-response","108","188398","0.0-1.0-149.0","0","0","46750","","540","","","68","16","","","1","16","training","adjacent","ED","5","4","Q.jpg","P.jpg","1","0","0","",""
"","feedback","","html-keyboard-response","109","189402","0.0-1.0-150.0-0.0","0","0","46750","","null","","","null","16","","","","","","","","","","","","","","","",""
"","time_out","","html-keyboard-response","110","191406","0.0-1.0-152.0-0.0","0","0","46750","","null","","","null","16","","","","","","","","","","","","","","","",""
"","ITI","","html-keyboard-response","111","192410","0.0-1.0-153.0","0","0","46750","","null","","","null","16","","","","","","","","","","","","","","","NaN",""
"","S1","","html-keyboard-response","112","192672","0.0-1.0-155.0","0","0","46750","","null","","","null","17","","","","","","","","","","","","","","","",""
"","ISI","","html-keyboard-response","113","194676","0.0-1.0-156.0","0","0","46750","","null","","","null","17","NaN","","","","","","","","","","","","","","",""
"","S2","","html-keyboard-response","114","194930","0.0-1.0-157.0","0","0","46750","","null","","","null","17","","NaN","","","","","","","","","","","","","",""
"","response","","html-keyboard-response","115","195182","0.0-1.0-158.0","0","0","46750","","249","","","68","17","","","1","17","training","adjacent","BC","2","3","N.jpg","L.jpg","1","1","1","",""
"","feedback","","html-keyboard-response","116","196186","0.0-1.0-159.0-0.0","0","0","46750","","null","","","null","17","","","","","","","","","","","","","","","",""
"","ITI","","html-keyboard-response","117","197190","0.0-1.0-162.0","0","0","46750","","null","","","null","17","","","","","","","","","","","","","","","NaN",""
"","S1","","html-keyboard-response","118","197447","0.0-1.0-164.0","0","0","46750","","null","","","null","18","","","","","","","","","","","","","","","",""
"","ISI","","html-keyboard-response","119","199452","0.0-1.0-165.0","0","0","46750","","null","","","null","18","NaN","","","","","","","","","","","","","","",""
"","S2","","html-keyboard-response","120","199707","0.0-1.0-166.0","0","0","46750","","null","","","null","18","","NaN","","","","","","","","","","","","","",""
"","response","","html-keyboard-response","121","200270","0.0-1.0-167.0","0","0","46750","","560","","","68","18","","","1","18","training","adjacent","DC","4","3","P.jpg","L.jpg","1","0","0","",""
"","feedback","","html-keyboard-response","122","201275","0.0-1.0-168.0-0.0","0","0","46750","","null","","","null","18","","","","","","","","","","","","","","","",""
"","time_out","","html-keyboard-response","123","203279","0.0-1.0-170.0-0.0","0","0","46750","","null","","","null","18","","","","","","","","","","","","","","","",""
"","ITI","","html-keyboard-response","124","204283","0.0-1.0-171.0","0","0","46750","","null","","","null","18","","","","","","","","","","","","","","","NaN",""
"","S1","","html-keyboard-response","125","204537","0.0-1.0-173.0","0","0","46750","","null","","","null","19","","","","","","","","","","","","","","","",""
"","ISI","","html-keyboard-response","126","206539","0.0-1.0-174.0","0","0","46750","","null","","","null","19","NaN","","","","","","","","","","","","","","",""
"","S2","","html-keyboard-response","127","206793","0.0-1.0-175.0","0","0","46750","","null","","","null","19","","NaN","","","","","","","","","","","","","",""
"","response","","html-keyboard-response","128","206934","0.0-1.0-176.0","0","0","46750","","138","","","75","19","","","1","19","training","adjacent","EF","5","6","Q.jpg","O.jpg","0","1","0","",""
"","feedback","","html-keyboard-response","129","207942","0.0-1.0-177.0-0.0","0","0","46750","","null","","","null","19","","","","","","","","","","","","","","","",""
"","time_out","","html-keyboard-response","130","209946","0.0-1.0-179.0-0.0","0","0","46750","","null","","","null","19","","","","","","","","","","","","","","","",""
"","ITI","","html-keyboard-response","131","210951","0.0-1.0-180.0","0","0","46750","","null","","","null","19","","","","","","","","","","","","","","","NaN",""
"","S1","","html-keyboard-response","132","211204","0.0-1.0-182.0","0","0","46750","","null","","","null","20","","","","","","","","","","","","","","","",""
"","ISI","","html-keyboard-response","133","213208","0.0-1.0-183.0","0","0","46750","","null","","","null","20","NaN","","","","","","","","","","","","","","",""
"","S2","","html-keyboard-response","134","213464","0.0-1.0-184.0","0","0","46750","","null","","","null","20","","NaN","","","","","","","","","","","","","",""
"","response","","html-keyboard-response","135","214070","0.0-1.0-185.0","0","0","46750","","603","","","75","20","","","1","20","training","adjacent","FG","6","7","O.jpg","R.jpg","0","1","0","",""
"","feedback","","html-keyboard-response","136","215075","0.0-1.0-186.0-0.0","0","0","46750","","null","","","null","20","","","","","","","","","","","","","","","",""
"","time_out","","html-keyboard-response","137","217078","0.0-1.0-188.0-0.0","0","0","46750","","null","","","null","20","","","","","","","","","","","","","","","",""
"","ITI","","html-keyboard-response","138","218082","0.0-1.0-189.0","0","0","46750","","null","","","null","20","","","","","","","","","","","","","","","NaN",""
"","S1","","html-keyboard-response","139","218336","0.0-1.0-191.0","0","0","46750","","null","","","null","21","","","","","","","","","","","","","","","",""
"","ISI","","html-keyboard-response","140","220340","0.0-1.0-192.0","0","0","46750","","null","","","null","21","NaN","","","","","","","","","","","","","","",""
"","S2","","html-keyboard-response","141","220595","0.0-1.0-193.0","0","0","46750","","null","","","null","21","","NaN","","","","","","","","","","","","","",""
"","response","","html-keyboard-response","142","220830","0.0-1.0-194.0","0","0","46750","","232","","","68","21","","","1","21","training","adjacent","FE","6","5","O.jpg","Q.jpg","1","0","0","",""
"","feedback","","html-keyboard-response","143","221835","0.0-1.0-195.0-0.0","0","0","46750","","null","","","null","21","","","","","","","","","","","","","","","",""
"","time_out","","html-keyboard-response","144","223838","0.0-1.0-197.0-0.0","0","0","46750","","null","","","null","21","","","","","","","","","","","","","","","",""
"","ITI","","html-keyboard-response","145","224842","0.0-1.0-198.0","0","0","46750","","null","","","null","21","","","","","","","","","","","","","","","NaN",""
"","S1","","html-keyboard-response","146","225097","0.0-1.0-200.0","0","0","46750","","null","","","null","22","","","","","","","","","","","","","","","",""
"","ISI","","html-keyboard-response","147","227100","0.0-1.0-201.0","0","0","46750","","null","","","null","22","NaN","","","","","","","","","","","","","","",""
"","S2","","html-keyboard-response","148","227354","0.0-1.0-202.0","0","0","46750","","null","","","null","22","","NaN","","","","","","","","","","","","","",""
"","response","","html-keyboard-response","149","227524","0.0-1.0-203.0","0","0","46750","","168","","","75","22","","","1","22","training","adjacent","EF","5","6","Q.jpg","O.jpg","0","1","0","",""
"","feedback","","html-keyboard-response","150","228528","0.0-1.0-204.0-0.0","0","0","46750","","null","","","null","22","","","","","","","","","","","","","","","",""
"","time_out","","html-keyboard-response","151","230532","0.0-1.0-206.0-0.0","0","0","46750","","null","","","null","22","","","","","","","","","","","","","","","",""
"","ITI","","html-keyboard-response","152","231536","0.0-1.0-207.0","0","0","46750","","null","","","null","22","","","","","","","","","","","","","","","NaN",""
"","S1","","html-keyboard-response","153","231791","0.0-1.0-209.0","0","0","46750","","null","","","null","23","","","","","","","","","","","","","","","",""
"","ISI","","html-keyboard-response","154","233795","0.0-1.0-210.0","0","0","46750","","null","","","null","23","NaN","","","","","","","","","","","","","","",""
"","S2","","html-keyboard-response","155","234049","0.0-1.0-211.0","0","0","46750","","null","","","null","23","","NaN","","","","","","","","","","","","","",""
"","response","","html-keyboard-response","156","234382","0.0-1.0-212.0","0","0","46750","","330","","","75","23","","","1","23","training","adjacent","FE","6","5","O.jpg","Q.jpg","0","0","1","",""
"","feedback","","html-keyboard-response","157","235386","0.0-1.0-213.0-0.0","0","0","46750","","null","","","null","23","","","","","","","","","","","","","","","",""
"","ITI","","html-keyboard-response","158","236391","0.0-1.0-216.0","0","0","46750","","null","","","null","23","","","","","","","","","","","","","","","NaN",""
"","S1","","html-keyboard-response","159","236646","0.0-1.0-218.0","0","0","46750","","null","","","null","24","","","","","","","","","","","","","","","",""
"","ISI","","html-keyboard-response","160","238649","0.0-1.0-219.0","0","0","46750","","null","","","null","24","NaN","","","","","","","","","","","","","","",""
"","S2","","html-keyboard-response","161","238904","0.0-1.0-220.0","0","0","46750","","null","","","null","24","","NaN","","","","","","","","","","","","","",""
"","response","","html-keyboard-response","162","239119","0.0-1.0-221.0","0","0","46750","","211","","","68","24","","","1","24","training","adjacent","EF","5","6","Q.jpg","O.jpg","1","1","1","",""
"","feedback","","html-keyboard-response","163","240123","0.0-1.0-222.0-0.0","0","0","46750","","null","","","null","24","","","","","","","","","","","","","","","",""
"","ITI","","html-keyboard-response","164","241127","0.0-1.0-225.0","0","0","46750","","null","","","null","24","","","","","","","","","","","","","","","NaN",""
"","S1","","html-keyboard-response","165","241382","0.0-1.0-227.0","0","0","46750","","null","","","null","25","","","","","","","","","","","","","","","",""
"","ISI","","html-keyboard-response","166","243386","0.0-1.0-228.0","0","0","46750","","null","","","null","25","NaN","","","","","","","","","","","","","","",""
"","S2","","html-keyboard-response","167","243640","0.0-1.0-229.0","0","0","46750","","null","","","null","25","","NaN","","","","","","","","","","","","","",""
"","response","","html-keyboard-response","168","243846","0.0-1.0-230.0","0","0","46750","","203","","","68","25","","","1","25","training","adjacent","AB","1","2","M.jpg","N.jpg","1","1","1","",""
"","feedback","","html-keyboard-response","169","244851","0.0-1.0-231.0-0.0","0","0","46750","","null","","","null","25","","","","","","","","","","","","","","","",""
"","ITI","","html-keyboard-response","170","245864","0.0-1.0-234.0","0","0","46750","","null","","","null","25","","","","","","","","","","","","","","","NaN",""
"","S1","","html-keyboard-response","171","246118","0.0-1.0-236.0","0","0","46750","","null","","","null","26","","","","","","","","","","","","","","","",""
"","ISI","","html-keyboard-response","172","248122","0.0-1.0-237.0","0","0","46750","","null","","","null","26","NaN","","","","","","","","","","","","","","",""
"","S2","","html-keyboard-response","173","248375","0.0-1.0-238.0","0","0","46750","","null","","","null","26","","NaN","","","","","","","","","","","","","",""
"","response","","html-keyboard-response","174","248726","0.0-1.0-239.0","0","0","46750","","348","","","75","26","","","1","26","training","adjacent","CD","3","4","L.jpg","P.jpg","0","1","0","",""
"","feedback","","html-keyboard-response","175","249731","0.0-1.0-240.0-0.0","0","0","46750","","null","","","null","26","","","","","","","","","","","","","","","",""
"","time_out","","html-keyboard-response","176","251734","0.0-1.0-242.0-0.0","0","0","46750","","null","","","null","26","","","","","","","","","","","","","","","",""
"","ITI","","html-keyboard-response","177","252737","0.0-1.0-243.0","0","0","46750","","null","","","null","26","","","","","","","","","","","","","","","NaN",""
"","S1","","html-keyboard-response","178","252990","0.0-1.0-245.0","0","0","46750","","null","","","null","27","","","","","","","","","","","","","","","",""
"","ISI","","html-keyboard-response","179","254993","0.0-1.0-246.0","0","0","46750","","null","","","null","27","NaN","","","","","","","","","","","","","","",""
"","S2","","html-keyboard-response","180","255247","0.0-1.0-247.0","0","0","46750","","null","","","null","27","","NaN","","","","","","","","","","","","","",""
"","response","","html-keyboard-response","181","255783","0.0-1.0-248.0","0","0","46750","","533","","","75","27","","","1","27","training","adjacent","FE","6","5","O.jpg","Q.jpg","0","0","1","",""
"","feedback","","html-keyboard-response","182","256787","0.0-1.0-249.0-0.0","0","0","46750","","null","","","null","27","","","","","","","","","","","","","","","",""
"","ITI","","html-keyboard-response","183","257791","0.0-1.0-252.0","0","0","46750","","null","","","null","27","","","","","","","","","","","","","","","NaN",""
"","S1","","html-keyboard-response","184","258045","0.0-1.0-254.0","0","0","46750","","null","","","null","28","","","","","","","","","","","","","","","",""
"","ISI","","html-keyboard-response","185","260048","0.0-1.0-255.0","0","0","46750","","null","","","null","28","NaN","","","","","","","","","","","","","","",""
"","S2","","html-keyboard-response","186","260303","0.0-1.0-256.0","0","0","46750","","null","","","null","28","","NaN","","","","","","","","","","","","","",""
"","response","","html-keyboard-response","187","260926","0.0-1.0-257.0","0","0","46750","","620","","","75","28","","","1","28","training","adjacent","DC","4","3","P.jpg","L.jpg","0","0","1","",""
"","feedback","","html-keyboard-response","188","261930","0.0-1.0-258.0-0.0","0","0","46750","","null","","","null","28","","","","","","","","","","","","","","","",""
"","ITI","","html-keyboard-response","189","262934","0.0-1.0-261.0","0","0","46750","","null","","","null","28","","","","","","","","","","","","","","","NaN",""
"","S1","","html-keyboard-response","190","263188","0.0-1.0-263.0","0","0","46750","","null","","","null","29","","","","","","","","","","","","","","","",""
"","ISI","","html-keyboard-response","191","265192","0.0-1.0-264.0","0","0","46750","","null","","","null","29","NaN","","","","","","","","","","","","","","",""
"","S2","","html-keyboard-response","192","265447","0.0-1.0-265.0","0","0","46750","","null","","","null","29","","NaN","","","","","","","","","","","","","",""
"","response","","html-keyboard-response","193","265855","0.0-1.0-266.0","0","0","46750","","404","","","75","29","","","1","29","training","adjacent","BA","2","1","N.jpg","M.jpg","0","0","1","",""
"","feedback","","html-keyboard-response","194","266859","0.0-1.0-267.0-0.0","0","0","46750","","null","","","null","29","","","","","","","","","","","","","","","",""
"","ITI","","html-keyboard-response","195","267863","0.0-1.0-270.0","0","0","46750","","null","","","null","29","","","","","","","","","","","","","","","NaN",""
"","S1","","html-keyboard-response","196","268117","0.0-1.0-272.0","0","0","46750","","null","","","null","30","","","","","","","","","","","","","","","",""
"","ISI","","html-keyboard-response","197","270121","0.0-1.0-273.0","0","0","46750","","null","","","null","30","NaN","","","","","","","","","","","","","","",""
"","S2","","html-keyboard-response","198","270375","0.0-1.0-274.0","0","0","46750","","null","","","null","30","","NaN","","","","","","","","","","","","","",""
"","response","","html-keyboard-response","199","270750","0.0-1.0-275.0","0","0","46750","","372","","","68","30","","","1","30","training","adjacent","BC","2","3","N.jpg","L.jpg","1","1","1","",""
"","feedback","","html-keyboard-response","200","271754","0.0-1.0-276.0-0.0","0","0","46750","","null","","","null","30","","","","","","","","","","","","","","","",""
"","ITI","","html-keyboard-response","201","272758","0.0-1.0-279.0","0","0","46750","","null","","","null","30","","","","","","","","","","","","","","","NaN",""
"","S1","","html-keyboard-response","202","273012","0.0-1.0-281.0","0","0","46750","","null","","","null","31","","","","","","","","","","","","","","","",""
"","ISI","","html-keyboard-response","203","275016","0.0-1.0-282.0","0","0","46750","","null","","","null","31","NaN","","","","","","","","","","","","","","",""
"","S2","","html-keyboard-response","204","275270","0.0-1.0-283.0","0","0","46750","","null","","","null","31","","NaN","","","","","","","","","","","","","",""
"","response","","html-keyboard-response","205","275662","0.0-1.0-284.0","0","0","46750","","389","","","75","31","","","1","31","training","adjacent","CB","3","2","L.jpg","N.jpg","0","0","1","",""
"","feedback","","html-keyboard-response","206","276667","0.0-1.0-285.0-0.0","0","0","46750","","null","","","null","31","","","","","","","","","","","","","","","",""
"","ITI","","html-keyboard-response","207","277670","0.0-1.0-288.0","0","0","46750","","null","","","null","31","","","","","","","","","","","","","","","NaN",""
"","S1","","html-keyboard-response","208","277924","0.0-1.0-290.0","0","0","46750","","null","","","null","32","","","","","","","","","","","","","","","",""
"","ISI","","html-keyboard-response","209","279928","0.0-1.0-291.0","0","0","46750","","null","","","null","32","NaN","","","","","","","","","","","","","","",""
"","S2","","html-keyboard-response","210","280181","0.0-1.0-292.0","0","0","46750","","null","","","null","32","","NaN","","","","","","","","","","","","","",""
"","response","","html-keyboard-response","211","280815","0.0-1.0-293.0","0","0","46750","","630","","","68","32","","","1","32","training","adjacent","FG","6","7","O.jpg","R.jpg","1","1","1","",""
"","feedback","","html-keyboard-response","212","281819","0.0-1.0-294.0-0.0","0","0","46750","","null","","","null","32","","","","","","","","","","","","","","","",""
"","ITI","","html-keyboard-response","213","282823","0.0-1.0-297.0","0","0","46750","","null","","","null","32","","","","","","","","","","","","","","","NaN",""
"","S1","","html-keyboard-response","214","283076","0.0-1.0-299.0","0","0","46750","","null","","","null","33","","","","","","","","","","","","","","","",""
"","ISI","","html-keyboard-response","215","285078","0.0-1.0-300.0","0","0","46750","","null","","","null","33","NaN","","","","","","","","","","","","","","",""
"","S2","","html-keyboard-response","216","285331","0.0-1.0-301.0","0","0","46750","","null","","","null","33","","NaN","","","","","","","","","","","","","",""
"","response","","html-keyboard-response","217","285766","0.0-1.0-302.0","0","0","46750","","432","","","75","33","","","1","33","training","adjacent","DC","4","3","P.jpg","L.jpg","0","0","1","",""
"","feedback","","html-keyboard-response","218","286771","0.0-1.0-303.0-0.0","0","0","46750","","null","","","null","33","","","","","","","","","","","","","","","",""
"","ITI","","html-keyboard-response","219","287776","0.0-1.0-306.0","0","0","46750","","null","","","null","33","","","","","","","","","","","","","","","NaN",""
"","S1","","html-keyboard-response","220","288030","0.0-1.0-308.0","0","0","46750","","null","","","null","34","","","","","","","","","","","","","","","",""
"","ISI","","html-keyboard-response","221","290034","0.0-1.0-309.0","0","0","46750","","null","","","null","34","NaN","","","","","","","","","","","","","","",""
"","S2","","html-keyboard-response","222","290289","0.0-1.0-310.0","0","0","46750","","null","","","null","34","","NaN","","","","","","","","","","","","","",""
"","response","","html-keyboard-response","223","290670","0.0-1.0-311.0","0","0","46750","","378","","","68","34","","","1","34","training","adjacent","FG","6","7","O.jpg","R.jpg","1","1","1","",""
"","feedback","","html-keyboard-response","224","291675","0.0-1.0-312.0-0.0","0","0","46750","","null","","","null","34","","","","","","","","","","","","","","","",""
"","ITI","","html-keyboard-response","225","292679","0.0-1.0-315.0","0","0","46750","","null","","","null","34","","","","","","","","","","","","","","","NaN",""
"","S1","","html-keyboard-response","226","292934","0.0-1.0-317.0","0","0","46750","","null","","","null","35","","","","","","","","","","","","","","","",""
"","ISI","","html-keyboard-response","227","294938","0.0-1.0-318.0","0","0","46750","","null","","","null","35","NaN","","","","","","","","","","","","","","",""
"","S2","","html-keyboard-response","228","295192","0.0-1.0-319.0","0","0","46750","","null","","","null","35","","NaN","","","","","","","","","","","","","",""
"","response","","html-keyboard-response","229","295351","0.0-1.0-320.0","0","0","46750","","155","","","68","35","","","1","35","training","adjacent","AB","1","2","M.jpg","N.jpg","1","1","1","",""
"","feedback","","html-keyboard-response","230","296355","0.0-1.0-321.0-0.0","0","0","46750","","null","","","null","35","","","","","","","","","","","","","","","",""
"","ITI","","html-keyboard-response","231","297360","0.0-1.0-324.0","0","0","46750","","null","","","null","35","","","","","","","","","","","","","","","NaN",""
"","S1","","html-keyboard-response","232","297614","0.0-1.0-326.0","0","0","46750","","null","","","null","36","","","","","","","","","","","","","","","",""
"","ISI","","html-keyboard-response","233","299618","0.0-1.0-327.0","0","0","46750","","null","","","null","36","NaN","","","","","","","","","","","","","","",""
"","S2","","html-keyboard-response","234","299872","0.0-1.0-328.0","0","0","46750","","null","","","null","36","","NaN","","","","","","","","","","","","","",""
"","response","","html-keyboard-response","235","300254","0.0-1.0-329.0","0","0","46750","","379","","","68","36","","","1","36","training","adjacent","BC","2","3","N.jpg","L.jpg","1","1","1","",""
"","feedback","","html-keyboard-response","236","301259","0.0-1.0-330.0-0.0","0","0","46750","","null","","","null","36","","","","","","","","","","","","","","","",""
"","ITI","","html-keyboard-response","237","302263","0.0-1.0-333.0","0","0","46750","","null","","","null","36","","","","","","","","","","","","","","","NaN",""
"","S1","","html-keyboard-response","238","302516","0.0-1.0-335.0","0","0","46750","","null","","","null","37","","","","","","","","","","","","","","","",""
"","ISI","","html-keyboard-response","239","304520","0.0-1.0-336.0","0","0","46750","","null","","","null","37","NaN","","","","","","","","","","","","","","",""
"","S2","","html-keyboard-response","240","304774","0.0-1.0-337.0","0","0","46750","","null","","","null","37","","NaN","","","","","","","","","","","","","",""
"","response","","html-keyboard-response","241","305302","0.0-1.0-338.0","0","0","46750","","525","","","75","37","","","1","37","training","adjacent","DC","4","3","P.jpg","L.jpg","0","0","1","",""
"","feedback","","html-keyboard-response","242","306306","0.0-1.0-339.0-0.0","0","0","46750","","null","","","null","37","","","","","","","","","","","","","","","",""
"","ITI","","html-keyboard-response","243","307310","0.0-1.0-342.0","0","0","46750","","null","","","null","37","","","","","","","","","","","","","","","NaN",""
"","S1","","html-keyboard-response","244","307564","0.0-1.0-344.0","0","0","46750","","null","","","null","38","","","","","","","","","","","","","","","",""
"","ISI","","html-keyboard-response","245","309567","0.0-1.0-345.0","0","0","46750","","null","","","null","38","NaN","","","","","","","","","","","","","","",""
"","S2","","html-keyboard-response","246","309823","0.0-1.0-346.0","0","0","46750","","null","","","null","38","","NaN","","","","","","","","","","","","","",""
"","response","","html-keyboard-response","247","309935","0.0-1.0-347.0","0","0","46750","","108","","","68","38","","","1","38","training","adjacent","ED","5","4","Q.jpg","P.jpg","1","0","0","",""
"","feedback","","html-keyboard-response","248","310938","0.0-1.0-348.0-0.0","0","0","46750","","null","","","null","38","","","","","","","","","","","","","","","",""
"","time_out","","html-keyboard-response","249","312942","0.0-1.0-350.0-0.0","0","0","46750","","null","","","null","38","","","","","","","","","","","","","","","",""
"","ITI","","html-keyboard-response","250","313947","0.0-1.0-351.0","0","0","46750","","null","","","null","38","","","","","","","","","","","","","","","NaN",""
"","S1","","html-keyboard-response","251","314201","0.0-1.0-353.0","0","0","46750","","null","","","null","39","","","","","","","","","","","","","","","",""
"","ISI","","html-keyboard-response","252","316205","0.0-1.0-354.0","0","0","46750","","null","","","null","39","NaN","","","","","","","","","","","","","","",""
"","S2","","html-keyboard-response","253","316460","0.0-1.0-355.0","0","0","46750","","null","","","null","39","","NaN","","","","","","","","","","","","","",""
"","response","","html-keyboard-response","254","316958","0.0-1.0-356.0","0","0","46750","","495","","","75","39","","","1","39","training","adjacent","ED","5","4","Q.jpg","P.jpg","0","0","1","",""
"","feedback","","html-keyboard-response","255","317964","0.0-1.0-357.0-0.0","0","0","46750","","null","","","null","39","","","","","","","","","","","","","","","",""
"","ITI","","html-keyboard-response","256","318967","0.0-1.0-360.0","0","0","46750","","null","","","null","39","","","","","","","","","","","","","","","NaN",""
"","S1","","html-keyboard-response","257","319221","0.0-1.0-362.0","0","0","46750","","null","","","null","40","","","","","","","","","","","","","","","",""
"","ISI","","html-keyboard-response","258","321224","0.0-1.0-363.0","0","0","46750","","null","","","null","40","NaN","","","","","","","","","","","","","","",""
"","S2","","html-keyboard-response","259","321477","0.0-1.0-364.0","0","0","46750","","null","","","null","40","","NaN","","","","","","","","","","","","","",""
"","response","","html-keyboard-response","260","321942","0.0-1.0-365.0","0","0","46750","","462","","","75","40","","","1","40","training","adjacent","ED","5","4","Q.jpg","P.jpg","0","0","1","",""
"","feedback","","html-keyboard-response","261","322947","0.0-1.0-366.0-0.0","0","0","46750","","null","","","null","40","","","","","","","","","","","","","","","",""
"","ITI","","html-keyboard-response","262","323951","0.0-1.0-369.0","0","0","46750","","null","","","null","40","","","","","","","","","","","","","","","NaN",""
"","S1","","html-keyboard-response","263","324205","0.0-1.0-371.0","0","0","46750","","null","","","null","41","","","","","","","","","","","","","","","",""
"","ISI","","html-keyboard-response","264","326210","0.0-1.0-372.0","0","0","46750","","null","","","null","41","NaN","","","","","","","","","","","","","","",""
"","S2","","html-keyboard-response","265","326463","0.0-1.0-373.0","0","0","46750","","null","","","null","41","","NaN","","","","","","","","","","","","","",""
"","response","","html-keyboard-response","266","326852","0.0-1.0-374.0","0","0","46750","","387","","","75","41","","","1","41","training","adjacent","GF","7","6","R.jpg","O.jpg","0","0","1","",""
"","feedback","","html-keyboard-response","267","327856","0.0-1.0-375.0-0.0","0","0","46750","","null","","","null","41","","","","","","","","","","","","","","","",""
"","ITI","","html-keyboard-response","268","328860","0.0-1.0-378.0","0","0","46750","","null","","","null","41","","","","","","","","","","","","","","","NaN",""
"","S1","","html-keyboard-response","269","329115","0.0-1.0-380.0","0","0","46750","","null","","","null","42","","","","","","","","","","","","","","","",""
"","ISI","","html-keyboard-response","270","331118","0.0-1.0-381.0","0","0","46750","","null","","","null","42","NaN","","","","","","","","","","","","","","",""
"","S2","","html-keyboard-response","271","331372","0.0-1.0-382.0","0","0","46750","","null","","","null","42","","NaN","","","","","","","","","","","","","",""
"","response","","html-keyboard-response","272","331726","0.0-1.0-383.0","0","0","46750","","351","","","75","42","","","1","42","training","adjacent","EF","5","6","Q.jpg","O.jpg","0","1","0","",""
"","feedback","","html-keyboard-response","273","332731","0.0-1.0-384.0-0.0","0","0","46750","","null","","","null","42","","","","","","","","","","","","","","","",""
"","time_out","","html-keyboard-response","274","334735","0.0-1.0-386.0-0.0","0","0","46750","","null","","","null","42","","","","","","","","","","","","","","","",""
"","ITI","","html-keyboard-response","275","335739","0.0-1.0-387.0","0","0","46750","","null","","","null","42","","","","","","","","","","","","","","","NaN",""
"","S1","","html-keyboard-response","276","335996","0.0-1.0-389.0","0","0","46750","","null","","","null","43","","","","","","","","","","","","","","","",""
"","ISI","","html-keyboard-response","277","337999","0.0-1.0-390.0","0","0","46750","","null","","","null","43","NaN","","","","","","","","","","","","","","",""
"","S2","","html-keyboard-response","278","338265","0.0-1.0-391.0","0","0","46750","","null","","","null","43","","NaN","","","","","","","","","","","","","",""
"","response","","html-keyboard-response","279","338894","0.0-1.0-392.0","0","0","46750","","626","","","75","43","","","1","43","training","adjacent","DE","4","5","P.jpg","Q.jpg","0","1","0","",""
"","feedback","","html-keyboard-response","280","339899","0.0-1.0-393.0-0.0","0","0","46750","","null","","","null","43","","","","","","","","","","","","","","","",""
"","time_out","","html-keyboard-response","281","341903","0.0-1.0-395.0-0.0","0","0","46750","","null","","","null","43","","","","","","","","","","","","","","","",""
"","ITI","","html-keyboard-response","282","342907","0.0-1.0-396.0","0","0","46750","","null","","","null","43","","","","","","","","","","","","","","","NaN",""
"","S1","","html-keyboard-response","283","343161","0.0-1.0-398.0","0","0","46750","","null","","","null","44","","","","","","","","","","","","","","","",""
"","ISI","","html-keyboard-response","284","345164","0.0-1.0-399.0","0","0","46750","","null","","","null","44","NaN","","","","","","","","","","","","","","",""
"","S2","","html-keyboard-response","285","345418","0.0-1.0-400.0","0","0","46750","","null","","","null","44","","NaN","","","","","","","","","","","","","",""
"","response","","html-keyboard-response","286","345830","0.0-1.0-401.0","0","0","46750","","409","","","68","44","","","1","44","training","adjacent","FE","6","5","O.jpg","Q.jpg","1","0","0","",""
"","feedback","","html-keyboard-response","287","346834","0.0-1.0-402.0-0.0","0","0","46750","","null","","","null","44","","","","","","","","","","","","","","","",""
"","time_out","","html-keyboard-response","288","348837","0.0-1.0-404.0-0.0","0","0","46750","","null","","","null","44","","","","","","","","","","","","","","","",""
"","ITI","","html-keyboard-response","289","349840","0.0-1.0-405.0","0","0","46750","","null","","","null","44","","","","","","","","","","","","","","","NaN",""
"","S1","","html-keyboard-response","290","350094","0.0-1.0-407.0","0","0","46750","","null","","","null","45","","","","","","","","","","","","","","","",""
"","ISI","","html-keyboard-response","291","352099","0.0-1.0-408.0","0","0","46750","","null","","","null","45","NaN","","","","","","","","","","","","","","",""
"","S2","","html-keyboard-response","292","352353","0.0-1.0-409.0","0","0","46750","","null","","","null","45","","NaN","","","","","","","","","","","","","",""
"","response","","html-keyboard-response","293","352567","0.0-1.0-410.0","0","0","46750","","210","","","75","45","","","1","45","training","adjacent","BA","2","1","N.jpg","M.jpg","0","0","1","",""
"","feedback","","html-keyboard-response","294","353571","0.0-1.0-411.0-0.0","0","0","46750","","null","","","null","45","","","","","","","","","","","","","","","",""
"","ITI","","html-keyboard-response","295","354576","0.0-1.0-414.0","0","0","46750","","null","","","null","45","","","","","","","","","","","","","","","NaN",""
"","S1","","html-keyboard-response","296","354831","0.0-1.0-416.0","0","0","46750","","null","","","null","46","","","","","","","","","","","","","","","",""
"","ISI","","html-keyboard-response","297","356835","0.0-1.0-417.0","0","0","46750","","null","","","null","46","NaN","","","","","","","","","","","","","","",""
"","S2","","html-keyboard-response","298","357089","0.0-1.0-418.0","0","0","46750","","null","","","null","46","","NaN","","","","","","","","","","","","","",""
"","response","","html-keyboard-response","299","357414","0.0-1.0-419.0","0","0","46750","","321","","","75","46","","","1","46","training","adjacent","DE","4","5","P.jpg","Q.jpg","0","1","0","",""
"","feedback","","html-keyboard-response","300","358418","0.0-1.0-420.0-0.0","0","0","46750","","null","","","null","46","","","","","","","","","","","","","","","",""
"","time_out","","html-keyboard-response","301","360422","0.0-1.0-422.0-0.0","0","0","46750","","null","","","null","46","","","","","","","","","","","","","","","",""
"","ITI","","html-keyboard-response","302","361426","0.0-1.0-423.0","0","0","46750","","null","","","null","46","","","","","","","","","","","","","","","NaN",""
"","S1","","html-keyboard-response","303","361680","0.0-1.0-425.0","0","0","46750","","null","","","null","47","","","","","","","","","","","","","","","",""
"","ISI","","html-keyboard-response","304","363684","0.0-1.0-426.0","0","0","46750","","null","","","null","47","NaN","","","","","","","","","","","","","","",""
"","S2","","html-keyboard-response","305","363938","0.0-1.0-427.0","0","0","46750","","null","","","null","47","","NaN","","","","","","","","","","","","","",""
"","response","","html-keyboard-response","306","364119","0.0-1.0-428.0","0","0","46750","","177","","","68","47","","","1","47","training","adjacent","DE","4","5","P.jpg","Q.jpg","1","1","1","",""
"","feedback","","html-keyboard-response","307","365123","0.0-1.0-429.0-0.0","0","0","46750","","null","","","null","47","","","","","","","","","","","","","","","",""
"","ITI","","html-keyboard-response","308","366126","0.0-1.0-432.0","0","0","46750","","null","","","null","47","","","","","","","","","","","","","","","NaN",""
"","block_over","","html-keyboard-response","309","380103","0.0-1.0-433.0-0.0","0","0","46750","","13971","","","32","47","","","","","","","","","","","","","","","",""
"","S1","","html-keyboard-response","310","380358","0.0-1.0-434.0","0","0","46750","","null","","","null","48","","","","","","","","","","","","","","","",""
"","ISI","","html-keyboard-response","311","382362","0.0-1.0-435.0","0","0","46750","","null","","","null","48","NaN","","","","","","","","","","","","","","",""
"","S2","","html-keyboard-response","312","382616","0.0-1.0-436.0","0","0","46750","","null","","","null","48","","NaN","","","","","","","","","","","","","",""
"","response","","html-keyboard-response","313","382838","0.0-1.0-437.0","0","0","46750","","219","","","75","48","","","2","48","training","adjacent","BA","2","1","N.jpg","M.jpg","0","0","1","",""
"","feedback","","html-keyboard-response","314","383842","0.0-1.0-438.0-0.0","0","0","46750","","null","","","null","48","","","","","","","","","","","","","","","",""
"","ITI","","html-keyboard-response","315","384847","0.0-1.0-441.0","0","0","46750","","null","","","null","48","","","","","","","","","","","","","","","NaN",""
"","S1","","html-keyboard-response","316","385103","0.0-1.0-443.0","0","0","46750","","null","","","null","49","","","","","","","","","","","","","","","",""
"","ISI","","html-keyboard-response","317","387107","0.0-1.0-444.0","0","0","46750","","null","","","null","49","NaN","","","","","","","","","","","","","","",""
"","S2","","html-keyboard-response","318","387362","0.0-1.0-445.0","0","0","46750","","null","","","null","49","","NaN","","","","","","","","","","","","","",""
"","response","","html-keyboard-response","319","387726","0.0-1.0-446.0","0","0","46750","","361","","","75","49","","","2","49","training","adjacent","CB","3","2","L.jpg","N.jpg","0","0","1","",""
"","feedback","","html-keyboard-response","320","388731","0.0-1.0-447.0-0.0","0","0","46750","","null","","","null","49","","","","","","","","","","","","","","","",""
"","ITI","","html-keyboard-response","321","389735","0.0-1.0-450.0","0","0","46750","","null","","","null","49","","","","","","","","","","","","","","","NaN",""
"","S1","","html-keyboard-response","322","389989","0.0-1.0-452.0","0","0","46750","","null","","","null","50","","","","","","","","","","","","","","","",""
"","ISI","","html-keyboard-response","323","391994","0.0-1.0-453.0","0","0","46750","","null","","","null","50","NaN","","","","","","","","","","","","","","",""
"","S2","","html-keyboard-response","324","392249","0.0-1.0-454.0","0","0","46750","","null","","","null","50","","NaN","","","","","","","","","","","","","",""
"","response","","html-keyboard-response","325","392631","0.0-1.0-455.0","0","0","46750","","378","","","68","50","","","2","50","training","adjacent","FG","6","7","O.jpg","R.jpg","1","1","1","",""
"","feedback","","html-keyboard-response","326","393634","0.0-1.0-456.0-0.0","0","0","46750","","null","","","null","50","","","","","","","","","","","","","","","",""
"","ITI","","html-keyboard-response","327","394637","0.0-1.0-459.0","0","0","46750","","null","","","null","50","","","","","","","","","","","","","","","NaN",""
"","S1","","html-keyboard-response","328","394892","0.0-1.0-461.0","0","0","46750","","null","","","null","51","","","","","","","","","","","","","","","",""
"","ISI","","html-keyboard-response","329","396896","0.0-1.0-462.0","0","0","46750","","null","","","null","51","NaN","","","","","","","","","","","","","","",""
"","S2","","html-keyboard-response","330","397150","0.0-1.0-463.0","0","0","46750","","null","","","null","51","","NaN","","","","","","","","","","","","","",""
"","response","","html-keyboard-response","331","397518","0.0-1.0-464.0","0","0","46750","","365","","","68","51","","","2","51","training","adjacent","FG","6","7","O.jpg","R.jpg","1","1","1","",""
"","feedback","","html-keyboard-response","332","398521","0.0-1.0-465.0-0.0","0","0","46750","","null","","","null","51","","","","","","","","","","","","","","","",""
"","ITI","","html-keyboard-response","333","399524","0.0-1.0-468.0","0","0","46750","","null","","","null","51","","","","","","","","","","","","","","","NaN",""
"","S1","","html-keyboard-response","334","399779","0.0-1.0-470.0","0","0","46750","","null","","","null","52","","","","","","","","","","","","","","","",""
"","ISI","","html-keyboard-response","335","401784","0.0-1.0-471.0","0","0","46750","","null","","","null","52","NaN","","","","","","","","","","","","","","",""
"","S2","","html-keyboard-response","336","402037","0.0-1.0-472.0","0","0","46750","","null","","","null","52","","NaN","","","","","","","","","","","","","",""
"","response","","html-keyboard-response","337","402326","0.0-1.0-473.0","0","0","46750","","286","","","68","52","","","2","52","training","adjacent","AB","1","2","M.jpg","N.jpg","1","1","1","",""
"","feedback","","html-keyboard-response","338","403330","0.0-1.0-474.0-0.0","0","0","46750","","null","","","null","52","","","","","","","","","","","","","","","",""
"","ITI","","html-keyboard-response","339","404334","0.0-1.0-477.0","0","0","46750","","null","","","null","52","","","","","","","","","","","","","","","NaN",""
"","S1","","html-keyboard-response","340","404589","0.0-1.0-479.0","0","0","46750","","null","","","null","53","","","","","","","","","","","","","","","",""
"","ISI","","html-keyboard-response","341","406592","0.0-1.0-480.0","0","0","46750","","null","","","null","53","NaN","","","","","","","","","","","","","","",""
"","S2","","html-keyboard-response","342","406846","0.0-1.0-481.0","0","0","46750","","null","","","null","53","","NaN","","","","","","","","","","","","","",""
"","response","","html-keyboard-response","343","407094","0.0-1.0-482.0","0","0","46750","","245","","","75","53","","","2","53","training","adjacent","BA","2","1","N.jpg","M.jpg","0","0","1","",""
"","feedback","","html-keyboard-response","344","408098","0.0-1.0-483.0-0.0","0","0","46750","","null","","","null","53","","","","","","","","","","","","","","","",""
"","ITI","","html-keyboard-response","345","409102","0.0-1.0-486.0","0","0","46750","","null","","","null","53","","","","","","","","","","","","","","","NaN",""
"","S1","","html-keyboard-response","346","409357","0.0-1.0-488.0","0","0","46750","","null","","","null","54","","","","","","","","","","","","","","","",""
"","ISI","","html-keyboard-response","347","411361","0.0-1.0-489.0","0","0","46750","","null","","","null","54","NaN","","","","","","","","","","","","","","",""
"","S2","","html-keyboard-response","348","411616","0.0-1.0-490.0","0","0","46750","","null","","","null","54","","NaN","","","","","","","","","","","","","",""
"","response","","html-keyboard-response","349","412150","0.0-1.0-491.0","0","0","46750","","531","","","68","54","","","2","54","training","adjacent","BC","2","3","N.jpg","L.jpg","1","1","1","",""
"","feedback","","html-keyboard-response","350","413155","0.0-1.0-492.0-0.0","0","0","46750","","null","","","null","54","","","","","","","","","","","","","","","",""
"","ITI","","html-keyboard-response","351","414159","0.0-1.0-495.0","0","0","46750","","null","","","null","54","","","","","","","","","","","","","","","NaN",""
"","S1","","html-keyboard-response","352","414414","0.0-1.0-497.0","0","0","46750","","null","","","null","55","","","","","","","","","","","","","","","",""
"","ISI","","html-keyboard-response","353","416417","0.0-1.0-498.0","0","0","46750","","null","","","null","55","NaN","","","","","","","","","","","","","","",""
"","S2","","html-keyboard-response","354","416671","0.0-1.0-499.0","0","0","46750","","null","","","null","55","","NaN","","","","","","","","","","","","","",""
"","response","","html-keyboard-response","355","417110","0.0-1.0-500.0","0","0","46750","","436","","","68","55","","","2","55","training","adjacent","FG","6","7","O.jpg","R.jpg","1","1","1","",""
"","feedback","","html-keyboard-response","356","418115","0.0-1.0-501.0-0.0","0","0","46750","","null","","","null","55","","","","","","","","","","","","","","","",""
"","ITI","","html-keyboard-response","357","419118","0.0-1.0-504.0","0","0","46750","","null","","","null","55","","","","","","","","","","","","","","","NaN",""
"","S1","","html-keyboard-response","358","419374","0.0-1.0-506.0","0","0","46750","","null","","","null","56","","","","","","","","","","","","","","","",""
"","ISI","","html-keyboard-response","359","421377","0.0-1.0-507.0","0","0","46750","","null","","","null","56","NaN","","","","","","","","","","","","","","",""
"","S2","","html-keyboard-response","360","421632","0.0-1.0-508.0","0","0","46750","","null","","","null","56","","NaN","","","","","","","","","","","","","",""
"","response","","html-keyboard-response","361","421926","0.0-1.0-509.0","0","0","46750","","291","","","75","56","","","2","56","training","adjacent","GF","7","6","R.jpg","O.jpg","0","0","1","",""
"","feedback","","html-keyboard-response","362","422930","0.0-1.0-510.0-0.0","0","0","46750","","null","","","null","56","","","","","","","","","","","","","","","",""
"","ITI","","html-keyboard-response","363","423935","0.0-1.0-513.0","0","0","46750","","null","","","null","56","","","","","","","","","","","","","","","NaN",""
"","S1","","html-keyboard-response","364","424190","0.0-1.0-515.0","0","0","46750","","null","","","null","57","","","","","","","","","","","","","","","",""
"","ISI","","html-keyboard-response","365","426194","0.0-1.0-516.0","0","0","46750","","null","","","null","57","NaN","","","","","","","","","","","","","","",""
"","S2","","html-keyboard-response","366","426449","0.0-1.0-517.0","0","0","46750","","null","","","null","57","","NaN","","","","","","","","","","","","","",""
"","response","","html-keyboard-response","367","427078","0.0-1.0-518.0","0","0","46750","","625","","","75","57","","","2","57","training","adjacent","FE","6","5","O.jpg","Q.jpg","0","0","1","",""
"","feedback","","html-keyboard-response","368","428083","0.0-1.0-519.0-0.0","0","0","46750","","null","","","null","57","","","","","","","","","","","","","","","",""
"","ITI","","html-keyboard-response","369","429088","0.0-1.0-522.0","0","0","46750","","null","","","null","57","","","","","","","","","","","","","","","NaN",""
"","S1","","html-keyboard-response","370","429342","0.0-1.0-524.0","0","0","46750","","null","","","null","58","","","","","","","","","","","","","","","",""
"","ISI","","html-keyboard-response","371","431346","0.0-1.0-525.0","0","0","46750","","null","","","null","58","NaN","","","","","","","","","","","","","","",""
"","S2","","html-keyboard-response","372","431600","0.0-1.0-526.0","0","0","46750","","null","","","null","58","","NaN","","","","","","","","","","","","","",""
"","response","","html-keyboard-response","373","432182","0.0-1.0-527.0","0","0","46750","","579","","","68","58","","","2","58","training","adjacent","EF","5","6","Q.jpg","O.jpg","1","1","1","",""
"","feedback","","html-keyboard-response","374","433186","0.0-1.0-528.0-0.0","0","0","46750","","null","","","null","58","","","","","","","","","","","","","","","",""
"","ITI","","html-keyboard-response","375","434191","0.0-1.0-531.0","0","0","46750","","null","","","null","58","","","","","","","","","","","","","","","NaN",""
"","S1","","html-keyboard-response","376","434446","0.0-1.0-533.0","0","0","46750","","null","","","null","59","","","","","","","","","","","","","","","",""
"","ISI","","html-keyboard-response","377","436450","0.0-1.0-534.0","0","0","46750","","null","","","null","59","NaN","","","","","","","","","","","","","","",""
"","S2","","html-keyboard-response","378","436705","0.0-1.0-535.0","0","0","46750","","null","","","null","59","","NaN","","","","","","","","","","","","","",""
"","response","","html-keyboard-response","379","437214","0.0-1.0-536.0","0","0","46750","","505","","","68","59","","","2","59","training","adjacent","DC","4","3","P.jpg","L.jpg","1","0","0","",""
"","feedback","","html-keyboard-response","380","438218","0.0-1.0-537.0-0.0","0","0","46750","","null","","","null","59","","","","","","","","","","","","","","","",""
"","time_out","","html-keyboard-response","381","440222","0.0-1.0-539.0-0.0","0","0","46750","","null","","","null","59","","","","","","","","","","","","","","","",""
"","ITI","","html-keyboard-response","382","441227","0.0-1.0-540.0","0","0","46750","","null","","","null","59","","","","","","","","","","","","","","","NaN",""
"","S1","","html-keyboard-response","383","441481","0.0-1.0-542.0","0","0","46750","","null","","","null","60","","","","","","","","","","","","","","","",""
"","ISI","","html-keyboard-response","384","443485","0.0-1.0-543.0","0","0","46750","","null","","","null","60","NaN","","","","","","","","","","","","","","",""
"","S2","","html-keyboard-response","385","443739","0.0-1.0-544.0","0","0","46750","","null","","","null","60","","NaN","","","","","","","","","","","","","",""
"","response","","html-keyboard-response","386","444390","0.0-1.0-545.0","0","0","46750","","648","","","75","60","","","2","60","training","adjacent","DE","4","5","P.jpg","Q.jpg","0","1","0","",""
"","feedback","","html-keyboard-response","387","445395","0.0-1.0-546.0-0.0","0","0","46750","","null","","","null","60","","","","","","","","","","","","","","","",""
"","time_out","","html-keyboard-response","388","447398","0.0-1.0-548.0-0.0","0","0","46750","","null","","","null","60","","","","","","","","","","","","","","","",""
"","ITI","","html-keyboard-response","389","448403","0.0-1.0-549.0","0","0","46750","","null","","","null","60","","","","","","","","","","","","","","","NaN",""
"","S1","","html-keyboard-response","390","448658","0.0-1.0-551.0","0","0","46750","","null","","","null","61","","","","","","","","","","","","","","","",""
"","ISI","","html-keyboard-response","391","450662","0.0-1.0-552.0","0","0","46750","","null","","","null","61","NaN","","","","","","","","","","","","","","",""
"","S2","","html-keyboard-response","392","450916","0.0-1.0-553.0","0","0","46750","","null","","","null","61","","NaN","","","","","","","","","","","","","",""
"","response","","html-keyboard-response","393","451790","0.0-1.0-554.0","0","0","46750","","870","","","75","61","","","2","61","training","adjacent","DC","4","3","P.jpg","L.jpg","0","0","1","",""
"","feedback","","html-keyboard-response","394","452795","0.0-1.0-555.0-0.0","0","0","46750","","null","","","null","61","","","","","","","","","","","","","","","",""
"","ITI","","html-keyboard-response","395","453798","0.0-1.0-558.0","0","0","46750","","null","","","null","61","","","","","","","","","","","","","","","NaN",""
"","S1","","html-keyboard-response","396","454054","0.0-1.0-560.0","0","0","46750","","null","","","null","62","","","","","","","","","","","","","","","",""
"","ISI","","html-keyboard-response","397","456057","0.0-1.0-561.0","0","0","46750","","null","","","null","62","NaN","","","","","","","","","","","","","","",""
"","S2","","html-keyboard-response","398","456311","0.0-1.0-562.0","0","0","46750","","null","","","null","62","","NaN","","","","","","","","","","","","","",""
"","response","","html-keyboard-response","399","456870","0.0-1.0-563.0","0","0","46750","","555","","","68","62","","","2","62","training","adjacent","BC","2","3","N.jpg","L.jpg","1","1","1","",""
"","feedback","","html-keyboard-response","400","457876","0.0-1.0-564.0-0.0","0","0","46750","","null","","","null","62","","","","","","","","","","","","","","","",""
"","ITI","","html-keyboard-response","401","458880","0.0-1.0-567.0","0","0","46750","","null","","","null","62","","","","","","","","","","","","","","","NaN",""
"","S1","","html-keyboard-response","402","459136","0.0-1.0-569.0","0","0","46750","","null","","","null","63","","","","","","","","","","","","","","","",""
"","ISI","","html-keyboard-response","403","461140","0.0-1.0-570.0","0","0","46750","","null","","","null","63","NaN","","","","","","","","","","","","","","",""
"","S2","","html-keyboard-response","404","461394","0.0-1.0-571.0","0","0","46750","","null","","","null","63","","NaN","","","","","","","","","","","","","",""
"","response","","html-keyboard-response","405","461982","0.0-1.0-572.0","0","0","46750","","584","","","75","63","","","2","63","training","adjacent","ED","5","4","Q.jpg","P.jpg","0","0","1","",""
"","feedback","","html-keyboard-response","406","462986","0.0-1.0-573.0-0.0","0","0","46750","","null","","","null","63","","","","","","","","","","","","","","","",""
"","ITI","","html-keyboard-response","407","463990","0.0-1.0-576.0","0","0","46750","","null","","","null","63","","","","","","","","","","","","","","","NaN",""
"","S1","","html-keyboard-response","408","464244","0.0-1.0-578.0","0","0","46750","","null","","","null","64","","","","","","","","","","","","","","","",""
"","ISI","","html-keyboard-response","409","466248","0.0-1.0-579.0","0","0","46750","","null","","","null","64","NaN","","","","","","","","","","","","","","",""
"","S2","","html-keyboard-response","410","466500","0.0-1.0-580.0","0","0","46750","","null","","","null","64","","NaN","","","","","","","","","","","","","",""
"","response","","html-keyboard-response","411","467046","0.0-1.0-581.0","0","0","46750","","543","","","68","64","","","2","64","training","adjacent","EF","5","6","Q.jpg","O.jpg","1","1","1","",""
"","feedback","","html-keyboard-response","412","468050","0.0-1.0-582.0-0.0","0","0","46750","","null","","","null","64","","","","","","","","","","","","","","","",""
"","ITI","","html-keyboard-response","413","469055","0.0-1.0-585.0","0","0","46750","","null","","","null","64","","","","","","","","","","","","","","","NaN",""
"","S1","","html-keyboard-response","414","469310","0.0-1.0-587.0","0","0","46750","","null","","","null","65","","","","","","","","","","","","","","","",""
"","ISI","","html-keyboard-response","415","471313","0.0-1.0-588.0","0","0","46750","","null","","","null","65","NaN","","","","","","","","","","","","","","",""
"","S2","","html-keyboard-response","416","471567","0.0-1.0-589.0","0","0","46750","","null","","","null","65","","NaN","","","","","","","","","","","","","",""
"","response","","html-keyboard-response","417","472332","0.0-1.0-590.0","0","0","46750","","762","","","75","65","","","2","65","training","adjacent","CB","3","2","L.jpg","N.jpg","0","0","1","",""
"","feedback","","html-keyboard-response","418","473335","0.0-1.0-591.0-0.0","0","0","46750","","null","","","null","65","","","","","","","","","","","","","","","",""
"","ITI","","html-keyboard-response","419","474340","0.0-1.0-594.0","0","0","46750","","null","","","null","65","","","","","","","","","","","","","","","NaN",""
"","S1","","html-keyboard-response","420","474594","0.0-1.0-596.0","0","0","46750","","null","","","null","66","","","","","","","","","","","","","","","",""
"","ISI","","html-keyboard-response","421","476598","0.0-1.0-597.0","0","0","46750","","null","","","null","66","NaN","","","","","","","","","","","","","","",""
"","S2","","html-keyboard-response","422","476852","0.0-1.0-598.0","0","0","46750","","null","","","null","66","","NaN","","","","","","","","","","","","","",""
"","response","","html-keyboard-response","423","477590","0.0-1.0-599.0","0","0","46750","","735","","","75","66","","","2","66","training","adjacent","DC","4","3","P.jpg","L.jpg","0","0","1","",""
"","feedback","","html-keyboard-response","424","478594","0.0-1.0-600.0-0.0","0","0","46750","","null","","","null","66","","","","","","","","","","","","","","","",""
"","ITI","","html-keyboard-response","425","479599","0.0-1.0-603.0","0","0","46750","","null","","","null","66","","","","","","","","","","","","","","","NaN",""
"","S1","","html-keyboard-response","426","479853","0.0-1.0-605.0","0","0","46750","","null","","","null","67","","","","","","","","","","","","","","","",""
"","ISI","","html-keyboard-response","427","481858","0.0-1.0-606.0","0","0","46750","","null","","","null","67","NaN","","","","","","","","","","","","","","",""
"","S2","","html-keyboard-response","428","482112","0.0-1.0-607.0","0","0","46750","","null","","","null","67","","NaN","","","","","","","","","","","","","",""
"","response","","html-keyboard-response","429","482718","0.0-1.0-608.0","0","0","46750","","602","","","68","67","","","2","67","training","adjacent","BC","2","3","N.jpg","L.jpg","1","1","1","",""
"","feedback","","html-keyboard-response","430","483722","0.0-1.0-609.0-0.0","0","0","46750","","null","","","null","67","","","","","","","","","","","","","","","",""
"","ITI","","html-keyboard-response","431","484729","0.0-1.0-612.0","0","0","46750","","null","","","null","67","","","","","","","","","","","","","","","NaN",""
"","S1","","html-keyboard-response","432","484984","0.0-1.0-614.0","0","0","46750","","null","","","null","68","","","","","","","","","","","","","","","",""
"","ISI","","html-keyboard-response","433","486988","0.0-1.0-615.0","0","0","46750","","null","","","null","68","NaN","","","","","","","","","","","","","","",""
"","S2","","html-keyboard-response","434","487241","0.0-1.0-616.0","0","0","46750","","null","","","null","68","","NaN","","","","","","","","","","","","","",""
"","response","","html-keyboard-response","435","487412","0.0-1.0-617.0","0","0","46750","","169","","","75","68","","","2","68","training","adjacent","GF","7","6","R.jpg","O.jpg","0","0","1","",""
"","feedback","","html-keyboard-response","436","488415","0.0-1.0-618.0-0.0","0","0","46750","","null","","","null","68","","","","","","","","","","","","","","","",""
"","ITI","","html-keyboard-response","437","489419","0.0-1.0-621.0","0","0","46750","","null","","","null","68","","","","","","","","","","","","","","","NaN",""
"","S1","","html-keyboard-response","438","489675","0.0-1.0-623.0","0","0","46750","","null","","","null","69","","","","","","","","","","","","","","","",""
"","ISI","","html-keyboard-response","439","491679","0.0-1.0-624.0","0","0","46750","","null","","","null","69","NaN","","","","","","","","","","","","","","",""
"","S2","","html-keyboard-response","440","491933","0.0-1.0-625.0","0","0","46750","","null","","","null","69","","NaN","","","","","","","","","","","","","",""
"","response","","html-keyboard-response","441","492414","0.0-1.0-626.0","0","0","46750","","478","","","75","69","","","2","69","training","adjacent","DC","4","3","P.jpg","L.jpg","0","0","1","",""
"","feedback","","html-keyboard-response","442","493418","0.0-1.0-627.0-0.0","0","0","46750","","null","","","null","69","","","","","","","","","","","","","","","",""
"","ITI","","html-keyboard-response","443","494423","0.0-1.0-630.0","0","0","46750","","null","","","null","69","","","","","","","","","","","","","","","NaN",""
"","S1","","html-keyboard-response","444","494677","0.0-1.0-632.0","0","0","46750","","null","","","null","70","","","","","","","","","","","","","","","",""
"","ISI","","html-keyboard-response","445","496681","0.0-1.0-633.0","0","0","46750","","null","","","null","70","NaN","","","","","","","","","","","","","","",""
"","S2","","html-keyboard-response","446","496936","0.0-1.0-634.0","0","0","46750","","null","","","null","70","","NaN","","","","","","","","","","","","","",""
"","response","","html-keyboard-response","447","497206","0.0-1.0-635.0","0","0","46750","","266","","","75","70","","","2","70","training","adjacent","DE","4","5","P.jpg","Q.jpg","0","1","0","",""
"","feedback","","html-keyboard-response","448","498211","0.0-1.0-636.0-0.0","0","0","46750","","null","","","null","70","","","","","","","","","","","","","","","",""
"","time_out","","html-keyboard-response","449","500216","0.0-1.0-638.0-0.0","0","0","46750","","null","","","null","70","","","","","","","","","","","","","","","",""
"","ITI","","html-keyboard-response","450","501219","0.0-1.0-639.0","0","0","46750","","null","","","null","70","","","","","","","","","","","","","","","NaN",""
"","S1","","html-keyboard-response","451","501488","0.0-1.0-641.0","0","0","46750","","null","","","null","71","","","","","","","","","","","","","","","",""
"","ISI","","html-keyboard-response","452","503492","0.0-1.0-642.0","0","0","46750","","null","","","null","71","NaN","","","","","","","","","","","","","","",""
"","S2","","html-keyboard-response","453","503747","0.0-1.0-643.0","0","0","46750","","null","","","null","71","","NaN","","","","","","","","","","","","","",""
"","response","","html-keyboard-response","454","504230","0.0-1.0-644.0","0","0","46750","","479","","","68","71","","","2","71","training","adjacent","DE","4","5","P.jpg","Q.jpg","1","1","1","",""
"","feedback","","html-keyboard-response","455","505235","0.0-1.0-645.0-0.0","0","0","46750","","null","","","null","71","","","","","","","","","","","","","","","",""
"","ITI","","html-keyboard-response","456","506239","0.0-1.0-648.0","0","0","46750","","null","","","null","71","","","","","","","","","","","","","","","NaN",""
"","S1","","html-keyboard-response","457","506493","0.0-1.0-650.0","0","0","46750","","null","","","null","72","","","","","","","","","","","","","","","",""
"","ISI","","html-keyboard-response","458","508495","0.0-1.0-651.0","0","0","46750","","null","","","null","72","NaN","","","","","","","","","","","","","","",""
"","S2","","html-keyboard-response","459","508749","0.0-1.0-652.0","0","0","46750","","null","","","null","72","","NaN","","","","","","","","","","","","","",""
"","response","","html-keyboard-response","460","508950","0.0-1.0-653.0","0","0","46750","","197","","","68","72","","","2","72","training","adjacent","AB","1","2","M.jpg","N.jpg","1","1","1","",""
"","feedback","","html-keyboard-response","461","509955","0.0-1.0-654.0-0.0","0","0","46750","","null","","","null","72","","","","","","","","","","","","","","","",""
"","ITI","","html-keyboard-response","462","510960","0.0-1.0-657.0","0","0","46750","","null","","","null","72","","","","","","","","","","","","","","","NaN",""
"","S1","","html-keyboard-response","463","511215","0.0-1.0-659.0","0","0","46750","","null","","","null","73","","","","","","","","","","","","","","","",""
"","ISI","","html-keyboard-response","464","513219","0.0-1.0-660.0","0","0","46750","","null","","","null","73","NaN","","","","","","","","","","","","","","",""
"","S2","","html-keyboard-response","465","513483","0.0-1.0-661.0","0","0","46750","","null","","","null","73","","NaN","","","","","","","","","","","","","",""
"","response","","html-keyboard-response","466","513854","0.0-1.0-662.0","0","0","46750","","367","","","68","73","","","2","73","training","adjacent","BC","2","3","N.jpg","L.jpg","1","1","1","",""
"","feedback","","html-keyboard-response","467","514858","0.0-1.0-663.0-0.0","0","0","46750","","null","","","null","73","","","","","","","","","","","","","","","",""
"","ITI","","html-keyboard-response","468","515862","0.0-1.0-666.0","0","0","46750","","null","","","null","73","","","","","","","","","","","","","","","NaN",""
"","S1","","html-keyboard-response","469","516116","0.0-1.0-668.0","0","0","46750","","null","","","null","74","","","","","","","","","","","","","","","",""
"","ISI","","html-keyboard-response","470","518120","0.0-1.0-669.0","0","0","46750","","null","","","null","74","NaN","","","","","","","","","","","","","","",""
"","S2","","html-keyboard-response","471","518374","0.0-1.0-670.0","0","0","46750","","null","","","null","74","","NaN","","","","","","","","","","","","","",""
"","response","","html-keyboard-response","472","519150","0.0-1.0-671.0","0","0","46750","","773","","","75","74","","","2","74","training","adjacent","ED","5","4","Q.jpg","P.jpg","0","0","1","",""
"","feedback","","html-keyboard-response","473","520154","0.0-1.0-672.0-0.0","0","0","46750","","null","","","null","74","","","","","","","","","","","","","","","",""
"","ITI","","html-keyboard-response","474","521159","0.0-1.0-675.0","0","0","46750","","null","","","null","74","","","","","","","","","","","","","","","NaN",""
"","S1","","html-keyboard-response","475","521414","0.0-1.0-677.0","0","0","46750","","null","","","null","75","","","","","","","","","","","","","","","",""
"","ISI","","html-keyboard-response","476","523417","0.0-1.0-678.0","0","0","46750","","null","","","null","75","NaN","","","","","","","","","","","","","","",""
"","S2","","html-keyboard-response","477","523671","0.0-1.0-679.0","0","0","46750","","null","","","null","75","","NaN","","","","","","","","","","","","","",""
"","response","","html-keyboard-response","478","524070","0.0-1.0-680.0","0","0","46750","","394","","","68","75","","","2","75","training","adjacent","FG","6","7","O.jpg","R.jpg","1","1","1","",""
"","feedback","","html-keyboard-response","479","525074","0.0-1.0-681.0-0.0","0","0","46750","","null","","","null","75","","","","","","","","","","","","","","","",""
"","ITI","","html-keyboard-response","480","526079","0.0-1.0-684.0","0","0","46750","","null","","","null","75","","","","","","","","","","","","","","","NaN",""
"","S1","","html-keyboard-response","481","526334","0.0-1.0-686.0","0","0","46750","","null","","","null","76","","","","","","","","","","","","","","","",""
"","ISI","","html-keyboard-response","482","528338","0.0-1.0-687.0","0","0","46750","","null","","","null","76","NaN","","","","","","","","","","","","","","",""
"","S2","","html-keyboard-response","483","528592","0.0-1.0-688.0","0","0","46750","","null","","","null","76","","NaN","","","","","","","","","","","","","",""
"","response","","html-keyboard-response","484","529110","0.0-1.0-689.0","0","0","46750","","514","","","68","76","","","2","76","training","adjacent","FE","6","5","O.jpg","Q.jpg","1","0","0","",""
"","feedback","","html-keyboard-response","485","530115","0.0-1.0-690.0-0.0","0","0","46750","","null","","","null","76","","","","","","","","","","","","","","","",""
"","time_out","","html-keyboard-response","486","532119","0.0-1.0-692.0-0.0","0","0","46750","","null","","","null","76","","","","","","","","","","","","","","","",""
"","ITI","","html-keyboard-response","487","533124","0.0-1.0-693.0","0","0","46750","","null","","","null","76","","","","","","","","","","","","","","","NaN",""
"","S1","","html-keyboard-response","488","533378","0.0-1.0-695.0","0","0","46750","","null","","","null","77","","","","","","","","","","","","","","","",""
"","ISI","","html-keyboard-response","489","535381","0.0-1.0-696.0","0","0","46750","","null","","","null","77","NaN","","","","","","","","","","","","","","",""
"","S2","","html-keyboard-response","490","535636","0.0-1.0-697.0","0","0","46750","","null","","","null","77","","NaN","","","","","","","","","","","","","",""
"","response","","html-keyboard-response","491","536134","0.0-1.0-698.0","0","0","46750","","494","","","68","77","","","2","77","training","adjacent","AB","1","2","M.jpg","N.jpg","1","1","1","",""
"","feedback","","html-keyboard-response","492","537139","0.0-1.0-699.0-0.0","0","0","46750","","null","","","null","77","","","","","","","","","","","","","","","",""
"","ITI","","html-keyboard-response","493","538144","0.0-1.0-702.0","0","0","46750","","null","","","null","77","","","","","","","","","","","","","","","NaN",""
"","S1","","html-keyboard-response","494","538400","0.0-1.0-704.0","0","0","46750","","null","","","null","78","","","","","","","","","","","","","","","",""
"","ISI","","html-keyboard-response","495","540418","0.0-1.0-705.0","0","0","46750","","null","","","null","78","NaN","","","","","","","","","","","","","","",""
"","S2","","html-keyboard-response","496","540672","0.0-1.0-706.0","0","0","46750","","null","","","null","78","","NaN","","","","","","","","","","","","","",""
"","response","","html-keyboard-response","497","540870","0.0-1.0-707.0","0","0","46750","","195","","","68","78","","","2","78","training","adjacent","AB","1","2","M.jpg","N.jpg","1","1","1","",""
"","feedback","","html-keyboard-response","498","541874","0.0-1.0-708.0-0.0","0","0","46750","","null","","","null","78","","","","","","","","","","","","","","","",""
"","ITI","","html-keyboard-response","499","542878","0.0-1.0-711.0","0","0","46750","","null","","","null","78","","","","","","","","","","","","","","","NaN",""
"","S1","","html-keyboard-response","500","543132","0.0-1.0-713.0","0","0","46750","","null","","","null","79","","","","","","","","","","","","","","","",""
"","ISI","","html-keyboard-response","501","545136","0.0-1.0-714.0","0","0","46750","","null","","","null","79","NaN","","","","","","","","","","","","","","",""
"","S2","","html-keyboard-response","502","545390","0.0-1.0-715.0","0","0","46750","","null","","","null","79","","NaN","","","","","","","","","","","","","",""
"","response","","html-keyboard-response","503","545883","0.0-1.0-716.0","0","0","46750","","491","","","75","79","","","2","79","training","adjacent","ED","5","4","Q.jpg","P.jpg","0","0","1","",""
"","feedback","","html-keyboard-response","504","546887","0.0-1.0-717.0-0.0","0","0","46750","","null","","","null","79","","","","","","","","","","","","","","","",""
"","ITI","","html-keyboard-response","505","547890","0.0-1.0-720.0","0","0","46750","","null","","","null","79","","","","","","","","","","","","","","","NaN",""
"","S1","","html-keyboard-response","506","548144","0.0-1.0-722.0","0","0","46750","","null","","","null","80","","","","","","","","","","","","","","","",""
"","ISI","","html-keyboard-response","507","550147","0.0-1.0-723.0","0","0","46750","","null","","","null","80","NaN","","","","","","","","","","","","","","",""
"","S2","","html-keyboard-response","508","550402","0.0-1.0-724.0","0","0","46750","","null","","","null","80","","NaN","","","","","","","","","","","","","",""
"","response","","html-keyboard-response","509","550862","0.0-1.0-725.0","0","0","46750","","457","","","75","80","","","2","80","training","adjacent","BA","2","1","N.jpg","M.jpg","0","0","1","",""
"","feedback","","html-keyboard-response","510","551867","0.0-1.0-726.0-0.0","0","0","46750","","null","","","null","80","","","","","","","","","","","","","","","",""
"","ITI","","html-keyboard-response","511","552871","0.0-1.0-729.0","0","0","46750","","null","","","null","80","","","","","","","","","","","","","","","NaN",""
"","S1","","html-keyboard-response","512","553126","0.0-1.0-731.0","0","0","46750","","null","","","null","81","","","","","","","","","","","","","","","",""
"","ISI","","html-keyboard-response","513","555129","0.0-1.0-732.0","0","0","46750","","null","","","null","81","NaN","","","","","","","","","","","","","","",""
"","S2","","html-keyboard-response","514","555396","0.0-1.0-733.0","0","0","46750","","null","","","null","81","","NaN","","","","","","","","","","","","","",""
"","response","","html-keyboard-response","515","555830","0.0-1.0-734.0","0","0","46750","","430","","","75","81","","","2","81","training","adjacent","CD","3","4","L.jpg","P.jpg","0","1","0","",""
"","feedback","","html-keyboard-response","516","556835","0.0-1.0-735.0-0.0","0","0","46750","","null","","","null","81","","","","","","","","","","","","","","","",""
"","time_out","","html-keyboard-response","517","558840","0.0-1.0-737.0-0.0","0","0","46750","","null","","","null","81","","","","","","","","","","","","","","","",""
"","ITI","","html-keyboard-response","518","559844","0.0-1.0-738.0","0","0","46750","","null","","","null","81","","","","","","","","","","","","","","","NaN",""
"","S1","","html-keyboard-response","519","560098","0.0-1.0-740.0","0","0","46750","","null","","","null","82","","","","","","","","","","","","","","","",""
"","ISI","","html-keyboard-response","520","562102","0.0-1.0-741.0","0","0","46750","","null","","","null","82","NaN","","","","","","","","","","","","","","",""
"","S2","","html-keyboard-response","521","562356","0.0-1.0-742.0","0","0","46750","","null","","","null","82","","NaN","","","","","","","","","","","","","",""
"","response","","html-keyboard-response","522","562870","0.0-1.0-743.0","0","0","46750","","510","","","75","82","","","2","82","training","adjacent","GF","7","6","R.jpg","O.jpg","0","0","1","",""
"","feedback","","html-keyboard-response","523","563875","0.0-1.0-744.0-0.0","0","0","46750","","null","","","null","82","","","","","","","","","","","","","","","",""
"","ITI","","html-keyboard-response","524","564879","0.0-1.0-747.0","0","0","46750","","null","","","null","82","","","","","","","","","","","","","","","NaN",""
"","S1","","html-keyboard-response","525","565134","0.0-1.0-749.0","0","0","46750","","null","","","null","83","","","","","","","","","","","","","","","",""
"","ISI","","html-keyboard-response","526","567137","0.0-1.0-750.0","0","0","46750","","null","","","null","83","NaN","","","","","","","","","","","","","","",""
"","S2","","html-keyboard-response","527","567391","0.0-1.0-751.0","0","0","46750","","null","","","null","83","","NaN","","","","","","","","","","","","","",""
"","response","","html-keyboard-response","528","568101","0.0-1.0-752.0","0","0","46750","","707","","","75","83","","","2","83","training","adjacent","FE","6","5","O.jpg","Q.jpg","0","0","1","",""
"","feedback","","html-keyboard-response","529","569106","0.0-1.0-753.0-0.0","0","0","46750","","null","","","null","83","","","","","","","","","","","","","","","",""
"","ITI","","html-keyboard-response","530","570111","0.0-1.0-756.0","0","0","46750","","null","","","null","83","","","","","","","","","","","","","","","NaN",""
"","S1","","html-keyboard-response","531","570366","0.0-1.0-758.0","0","0","46750","","null","","","null","84","","","","","","","","","","","","","","","",""
"","ISI","","html-keyboard-response","532","572369","0.0-1.0-759.0","0","0","46750","","null","","","null","84","NaN","","","","","","","","","","","","","","",""
"","S2","","html-keyboard-response","533","572635","0.0-1.0-760.0","0","0","46750","","null","","","null","84","","NaN","","","","","","","","","","","","","",""
"","response","","html-keyboard-response","534","573166","0.0-1.0-761.0","0","0","46750","","527","","","68","84","","","2","84","training","adjacent","DE","4","5","P.jpg","Q.jpg","1","1","1","",""
"","feedback","","html-keyboard-response","535","574170","0.0-1.0-762.0-0.0","0","0","46750","","null","","","null","84","","","","","","","","","","","","","","","",""
"","ITI","","html-keyboard-response","536","575174","0.0-1.0-765.0","0","0","46750","","null","","","null","84","","","","","","","","","","","","","","","NaN",""
"","S1","","html-keyboard-response","537","575428","0.0-1.0-767.0","0","0","46750","","null","","","null","85","","","","","","","","","","","","","","","",""
"","ISI","","html-keyboard-response","538","577432","0.0-1.0-768.0","0","0","46750","","null","","","null","85","NaN","","","","","","","","","","","","","","",""
"","S2","","html-keyboard-response","539","577686","0.0-1.0-769.0","0","0","46750","","null","","","null","85","","NaN","","","","","","","","","","","","","",""
"","response","","html-keyboard-response","540","577877","0.0-1.0-770.0","0","0","46750","","188","","","75","85","","","2","85","training","adjacent","GF","7","6","R.jpg","O.jpg","0","0","1","",""
"","feedback","","html-keyboard-response","541","578882","0.0-1.0-771.0-0.0","0","0","46750","","null","","","null","85","","","","","","","","","","","","","","","",""
"","ITI","","html-keyboard-response","542","579886","0.0-1.0-774.0","0","0","46750","","null","","","null","85","","","","","","","","","","","","","","","NaN",""
"","S1","","html-keyboard-response","543","580141","0.0-1.0-776.0","0","0","46750","","null","","","null","86","","","","","","","","","","","","","","","",""
"","ISI","","html-keyboard-response","544","582144","0.0-1.0-777.0","0","0","46750","","null","","","null","86","NaN","","","","","","","","","","","","","","",""
"","S2","","html-keyboard-response","545","582399","0.0-1.0-778.0","0","0","46750","","null","","","null","86","","NaN","","","","","","","","","","","","","",""
"","response","","html-keyboard-response","546","583262","0.0-1.0-779.0","0","0","46750","","859","","","68","86","","","2","86","training","adjacent","CB","3","2","L.jpg","N.jpg","1","0","0","",""
"","feedback","","html-keyboard-response","547","584268","0.0-1.0-780.0-0.0","0","0","46750","","null","","","null","86","","","","","","","","","","","","","","","",""
"","time_out","","html-keyboard-response","548","586272","0.0-1.0-782.0-0.0","0","0","46750","","null","","","null","86","","","","","","","","","","","","","","","",""
"","ITI","","html-keyboard-response","549","587276","0.0-1.0-783.0","0","0","46750","","null","","","null","86","","","","","","","","","","","","","","","NaN",""
"","S1","","html-keyboard-response","550","587530","0.0-1.0-785.0","0","0","46750","","null","","","null","87","","","","","","","","","","","","","","","",""
"","ISI","","html-keyboard-response","551","589534","0.0-1.0-786.0","0","0","46750","","null","","","null","87","NaN","","","","","","","","","","","","","","",""
"","S2","","html-keyboard-response","552","589789","0.0-1.0-787.0","0","0","46750","","null","","","null","87","","NaN","","","","","","","","","","","","","",""
"","response","","html-keyboard-response","553","590491","0.0-1.0-788.0","0","0","46750","","699","","","68","87","","","2","87","training","adjacent","EF","5","6","Q.jpg","O.jpg","1","1","1","",""
"","feedback","","html-keyboard-response","554","591495","0.0-1.0-789.0-0.0","0","0","46750","","null","","","null","87","","","","","","","","","","","","","","","",""
"","ITI","","html-keyboard-response","555","592498","0.0-1.0-792.0","0","0","46750","","null","","","null","87","","","","","","","","","","","","","","","NaN",""
"","S1","","html-keyboard-response","556","592751","0.0-1.0-794.0","0","0","46750","","null","","","null","88","","","","","","","","","","","","","","","",""
"","ISI","","html-keyboard-response","557","594755","0.0-1.0-795.0","0","0","46750","","null","","","null","88","NaN","","","","","","","","","","","","","","",""
"","S2","","html-keyboard-response","558","595009","0.0-1.0-796.0","0","0","46750","","null","","","null","88","","NaN","","","","","","","","","","","","","",""
"","response","","html-keyboard-response","559","595390","0.0-1.0-797.0","0","0","46750","","377","","","75","88","","","2","88","training","adjacent","ED","5","4","Q.jpg","P.jpg","0","0","1","",""
"","feedback","","html-keyboard-response","560","596395","0.0-1.0-798.0-0.0","0","0","46750","","null","","","null","88","","","","","","","","","","","","","","","",""
"","ITI","","html-keyboard-response","561","597399","0.0-1.0-801.0","0","0","46750","","null","","","null","88","","","","","","","","","","","","","","","NaN",""
"","S1","","html-keyboard-response","562","597667","0.0-1.0-803.0","0","0","46750","","null","","","null","89","","","","","","","","","","","","","","","",""
"","ISI","","html-keyboard-response","563","599671","0.0-1.0-804.0","0","0","46750","","null","","","null","89","NaN","","","","","","","","","","","","","","",""
"","S2","","html-keyboard-response","564","599926","0.0-1.0-805.0","0","0","46750","","null","","","null","89","","NaN","","","","","","","","","","","","","",""
"","response","","html-keyboard-response","565","600317","0.0-1.0-806.0","0","0","46750","","388","","","75","89","","","2","89","training","adjacent","BA","2","1","N.jpg","M.jpg","0","0","1","",""
"","feedback","","html-keyboard-response","566","601328","0.0-1.0-807.0-0.0","0","0","46750","","null","","","null","89","","","","","","","","","","","","","","","",""
"","ITI","","html-keyboard-response","567","602332","0.0-1.0-810.0","0","0","46750","","null","","","null","89","","","","","","","","","","","","","","","NaN",""
"","S1","","html-keyboard-response","568","602586","0.0-1.0-812.0","0","0","46750","","null","","","null","90","","","","","","","","","","","","","","","",""
"","ISI","","html-keyboard-response","569","604590","0.0-1.0-813.0","0","0","46750","","null","","","null","90","NaN","","","","","","","","","","","","","","",""
"","S2","","html-keyboard-response","570","604857","0.0-1.0-814.0","0","0","46750","","null","","","null","90","","NaN","","","","","","","","","","","","","",""
"","response","","html-keyboard-response","571","605382","0.0-1.0-815.0","0","0","46750","","521","","","75","90","","","2","90","training","adjacent","CD","3","4","L.jpg","P.jpg","0","1","0","",""
"","feedback","","html-keyboard-response","572","606386","0.0-1.0-816.0-0.0","0","0","46750","","null","","","null","90","","","","","","","","","","","","","","","",""
"","time_out","","html-keyboard-response","573","608391","0.0-1.0-818.0-0.0","0","0","46750","","null","","","null","90","","","","","","","","","","","","","","","",""
"","ITI","","html-keyboard-response","574","609396","0.0-1.0-819.0","0","0","46750","","null","","","null","90","","","","","","","","","","","","","","","NaN",""
"","S1","","html-keyboard-response","575","609650","0.0-1.0-821.0","0","0","46750","","null","","","null","91","","","","","","","","","","","","","","","",""
"","ISI","","html-keyboard-response","576","611654","0.0-1.0-822.0","0","0","46750","","null","","","null","91","NaN","","","","","","","","","","","","","","",""
"","S2","","html-keyboard-response","577","611908","0.0-1.0-823.0","0","0","46750","","null","","","null","91","","NaN","","","","","","","","","","","","","",""
"","response","","html-keyboard-response","578","612862","0.0-1.0-824.0","0","0","46750","","951","","","68","91","","","2","91","training","adjacent","FE","6","5","O.jpg","Q.jpg","1","0","0","",""
"","feedback","","html-keyboard-response","579","613867","0.0-1.0-825.0-0.0","0","0","46750","","null","","","null","91","","","","","","","","","","","","","","","",""
"","time_out","","html-keyboard-response","580","615871","0.0-1.0-827.0-0.0","0","0","46750","","null","","","null","91","","","","","","","","","","","","","","","",""
"","ITI","","html-keyboard-response","581","616874","0.0-1.0-828.0","0","0","46750","","null","","","null","91","","","","","","","","","","","","","","","NaN",""
"","S1","","html-keyboard-response","582","617128","0.0-1.0-830.0","0","0","46750","","null","","","null","92","","","","","","","","","","","","","","","",""
"","ISI","","html-keyboard-response","583","619132","0.0-1.0-831.0","0","0","46750","","null","","","null","92","NaN","","","","","","","","","","","","","","",""
"","S2","","html-keyboard-response","584","619387","0.0-1.0-832.0","0","0","46750","","null","","","null","92","","NaN","","","","","","","","","","","","","",""
