"success","ttype","start_time","trial_type","trial_index","time_elapsed","internal_node_id","warning","missed_checkup","PID","view_history","rt","responses","repeat_instructions","key_press","index","keypress_isi","keypress_S2","block","trial_num","phase","group_type","pair_type","S1_stim","S2_stim","S1_img","S2_img","S1_chosen","S1_higher","accuracy","keypress_iti","total_bonus_tally"
"true","full_screen","d03072023hr2229","fullscreen","0","10135","0.0-0.0","0","0","47611","","","","","","","","","","","","","","","","","","","","","",""
"","instructions","","instructions","1","39276","0.0-1.0-0.0-0.0","0","0","47611","[{""page_index"":0,""viewing_time"":8089},{""page_index"":1,""viewing_time"":13162},{""page_index"":2,""viewing_time"":6283},{""page_index"":3,""viewing_time"":1605}]","29139","","","","","","","","","","","","","","","","","","","",""
"","comprehension_check","","survey-multi-choice","2","56808","0.0-1.0-0.0-1.0","0","0","47611","","17530","{""Q0"":""True"",""Q1"":""K"",""Q2"":""Only when the screen 'MAKE A CHOICE' is shown"",""Q3"":""Green mark"",""Q4"":""either D or K""}","1","","","","","","","","","","","","","","","","","",""
"","missed_instruction_checkup","","html-keyboard-response","3","58386","0.0-1.0-0.0-2.0-0.0","0","1","47611","","1577","","","32","","","","","","","","","","","","","","","","",""
"","instructions","","instructions","4","76758","0.0-1.0-0.1-0.1","0","0","47611","[{""page_index"":0,""viewing_time"":3912},{""page_index"":1,""viewing_time"":11874},{""page_index"":2,""viewing_time"":1342},{""page_index"":3,""viewing_time"":1243}]","18371","","","","","","","","","","","","","","","","","","","",""
"","comprehension_check","","survey-multi-choice","5","85586","0.0-1.0-0.1-1.1","0","0","47611","","8826","{""Q0"":""True"",""Q1"":""K"",""Q2"":""Once the second image appears and while the screen 'MAKE A CHOICE' is shown"",""Q3"":""Green mark"",""Q4"":""either D or K""}","0","","","","","","","","","","","","","","","","","",""
"","start_exp","","html-keyboard-response","6","86937","0.0-1.0-1.0","0","0","47611","","1350","","","32","","","","","","","","","","","","","","","","",""
"","S1","","html-keyboard-response","7","87191","0.0-1.0-2.0","0","0","47611","","null","","","null","0","","","","","","","","","","","","","","","",""
"","ISI","","html-keyboard-response","8","88196","0.0-1.0-3.0","0","0","47611","","null","","","null","0","NaN","","","","","","","","","","","","","","",""
"","S2","","html-keyboard-response","9","88453","0.0-1.0-4.0","0","0","47611","","null","","","null","0","","NaN","","","","","","","","","","","","","",""
"","response","","html-keyboard-response","10","88843","0.0-1.0-5.0-0.0","0","0","47611","","389","","","75","0","","","1","0","training","adjacent","AB","1","2","N.jpg","Q.jpg","1","1","1","",""
"","feedback","","html-keyboard-response","11","90312","0.0-1.0-6.0-0.0","0","0","47611","","null","","","null","0","","","","","","","","","","","","","","","",""
"","ITI","","html-keyboard-response","12","92302","0.0-1.0-9.0","0","0","47611","","null","","","null","0","","","","","","","","","","","","","","","NaN",""
"","S1","","html-keyboard-response","13","93311","0.0-1.0-11.0","0","0","47611","","null","","","null","1","","","","","","","","","","","","","","","",""
"","ISI","","html-keyboard-response","14","95302","0.0-1.0-12.0","0","0","47611","","null","","","null","1","NaN","","","","","","","","","","","","","","",""
"","S2","","html-keyboard-response","15","96308","0.0-1.0-13.0","0","0","47611","","null","","","null","1","","NaN","","","","","","","","","","","","","",""
"","response","","html-keyboard-response","16","96378","0.0-1.0-14.0-0.0","0","0","47611","","69","","","68","1","","","1","1","training","adjacent","CB","3","2","O.jpg","Q.jpg","0","0","1","",""
"","feedback","","html-keyboard-response","17","97393","0.0-1.0-15.0-0.0","0","0","47611","","null","","","null","1","","","","","","","","","","","","","","","",""
"","ITI","","html-keyboard-response","18","98398","0.0-1.0-18.0","0","0","47611","","null","","","null","1","","","","","","","","","","","","","","","NaN",""
"","S1","","html-keyboard-response","19","98653","0.0-1.0-20.0","0","0","47611","","null","","","null","2","","","","","","","","","","","","","","","",""
"","ISI","","html-keyboard-response","20","99661","0.0-1.0-21.0","0","0","47611","","null","","","null","2","NaN","","","","","","","","","","","","","","",""
"","S2","","html-keyboard-response","21","99916","0.0-1.0-22.0","0","0","47611","","null","","","null","2","","NaN","","","","","","","","","","","","","",""
"","response","","html-keyboard-response","22","100378","0.0-1.0-23.0-0.0","0","0","47611","","461","","","75","2","","","1","2","training","adjacent","CD","3","4","O.jpg","M.jpg","1","1","1","",""
"","feedback","","html-keyboard-response","23","101382","0.0-1.0-24.0-0.0","0","0","47611","","null","","","null","2","","","","","","","","","","","","","","","",""
"","ITI","","html-keyboard-response","24","103310","0.0-1.0-27.0","0","0","47611","","null","","","null","2","","","","","","","","","","","","","","","NaN",""
"","S1","","html-keyboard-response","25","104313","0.0-1.0-29.0","0","0","47611","","null","","","null","3","","","","","","","","","","","","","","","",""
"","ISI","","html-keyboard-response","26","106307","0.0-1.0-30.0","0","0","47611","","null","","","null","3","NaN","","","","","","","","","","","","","","",""
"","S2","","html-keyboard-response","27","107234","0.0-1.0-31.0","0","0","47611","","925","","","75","3","","k","1","3","training","adjacent","GF","7","6","R.jpg","P.jpg","1","0","0","",""
"","feedback","","html-keyboard-response","28","108250","0.0-1.0-33.0-0.0","0","0","47611","","null","","","null","3","","","","","","","","","","","","","","","",""
"","time_out","","html-keyboard-response","29","110261","0.0-1.0-35.0-0.0","0","0","47611","","null","","","null","3","","","","","","","","","","","","","","","",""
"","ITI","","html-keyboard-response","30","111268","0.0-1.0-36.0","0","0","47611","","null","","","null","3","","","","","","","","","","","","","","","NaN",""
"","S1","","html-keyboard-response","31","111524","0.0-1.0-38.0","0","0","47611","","null","","","null","4","","","","","","","","","","","","","","","",""
"","ISI","","html-keyboard-response","32","113307","0.0-1.0-39.0","0","0","47611","","null","","","null","4","NaN","","","","","","","","","","","","","","",""
"","S2","","html-keyboard-response","33","114130","0.0-1.0-40.0","0","0","47611","","822","","","68","4","","d","1","4","training","adjacent","FE","6","5","P.jpg","L.jpg","0","0","1","",""
"","feedback","","html-keyboard-response","34","115143","0.0-1.0-42.0-0.0","0","0","47611","","null","","","null","4","","","","","","","","","","","","","","","",""
"","ITI","","html-keyboard-response","35","116149","0.0-1.0-45.0","0","0","47611","","null","","","null","4","","","","","","","","","","","","","","","NaN",""
"","S1","","html-keyboard-response","36","116404","0.0-1.0-47.0","0","0","47611","","null","","","null","5","","","","","","","","","","","","","","","",""
"","ISI","","html-keyboard-response","37","117409","0.0-1.0-48.0","0","0","47611","","null","","","null","5","NaN","","","","","","","","","","","","","","",""
"","S2","","html-keyboard-response","38","117664","0.0-1.0-49.0","0","0","47611","","null","","","null","5","","NaN","","","","","","","","","","","","","",""
"","response","","html-keyboard-response","39","118220","0.0-1.0-50.0-0.0","0","0","47611","","555","","","68","5","","","1","5","training","adjacent","FE","6","5","P.jpg","L.jpg","0","0","1","",""
"","feedback","","html-keyboard-response","40","119307","0.0-1.0-51.0-0.0","0","0","47611","","null","","","null","5","","","","","","","","","","","","","","","",""
"","ITI","","html-keyboard-response","41","121302","0.0-1.0-54.0","0","0","47611","","null","","","null","5","","","","","","","","","","","","","","","NaN",""
"","S1","","html-keyboard-response","42","122310","0.0-1.0-56.0","0","0","47611","","null","","","null","6","","","","","","","","","","","","","","","",""
"","ISI","","html-keyboard-response","43","124307","0.0-1.0-57.0","0","0","47611","","null","","","null","6","NaN","","","","","","","","","","","","","","",""
"","S2","","html-keyboard-response","44","125166","0.0-1.0-58.0","0","0","47611","","857","","","68","6","","d","1","6","training","adjacent","BA","2","1","Q.jpg","N.jpg","0","0","1","",""
"","feedback","","html-keyboard-response","45","126173","0.0-1.0-60.0-0.0","0","0","47611","","null","","","null","6","","","","","","","","","","","","","","","",""
"","ITI","","html-keyboard-response","46","127175","0.0-1.0-63.0","0","0","47611","","null","","","null","6","","","","","","","","","","","","","","","NaN",""
"","S1","","html-keyboard-response","47","127430","0.0-1.0-65.0","0","0","47611","","null","","","null","7","","","","","","","","","","","","","","","",""
"","ISI","","html-keyboard-response","48","128438","0.0-1.0-66.0","0","0","47611","","null","","","null","7","NaN","","","","","","","","","","","","","","",""
"","S2","","html-keyboard-response","49","128694","0.0-1.0-67.0","0","0","47611","","null","","","null","7","","NaN","","","","","","","","","","","","","",""
"","response","","html-keyboard-response","50","129013","0.0-1.0-68.0-0.0","0","0","47611","","318","","","75","7","","","1","7","training","adjacent","CB","3","2","O.jpg","Q.jpg","1","0","0","",""
"","feedback","","html-keyboard-response","51","130019","0.0-1.0-69.0-0.0","0","0","47611","","null","","","null","7","","","","","","","","","","","","","","","",""
"","time_out","","html-keyboard-response","52","132316","0.0-1.0-71.0-0.0","0","0","47611","","null","","","null","7","","","","","","","","","","","","","","","",""
"","ITI","","html-keyboard-response","53","134310","0.0-1.0-72.0","0","0","47611","","null","","","null","7","","","","","","","","","","","","","","","NaN",""
"","S1","","html-keyboard-response","54","135317","0.0-1.0-74.0","0","0","47611","","null","","","null","8","","","","","","","","","","","","","","","",""
"","ISI","","html-keyboard-response","55","137314","0.0-1.0-75.0","0","0","47611","","null","","","null","8","NaN","","","","","","","","","","","","","","",""
"","S2","","html-keyboard-response","56","138316","0.0-1.0-76.0","0","0","47611","","null","","","null","8","","NaN","","","","","","","","","","","","","",""
"","response","","html-keyboard-response","57","138403","0.0-1.0-77.0-0.0","0","0","47611","","86","","","68","8","","","1","8","training","adjacent","DC","4","3","M.jpg","O.jpg","0","0","1","",""
"","feedback","","html-keyboard-response","58","139417","0.0-1.0-78.0-0.0","0","0","47611","","null","","","null","8","","","","","","","","","","","","","","","",""
"","ITI","","html-keyboard-response","59","140423","0.0-1.0-81.0","0","0","47611","","null","","","null","8","","","","","","","","","","","","","","","NaN",""
"","S1","","html-keyboard-response","60","140679","0.0-1.0-83.0","0","0","47611","","null","","","null","9","","","","","","","","","","","","","","","",""
"","ISI","","html-keyboard-response","61","141683","0.0-1.0-84.0","0","0","47611","","null","","","null","9","NaN","","","","","","","","","","","","","","",""
"","S2","","html-keyboard-response","62","141938","0.0-1.0-85.0","0","0","47611","","null","","","null","9","","NaN","","","","","","","","","","","","","",""
"","response","","html-keyboard-response","63","142824","0.0-1.0-86.0-0.0","0","0","47611","","885","","","75","9","","","1","9","training","adjacent","AB","1","2","N.jpg","Q.jpg","1","1","1","",""
"","feedback","","html-keyboard-response","64","144314","0.0-1.0-87.0-0.0","0","0","47611","","null","","","null","9","","","","","","","","","","","","","","","",""
"","ITI","","html-keyboard-response","65","146309","0.0-1.0-90.0","0","0","47611","","null","","","null","9","","","","","","","","","","","","","","","NaN",""
"","S1","","html-keyboard-response","66","147315","0.0-1.0-92.0","0","0","47611","","null","","","null","10","","","","","","","","","","","","","","","",""
"","ISI","","html-keyboard-response","67","149307","0.0-1.0-93.0","0","0","47611","","null","","","null","10","NaN","","","","","","","","","","","","","","",""
"","S2","","html-keyboard-response","68","149993","0.0-1.0-94.0","0","0","47611","","684","","","68","10","","d","1","10","training","adjacent","BC","2","3","Q.jpg","O.jpg","0","1","0","",""
"","feedback","","html-keyboard-response","69","150996","0.0-1.0-96.0-0.0","0","0","47611","","null","","","null","10","","","","","","","","","","","","","","","",""
"","time_out","","html-keyboard-response","70","153011","0.0-1.0-98.0-0.0","0","0","47611","","null","","","null","10","","","","","","","","","","","","","","","",""
"","ITI","","html-keyboard-response","71","154014","0.0-1.0-99.0","0","0","47611","","null","","","null","10","","","","","","","","","","","","","","","NaN",""
"","S1","","html-keyboard-response","72","154269","0.0-1.0-101.0","0","0","47611","","null","","","null","11","","","","","","","","","","","","","","","",""
"","ISI","","html-keyboard-response","73","155303","0.0-1.0-102.0","0","0","47611","","null","","","null","11","NaN","","","","","","","","","","","","","","",""
"","S2","","html-keyboard-response","74","156309","0.0-1.0-103.0","0","0","47611","","null","","","null","11","","NaN","","","","","","","","","","","","","",""
"","response","","html-keyboard-response","75","156576","0.0-1.0-104.0-0.0","0","0","47611","","266","","","75","11","","","1","11","training","adjacent","DC","4","3","M.jpg","O.jpg","1","0","0","",""
"","feedback","","html-keyboard-response","76","157582","0.0-1.0-105.0-0.0","0","0","47611","","null","","","null","11","","","","","","","","","","","","","","","",""
"","time_out","","html-keyboard-response","77","159593","0.0-1.0-107.0-0.0","0","0","47611","","null","","","null","11","","","","","","","","","","","","","","","",""
"","ITI","","html-keyboard-response","78","160600","0.0-1.0-108.0","0","0","47611","","null","","","null","11","","","","","","","","","","","","","","","NaN",""
"","S1","","html-keyboard-response","79","160855","0.0-1.0-110.0","0","0","47611","","null","","","null","12","","","","","","","","","","","","","","","",""
"","ISI","","html-keyboard-response","80","162311","0.0-1.0-111.0","0","0","47611","","null","","","null","12","NaN","","","","","","","","","","","","","","",""
"","S2","","html-keyboard-response","81","163301","0.0-1.0-112.0","0","0","47611","","989","","","68","12","","d","1","12","training","adjacent","FG","6","7","P.jpg","R.jpg","0","1","0","",""
"","feedback","","html-keyboard-response","82","164309","0.0-1.0-114.0-0.0","0","0","47611","","null","","","null","12","","","","","","","","","","","","","","","",""
"","time_out","","html-keyboard-response","83","166317","0.0-1.0-116.0-0.0","0","0","47611","","null","","","null","12","","","","","","","","","","","","","","","",""
"","ITI","","html-keyboard-response","84","167322","0.0-1.0-117.0","0","0","47611","","null","","","null","12","","","","","","","","","","","","","","","NaN",""
"","S1","","html-keyboard-response","85","167577","0.0-1.0-119.0","0","0","47611","","null","","","null","13","","","","","","","","","","","","","","","",""
"","ISI","","html-keyboard-response","86","169303","0.0-1.0-120.0","0","0","47611","","null","","","null","13","NaN","","","","","","","","","","","","","","",""
"","S2","","html-keyboard-response","87","169875","0.0-1.0-121.0","0","0","47611","","571","","","75","13","","k","1","13","training","adjacent","GF","7","6","R.jpg","P.jpg","1","0","0","",""
"","feedback","","html-keyboard-response","88","170883","0.0-1.0-123.0-0.0","0","0","47611","","null","","","null","13","","","","","","","","","","","","","","","",""
"","time_out","","html-keyboard-response","89","172898","0.0-1.0-125.0-0.0","0","0","47611","","null","","","null","13","","","","","","","","","","","","","","","",""
"","ITI","","html-keyboard-response","90","173905","0.0-1.0-126.0","0","0","47611","","null","","","null","13","","","","","","","","","","","","","","","NaN",""
"","S1","","html-keyboard-response","91","174159","0.0-1.0-128.0","0","0","47611","","null","","","null","14","","","","","","","","","","","","","","","",""
"","ISI","","html-keyboard-response","92","175305","0.0-1.0-129.0","0","0","47611","","null","","","null","14","NaN","","","","","","","","","","","","","","",""
"","S2","","html-keyboard-response","93","176148","0.0-1.0-130.0","0","0","47611","","841","","","75","14","","k","1","14","training","adjacent","AB","1","2","N.jpg","Q.jpg","1","1","1","",""
"","feedback","","html-keyboard-response","94","177152","0.0-1.0-132.0-0.0","0","0","47611","","null","","","null","14","","","","","","","","","","","","","","","",""
"","ITI","","html-keyboard-response","95","178155","0.0-1.0-135.0","0","0","47611","","null","","","null","14","","","","","","","","","","","","","","","NaN",""
"","S1","","html-keyboard-response","96","178411","0.0-1.0-137.0","0","0","47611","","null","","","null","15","","","","","","","","","","","","","","","",""
"","ISI","","html-keyboard-response","97","179419","0.0-1.0-138.0","0","0","47611","","null","","","null","15","NaN","","","","","","","","","","","","","","",""
"","S2","","html-keyboard-response","98","179675","0.0-1.0-139.0","0","0","47611","","null","","","null","15","","NaN","","","","","","","","","","","","","",""
"","response","","html-keyboard-response","99","180010","0.0-1.0-140.0-0.0","0","0","47611","","334","","","75","15","","","1","15","training","adjacent","ED","5","4","L.jpg","M.jpg","1","0","0","",""
"","feedback","","html-keyboard-response","100","181013","0.0-1.0-141.0-0.0","0","0","47611","","null","","","null","15","","","","","","","","","","","","","","","",""
"","time_out","","html-keyboard-response","101","183313","0.0-1.0-143.0-0.0","0","0","47611","","null","","","null","15","","","","","","","","","","","","","","","",""
"","ITI","","html-keyboard-response","102","185312","0.0-1.0-144.0","0","0","47611","","null","","","null","15","","","","","","","","","","","","","","","NaN",""
"","S1","","html-keyboard-response","103","186312","0.0-1.0-146.0","0","0","47611","","null","","","null","16","","","","","","","","","","","","","","","",""
"","ISI","","html-keyboard-response","104","188317","0.0-1.0-147.0","0","0","47611","","null","","","null","16","NaN","","","","","","","","","","","","","","",""
"","S2","","html-keyboard-response","105","188811","0.0-1.0-148.0","0","0","47611","","492","","","75","16","","k","1","16","training","adjacent","CB","3","2","O.jpg","Q.jpg","1","0","0","",""
"","feedback","","html-keyboard-response","106","189816","0.0-1.0-150.0-0.0","0","0","47611","","null","","","null","16","","","","","","","","","","","","","","","",""
"","time_out","","html-keyboard-response","107","191830","0.0-1.0-152.0-0.0","0","0","47611","","null","","","null","16","","","","","","","","","","","","","","","",""
"","ITI","","html-keyboard-response","108","192835","0.0-1.0-153.0","0","0","47611","","null","","","null","16","","","","","","","","","","","","","","","NaN",""
"","S1","","html-keyboard-response","109","193091","0.0-1.0-155.0","0","0","47611","","null","","","null","17","","","","","","","","","","","","","","","",""
"","ISI","","html-keyboard-response","110","194304","0.0-1.0-156.0","0","0","47611","","null","","","null","17","NaN","","","","","","","","","","","","","","",""
"","S2","","html-keyboard-response","111","194986","0.0-1.0-157.0","0","0","47611","","681","","","68","17","","d","1","17","training","adjacent","BA","2","1","Q.jpg","N.jpg","0","0","1","",""
"","feedback","","html-keyboard-response","112","195993","0.0-1.0-159.0-0.0","0","0","47611","","null","","","null","17","","","","","","","","","","","","","","","",""
"","ITI","","html-keyboard-response","113","196995","0.0-1.0-162.0","0","0","47611","","null","","","null","17","","","","","","","","","","","","","","","NaN",""
"","S1","","html-keyboard-response","114","197250","0.0-1.0-164.0","0","0","47611","","null","","","null","18","","","","","","","","","","","","","","","",""
"","ISI","","html-keyboard-response","115","198254","0.0-1.0-165.0","0","0","47611","","null","","","null","18","NaN","","","","","","","","","","","","","","",""
"","S2","","html-keyboard-response","116","198508","0.0-1.0-166.0","0","0","47611","","null","","","null","18","","NaN","","","","","","","","","","","","","",""
"","response","","html-keyboard-response","117","199257","0.0-1.0-167.0-0.0","0","0","47611","","748","","","68","18","","","1","18","training","adjacent","FG","6","7","P.jpg","R.jpg","0","1","0","",""
"","feedback","","html-keyboard-response","118","200308","0.0-1.0-168.0-0.0","0","0","47611","","null","","","null","18","","","","","","","","","","","","","","","",""
"","time_out","","html-keyboard-response","119","203306","0.0-1.0-170.0-0.0","0","0","47611","","null","","","null","18","","","","","","","","","","","","","","","",""
"","ITI","","html-keyboard-response","120","205315","0.0-1.0-171.0","0","0","47611","","null","","","null","18","","","","","","","","","","","","","","","NaN",""
"","S1","","html-keyboard-response","121","206303","0.0-1.0-173.0","0","0","47611","","null","","","null","19","","","","","","","","","","","","","","","",""
"","ISI","","html-keyboard-response","122","208314","0.0-1.0-174.0","0","0","47611","","null","","","null","19","NaN","","","","","","","","","","","","","","",""
"","S2","","html-keyboard-response","123","208985","0.0-1.0-175.0","0","0","47611","","670","","","75","19","","k","1","19","training","adjacent","DC","4","3","M.jpg","O.jpg","1","0","0","",""
"","feedback","","html-keyboard-response","124","209989","0.0-1.0-177.0-0.0","0","0","47611","","null","","","null","19","","","","","","","","","","","","","","","",""
"","time_out","","html-keyboard-response","125","212002","0.0-1.0-179.0-0.0","0","0","47611","","null","","","null","19","","","","","","","","","","","","","","","",""
"","ITI","","html-keyboard-response","126","213008","0.0-1.0-180.0","0","0","47611","","null","","","null","19","","","","","","","","","","","","","","","NaN",""
"","S1","","html-keyboard-response","127","213263","0.0-1.0-182.0","0","0","47611","","null","","","null","20","","","","","","","","","","","","","","","",""
"","ISI","","html-keyboard-response","128","214317","0.0-1.0-183.0","0","0","47611","","null","","","null","20","NaN","","","","","","","","","","","","","","",""
"","S2","","html-keyboard-response","129","214869","0.0-1.0-184.0","0","0","47611","","550","","","68","20","","d","1","20","training","adjacent","FE","6","5","P.jpg","L.jpg","0","0","1","",""
"","feedback","","html-keyboard-response","130","215883","0.0-1.0-186.0-0.0","0","0","47611","","null","","","null","20","","","","","","","","","","","","","","","",""
"","ITI","","html-keyboard-response","131","216900","0.0-1.0-189.0","0","0","47611","","null","","","null","20","","","","","","","","","","","","","","","NaN",""
"","S1","","html-keyboard-response","132","217155","0.0-1.0-191.0","0","0","47611","","null","","","null","21","","","","","","","","","","","","","","","",""
"","ISI","","html-keyboard-response","133","218158","0.0-1.0-192.0","0","0","47611","","null","","","null","21","NaN","","","","","","","","","","","","","","",""
"","S2","","html-keyboard-response","134","218414","0.0-1.0-193.0","0","0","47611","","null","","","null","21","","NaN","","","","","","","","","","","","","",""
"","response","","html-keyboard-response","135","218730","0.0-1.0-194.0-0.0","0","0","47611","","315","","","75","21","","","1","21","training","adjacent","ED","5","4","L.jpg","M.jpg","1","0","0","",""
"","feedback","","html-keyboard-response","136","219739","0.0-1.0-195.0-0.0","0","0","47611","","null","","","null","21","","","","","","","","","","","","","","","",""
"","time_out","","html-keyboard-response","137","222314","0.0-1.0-197.0-0.0","0","0","47611","","null","","","null","21","","","","","","","","","","","","","","","",""
"","ITI","","html-keyboard-response","138","224316","0.0-1.0-198.0","0","0","47611","","null","","","null","21","","","","","","","","","","","","","","","NaN",""
"","S1","","html-keyboard-response","139","225306","0.0-1.0-200.0","0","0","47611","","null","","","null","22","","","","","","","","","","","","","","","",""
"","ISI","","html-keyboard-response","140","227302","0.0-1.0-201.0","0","0","47611","","null","","","null","22","NaN","","","","","","","","","","","","","","",""
"","S2","","html-keyboard-response","141","227974","0.0-1.0-202.0","0","0","47611","","671","","","68","22","","d","1","22","training","adjacent","DC","4","3","M.jpg","O.jpg","0","0","1","",""
"","feedback","","html-keyboard-response","142","228977","0.0-1.0-204.0-0.0","0","0","47611","","null","","","null","22","","","","","","","","","","","","","","","",""
"","ITI","","html-keyboard-response","143","229984","0.0-1.0-207.0","0","0","47611","","null","","","null","22","","","","","","","","","","","","","","","NaN",""
"","S1","","html-keyboard-response","144","230240","0.0-1.0-209.0","0","0","47611","","null","","","null","23","","","","","","","","","","","","","","","",""
"","ISI","","html-keyboard-response","145","231246","0.0-1.0-210.0","0","0","47611","","null","","","null","23","NaN","","","","","","","","","","","","","","",""
"","S2","","html-keyboard-response","146","231501","0.0-1.0-211.0","0","0","47611","","null","","","null","23","","NaN","","","","","","","","","","","","","",""
"","response","","html-keyboard-response","147","231806","0.0-1.0-212.0-0.0","0","0","47611","","303","","","75","23","","","1","23","training","adjacent","GF","7","6","R.jpg","P.jpg","1","0","0","",""
"","feedback","","html-keyboard-response","148","232814","0.0-1.0-213.0-0.0","0","0","47611","","null","","","null","23","","","","","","","","","","","","","","","",""
"","time_out","","html-keyboard-response","149","235303","0.0-1.0-215.0-0.0","0","0","47611","","null","","","null","23","","","","","","","","","","","","","","","",""
"","ITI","","html-keyboard-response","150","237311","0.0-1.0-216.0","0","0","47611","","null","","","null","23","","","","","","","","","","","","","","","NaN",""
"","S1","","html-keyboard-response","151","238317","0.0-1.0-218.0","0","0","47611","","null","","","null","24","","","","","","","","","","","","","","","",""
"","ISI","","html-keyboard-response","152","240315","0.0-1.0-219.0","0","0","47611","","null","","","null","24","NaN","","","","","","","","","","","","","","",""
"","S2","","html-keyboard-response","153","241307","0.0-1.0-220.0","0","0","47611","","null","","","null","24","","NaN","","","","","","","","","","","","","",""
"","response","","html-keyboard-response","154","241396","0.0-1.0-221.0-0.0","0","0","47611","","87","","","68","24","","","1","24","training","adjacent","FG","6","7","P.jpg","R.jpg","0","1","0","",""
"","feedback","","html-keyboard-response","155","242409","0.0-1.0-222.0-0.0","0","0","47611","","null","","","null","24","","","","","","","","","","","","","","","",""
"","time_out","","html-keyboard-response","156","244417","0.0-1.0-224.0-0.0","0","0","47611","","null","","","null","24","","","","","","","","","","","","","","","",""
"","ITI","","html-keyboard-response","157","245425","0.0-1.0-225.0","0","0","47611","","null","","","null","24","","","","","","","","","","","","","","","NaN",""
"","S1","","html-keyboard-response","158","245681","0.0-1.0-227.0","0","0","47611","","null","","","null","25","","","","","","","","","","","","","","","",""
"","ISI","","html-keyboard-response","159","247318","0.0-1.0-228.0","0","0","47611","","null","","","null","25","NaN","","","","","","","","","","","","","","",""
"","S2","","html-keyboard-response","160","247699","0.0-1.0-229.0","0","0","47611","","380","","","68","25","","d","1","25","training","adjacent","BA","2","1","Q.jpg","N.jpg","0","0","1","",""
"","feedback","","html-keyboard-response","161","248700","0.0-1.0-231.0-0.0","0","0","47611","","null","","","null","25","","","","","","","","","","","","","","","",""
"","ITI","","html-keyboard-response","162","249715","0.0-1.0-234.0","0","0","47611","","null","","","null","25","","","","","","","","","","","","","","","NaN",""
"","S1","","html-keyboard-response","163","249970","0.0-1.0-236.0","0","0","47611","","null","","","null","26","","","","","","","","","","","","","","","",""
"","ISI","","html-keyboard-response","164","250975","0.0-1.0-237.0","0","0","47611","","null","","","null","26","NaN","","","","","","","","","","","","","","",""
"","S2","","html-keyboard-response","165","251229","0.0-1.0-238.0","0","0","47611","","null","","","null","26","","NaN","","","","","","","","","","","","","",""
"","response","","html-keyboard-response","166","251768","0.0-1.0-239.0-0.0","0","0","47611","","539","","","68","26","","","1","26","training","adjacent","CD","3","4","O.jpg","M.jpg","0","1","0","",""
"","feedback","","html-keyboard-response","167","253317","0.0-1.0-240.0-0.0","0","0","47611","","null","","","null","26","","","","","","","","","","","","","","","",""
"","time_out","","html-keyboard-response","168","256317","0.0-1.0-242.0-0.0","0","0","47611","","null","","","null","26","","","","","","","","","","","","","","","",""
"","ITI","","html-keyboard-response","169","258309","0.0-1.0-243.0","0","0","47611","","null","","","null","26","","","","","","","","","","","","","","","NaN",""
"","S1","","html-keyboard-response","170","259317","0.0-1.0-245.0","0","0","47611","","null","","","null","27","","","","","","","","","","","","","","","",""
"","ISI","","html-keyboard-response","171","261313","0.0-1.0-246.0","0","0","47611","","null","","","null","27","NaN","","","","","","","","","","","","","","",""
"","S2","","html-keyboard-response","172","261812","0.0-1.0-247.0","0","0","47611","","498","","","75","27","","k","1","27","training","adjacent","EF","5","6","L.jpg","P.jpg","1","1","1","",""
"","feedback","","html-keyboard-response","173","262814","0.0-1.0-249.0-0.0","0","0","47611","","null","","","null","27","","","","","","","","","","","","","","","",""
"","ITI","","html-keyboard-response","174","263818","0.0-1.0-252.0","0","0","47611","","null","","","null","27","","","","","","","","","","","","","","","NaN",""
"","S1","","html-keyboard-response","175","264073","0.0-1.0-254.0","0","0","47611","","null","","","null","28","","","","","","","","","","","","","","","",""
"","ISI","","html-keyboard-response","176","265079","0.0-1.0-255.0","0","0","47611","","null","","","null","28","NaN","","","","","","","","","","","","","","",""
"","S2","","html-keyboard-response","177","265334","0.0-1.0-256.0","0","0","47611","","null","","","null","28","","NaN","","","","","","","","","","","","","",""
"","response","","html-keyboard-response","178","265958","0.0-1.0-257.0-0.0","0","0","47611","","622","","","75","28","","","1","28","training","adjacent","AB","1","2","N.jpg","Q.jpg","1","1","1","",""
"","feedback","","html-keyboard-response","179","267309","0.0-1.0-258.0-0.0","0","0","47611","","null","","","null","28","","","","","","","","","","","","","","","",""
"","ITI","","html-keyboard-response","180","269306","0.0-1.0-261.0","0","0","47611","","null","","","null","28","","","","","","","","","","","","","","","NaN",""
"","S1","","html-keyboard-response","181","270314","0.0-1.0-263.0","0","0","47611","","null","","","null","29","","","","","","","","","","","","","","","",""
"","ISI","","html-keyboard-response","182","272309","0.0-1.0-264.0","0","0","47611","","null","","","null","29","NaN","","","","","","","","","","","","","","",""
"","S2","","html-keyboard-response","183","273267","0.0-1.0-265.0","0","0","47611","","957","","","68","29","","d","1","29","training","adjacent","BC","2","3","Q.jpg","O.jpg","0","1","0","",""
"","feedback","","html-keyboard-response","184","274268","0.0-1.0-267.0-0.0","0","0","47611","","null","","","null","29","","","","","","","","","","","","","","","",""
"","time_out","","html-keyboard-response","185","276279","0.0-1.0-269.0-0.0","0","0","47611","","null","","","null","29","","","","","","","","","","","","","","","",""
"","ITI","","html-keyboard-response","186","277284","0.0-1.0-270.0","0","0","47611","","null","","","null","29","","","","","","","","","","","","","","","NaN",""
"","S1","","html-keyboard-response","187","277539","0.0-1.0-272.0","0","0","47611","","null","","","null","30","","","","","","","","","","","","","","","",""
"","ISI","","html-keyboard-response","188","279310","0.0-1.0-273.0","0","0","47611","","null","","","null","30","NaN","","","","","","","","","","","","","","",""
"","S2","","html-keyboard-response","189","279942","0.0-1.0-274.0","0","0","47611","","632","","","75","30","","k","1","30","training","adjacent","BA","2","1","Q.jpg","N.jpg","1","0","0","",""
"","feedback","","html-keyboard-response","190","280954","0.0-1.0-276.0-0.0","0","0","47611","","null","","","null","30","","","","","","","","","","","","","","","",""
"","time_out","","html-keyboard-response","191","282958","0.0-1.0-278.0-0.0","0","0","47611","","null","","","null","30","","","","","","","","","","","","","","","",""
"","ITI","","html-keyboard-response","192","283961","0.0-1.0-279.0","0","0","47611","","null","","","null","30","","","","","","","","","","","","","","","NaN",""
"","S1","","html-keyboard-response","193","284214","0.0-1.0-281.0","0","0","47611","","null","","","null","31","","","","","","","","","","","","","","","",""
"","ISI","","html-keyboard-response","194","285314","0.0-1.0-282.0","0","0","47611","","null","","","null","31","NaN","","","","","","","","","","","","","","",""
"","S2","","html-keyboard-response","195","286190","0.0-1.0-283.0","0","0","47611","","874","","","68","31","","d","1","31","training","adjacent","ED","5","4","L.jpg","M.jpg","0","0","1","",""
"","feedback","","html-keyboard-response","196","287199","0.0-1.0-285.0-0.0","0","0","47611","","null","","","null","31","","","","","","","","","","","","","","","",""
"","ITI","","html-keyboard-response","197","288202","0.0-1.0-288.0","0","0","47611","","null","","","null","31","","","","","","","","","","","","","","","NaN",""
"","S1","","html-keyboard-response","198","288457","0.0-1.0-290.0","0","0","47611","","null","","","null","32","","","","","","","","","","","","","","","",""
"","ISI","","html-keyboard-response","199","289461","0.0-1.0-291.0","0","0","47611","","null","","","null","32","NaN","","","","","","","","","","","","","","",""
"","S2","","html-keyboard-response","200","289716","0.0-1.0-292.0","0","0","47611","","null","","","null","32","","NaN","","","","","","","","","","","","","",""
"","response","","html-keyboard-response","201","290224","0.0-1.0-293.0-0.0","0","0","47611","","507","","","75","32","","","1","32","training","adjacent","DE","4","5","M.jpg","L.jpg","1","1","1","",""
"","feedback","","html-keyboard-response","202","291312","0.0-1.0-294.0-0.0","0","0","47611","","null","","","null","32","","","","","","","","","","","","","","","",""
"","ITI","","html-keyboard-response","203","293307","0.0-1.0-297.0","0","0","47611","","null","","","null","32","","","","","","","","","","","","","","","NaN",""
"","S1","","html-keyboard-response","204","294314","0.0-1.0-299.0","0","0","47611","","null","","","null","33","","","","","","","","","","","","","","","",""
"","ISI","","html-keyboard-response","205","295320","0.0-1.0-300.0","0","0","47611","","218","","","68","33","d","","","","","","","","","","","","","","",""
"","S2","","html-keyboard-response","206","295575","0.0-1.0-301.0","0","0","47611","","null","","","null","33","","NaN","","","","","","","","","","","","","",""
"","response","","html-keyboard-response","207","295647","0.0-1.0-302.0-0.0","0","0","47611","","70","","","68","33","","","1","33","training","adjacent","CB","3","2","O.jpg","Q.jpg","0","0","1","",""
"","feedback","","html-keyboard-response","208","296656","0.0-1.0-303.0-0.0","0","0","47611","","null","","","null","33","","","","","","","","","","","","","","","",""
"","ITI","","html-keyboard-response","209","297664","0.0-1.0-306.0","0","0","47611","","null","","","null","33","","","","","","","","","","","","","","","NaN",""
"","S1","","html-keyboard-response","210","297918","0.0-1.0-308.0","0","0","47611","","null","","","null","34","","","","","","","","","","","","","","","",""
"","ISI","","html-keyboard-response","211","298922","0.0-1.0-309.0","0","0","47611","","null","","","null","34","NaN","","","","","","","","","","","","","","",""
"","S2","","html-keyboard-response","212","299177","0.0-1.0-310.0","0","0","47611","","null","","","null","34","","NaN","","","","","","","","","","","","","",""
"","response","","html-keyboard-response","213","299761","0.0-1.0-311.0-0.0","0","0","47611","","583","","","68","34","","","1","34","training","adjacent","DE","4","5","M.jpg","L.jpg","0","1","0","",""
"","feedback","","html-keyboard-response","214","300773","0.0-1.0-312.0-0.0","0","0","47611","","null","","","null","34","","","","","","","","","","","","","","","",""
"","time_out","","html-keyboard-response","215","302783","0.0-1.0-314.0-0.0","0","0","47611","","null","","","null","34","","","","","","","","","","","","","","","",""
"","ITI","","html-keyboard-response","216","303791","0.0-1.0-315.0","0","0","47611","","null","","","null","34","","","","","","","","","","","","","","","NaN",""
"","S1","","html-keyboard-response","217","304045","0.0-1.0-317.0","0","0","47611","","null","","","null","35","","","","","","","","","","","","","","","",""
"","ISI","","html-keyboard-response","218","305308","0.0-1.0-318.0","0","0","47611","","null","","","null","35","NaN","","","","","","","","","","","","","","",""
"","S2","","html-keyboard-response","219","305621","0.0-1.0-319.0","0","0","47611","","312","","","68","35","","d","1","35","training","adjacent","BC","2","3","Q.jpg","O.jpg","0","1","0","",""
"","feedback","","html-keyboard-response","220","306630","0.0-1.0-321.0-0.0","0","0","47611","","null","","","null","35","","","","","","","","","","","","","","","",""
"","time_out","","html-keyboard-response","221","308641","0.0-1.0-323.0-0.0","0","0","47611","","null","","","null","35","","","","","","","","","","","","","","","",""
"","ITI","","html-keyboard-response","222","309646","0.0-1.0-324.0","0","0","47611","","null","","","null","35","","","","","","","","","","","","","","","NaN",""
"","S1","","html-keyboard-response","223","309901","0.0-1.0-326.0","0","0","47611","","null","","","null","36","","","","","","","","","","","","","","","",""
"","ISI","","html-keyboard-response","224","311308","0.0-1.0-327.0","0","0","47611","","null","","","null","36","NaN","","","","","","","","","","","","","","",""
"","S2","","html-keyboard-response","225","311924","0.0-1.0-328.0","0","0","47611","","614","","","68","36","","d","1","36","training","adjacent","DE","4","5","M.jpg","L.jpg","0","1","0","",""
"","feedback","","html-keyboard-response","226","312936","0.0-1.0-330.0-0.0","0","0","47611","","null","","","null","36","","","","","","","","","","","","","","","",""
"","time_out","","html-keyboard-response","227","314950","0.0-1.0-332.0-0.0","0","0","47611","","null","","","null","36","","","","","","","","","","","","","","","",""
"","ITI","","html-keyboard-response","228","315955","0.0-1.0-333.0","0","0","47611","","null","","","null","36","","","","","","","","","","","","","","","NaN",""
"","S1","","html-keyboard-response","229","316211","0.0-1.0-335.0","0","0","47611","","null","","","null","37","","","","","","","","","","","","","","","",""
"","ISI","","html-keyboard-response","230","317309","0.0-1.0-336.0","0","0","47611","","null","","","null","37","NaN","","","","","","","","","","","","","","",""
"","S2","","html-keyboard-response","231","318190","0.0-1.0-337.0","0","0","47611","","879","","","75","37","","k","1","37","training","adjacent","EF","5","6","L.jpg","P.jpg","1","1","1","",""
"","feedback","","html-keyboard-response","232","319194","0.0-1.0-339.0-0.0","0","0","47611","","null","","","null","37","","","","","","","","","","","","","","","",""
"","ITI","","html-keyboard-response","233","320199","0.0-1.0-342.0","0","0","47611","","null","","","null","37","","","","","","","","","","","","","","","NaN",""
"","S1","","html-keyboard-response","234","320454","0.0-1.0-344.0","0","0","47611","","null","","","null","38","","","","","","","","","","","","","","","",""
"","ISI","","html-keyboard-response","235","321462","0.0-1.0-345.0","0","0","47611","","null","","","null","38","NaN","","","","","","","","","","","","","","",""
"","S2","","html-keyboard-response","236","321718","0.0-1.0-346.0","0","0","47611","","null","","","null","38","","NaN","","","","","","","","","","","","","",""
"","response","","html-keyboard-response","237","322258","0.0-1.0-347.0-0.0","0","0","47611","","539","","","68","38","","","1","38","training","adjacent","CD","3","4","O.jpg","M.jpg","0","1","0","",""
"","feedback","","html-keyboard-response","238","323315","0.0-1.0-348.0-0.0","0","0","47611","","null","","","null","38","","","","","","","","","","","","","","","",""
"","time_out","","html-keyboard-response","239","326316","0.0-1.0-350.0-0.0","0","0","47611","","null","","","null","38","","","","","","","","","","","","","","","",""
"","ITI","","html-keyboard-response","240","328310","0.0-1.0-351.0","0","0","47611","","null","","","null","38","","","","","","","","","","","","","","","NaN",""
"","S1","","html-keyboard-response","241","329315","0.0-1.0-353.0","0","0","47611","","null","","","null","39","","","","","","","","","","","","","","","",""
"","ISI","","html-keyboard-response","242","331308","0.0-1.0-354.0","0","0","47611","","null","","","null","39","NaN","","","","","","","","","","","","","","",""
"","S2","","html-keyboard-response","243","331897","0.0-1.0-355.0","0","0","47611","","588","","","68","39","","d","1","39","training","adjacent","DE","4","5","M.jpg","L.jpg","0","1","0","",""
"","feedback","","html-keyboard-response","244","332903","0.0-1.0-357.0-0.0","0","0","47611","","null","","","null","39","","","","","","","","","","","","","","","",""
"","time_out","","html-keyboard-response","245","334918","0.0-1.0-359.0-0.0","0","0","47611","","null","","","null","39","","","","","","","","","","","","","","","",""
"","ITI","","html-keyboard-response","246","335925","0.0-1.0-360.0","0","0","47611","","null","","","null","39","","","","","","","","","","","","","","","NaN",""
"","S1","","html-keyboard-response","247","336179","0.0-1.0-362.0","0","0","47611","","null","","","null","40","","","","","","","","","","","","","","","",""
"","ISI","","html-keyboard-response","248","337311","0.0-1.0-363.0","0","0","47611","","null","","","null","40","NaN","","","","","","","","","","","","","","",""
"","S2","","html-keyboard-response","249","337904","0.0-1.0-364.0","0","0","47611","","592","","","75","40","","k","1","40","training","adjacent","EF","5","6","L.jpg","P.jpg","1","1","1","",""
"","feedback","","html-keyboard-response","250","338908","0.0-1.0-366.0-0.0","0","0","47611","","null","","","null","40","","","","","","","","","","","","","","","",""
"","ITI","","html-keyboard-response","251","339912","0.0-1.0-369.0","0","0","47611","","null","","","null","40","","","","","","","","","","","","","","","NaN",""
"","S1","","html-keyboard-response","252","340168","0.0-1.0-371.0","0","0","47611","","null","","","null","41","","","","","","","","","","","","","","","",""
"","ISI","","html-keyboard-response","253","341173","0.0-1.0-372.0","0","0","47611","","null","","","null","41","NaN","","","","","","","","","","","","","","",""
"","S2","","html-keyboard-response","254","341429","0.0-1.0-373.0","0","0","47611","","null","","","null","41","","NaN","","","","","","","","","","","","","",""
"","response","","html-keyboard-response","255","342035","0.0-1.0-374.0-0.0","0","0","47611","","604","","","68","41","","","1","41","training","adjacent","BC","2","3","Q.jpg","O.jpg","0","1","0","",""
"","feedback","","html-keyboard-response","256","343314","0.0-1.0-375.0-0.0","0","0","47611","","null","","","null","41","","","","","","","","","","","","","","","",""
"","time_out","","html-keyboard-response","257","346312","0.0-1.0-377.0-0.0","0","0","47611","","null","","","null","41","","","","","","","","","","","","","","","",""
"","ITI","","html-keyboard-response","258","348305","0.0-1.0-378.0","0","0","47611","","null","","","null","41","","","","","","","","","","","","","","","NaN",""
"","S1","","html-keyboard-response","259","349312","0.0-1.0-380.0","0","0","47611","","null","","","null","42","","","","","","","","","","","","","","","",""
"","ISI","","html-keyboard-response","260","351307","0.0-1.0-381.0","0","0","47611","","null","","","null","42","NaN","","","","","","","","","","","","","","",""
"","S2","","html-keyboard-response","261","352313","0.0-1.0-382.0","0","0","47611","","null","","","null","42","","NaN","","","","","","","","","","","","","",""
"","response","","html-keyboard-response","262","352558","0.0-1.0-383.0-0.0","0","0","47611","","244","","","68","42","","","1","42","training","adjacent","FG","6","7","P.jpg","R.jpg","0","1","0","",""
"","feedback","","html-keyboard-response","263","353561","0.0-1.0-384.0-0.0","0","0","47611","","null","","","null","42","","","","","","","","","","","","","","","",""
"","time_out","","html-keyboard-response","264","355570","0.0-1.0-386.0-0.0","0","0","47611","","null","","","null","42","","","","","","","","","","","","","","","",""
"","ITI","","html-keyboard-response","265","356575","0.0-1.0-387.0","0","0","47611","","null","","","null","42","","","","","","","","","","","","","","","NaN",""
"","S1","","html-keyboard-response","266","356831","0.0-1.0-389.0","0","0","47611","","null","","","null","43","","","","","","","","","","","","","","","",""
"","ISI","","html-keyboard-response","267","358302","0.0-1.0-390.0","0","0","47611","","null","","","null","43","NaN","","","","","","","","","","","","","","",""
"","S2","","html-keyboard-response","268","359309","0.0-1.0-391.0","0","0","47611","","null","","","null","43","","NaN","","","","","","","","","","","","","",""
"","response","","html-keyboard-response","269","359409","0.0-1.0-392.0-0.0","0","0","47611","","99","","","68","43","","","1","43","training","adjacent","FE","6","5","P.jpg","L.jpg","0","0","1","",""
"","feedback","","html-keyboard-response","270","360423","0.0-1.0-393.0-0.0","0","0","47611","","null","","","null","43","","","","","","","","","","","","","","","",""
"","ITI","","html-keyboard-response","271","361429","0.0-1.0-396.0","0","0","47611","","null","","","null","43","","","","","","","","","","","","","","","NaN",""
"","S1","","html-keyboard-response","272","361685","0.0-1.0-398.0","0","0","47611","","null","","","null","44","","","","","","","","","","","","","","","",""
"","ISI","","html-keyboard-response","273","362693","0.0-1.0-399.0","0","0","47611","","null","","","null","44","NaN","","","","","","","","","","","","","","",""
"","S2","","html-keyboard-response","274","362949","0.0-1.0-400.0","0","0","47611","","null","","","null","44","","NaN","","","","","","","","","","","","","",""
"","response","","html-keyboard-response","275","363261","0.0-1.0-401.0-0.0","0","0","47611","","310","","","75","44","","","1","44","training","adjacent","EF","5","6","L.jpg","P.jpg","1","1","1","",""
"","feedback","","html-keyboard-response","276","364275","0.0-1.0-402.0-0.0","0","0","47611","","null","","","null","44","","","","","","","","","","","","","","","",""
"","ITI","","html-keyboard-response","277","365313","0.0-1.0-405.0","0","0","47611","","null","","","null","44","","","","","","","","","","","","","","","NaN",""
"","S1","","html-keyboard-response","278","366302","0.0-1.0-407.0","0","0","47611","","null","","","null","45","","","","","","","","","","","","","","","",""
"","ISI","","html-keyboard-response","279","368313","0.0-1.0-408.0","0","0","47611","","null","","","null","45","NaN","","","","","","","","","","","","","","",""
"","S2","","html-keyboard-response","280","369039","0.0-1.0-409.0","0","0","47611","","725","","","75","45","","k","1","45","training","adjacent","GF","7","6","R.jpg","P.jpg","1","0","0","",""
"","feedback","","html-keyboard-response","281","370049","0.0-1.0-411.0-0.0","0","0","47611","","null","","","null","45","","","","","","","","","","","","","","","",""
"","time_out","","html-keyboard-response","282","372060","0.0-1.0-413.0-0.0","0","0","47611","","null","","","null","45","","","","","","","","","","","","","","","",""
"","ITI","","html-keyboard-response","283","373066","0.0-1.0-414.0","0","0","47611","","null","","","null","45","","","","","","","","","","","","","","","NaN",""
"","S1","","html-keyboard-response","284","373321","0.0-1.0-416.0","0","0","47611","","null","","","null","46","","","","","","","","","","","","","","","",""
"","ISI","","html-keyboard-response","285","375304","0.0-1.0-417.0","0","0","47611","","null","","","null","46","NaN","","","","","","","","","","","","","","",""
"","S2","","html-keyboard-response","286","376082","0.0-1.0-418.0","0","0","47611","","777","","","68","46","","d","1","46","training","adjacent","ED","5","4","L.jpg","M.jpg","0","0","1","",""
"","feedback","","html-keyboard-response","287","377091","0.0-1.0-420.0-0.0","0","0","47611","","null","","","null","46","","","","","","","","","","","","","","","",""
"","ITI","","html-keyboard-response","288","378107","0.0-1.0-423.0","0","0","47611","","null","","","null","46","","","","","","","","","","","","","","","NaN",""
"","S1","","html-keyboard-response","289","378360","0.0-1.0-425.0","0","0","47611","","null","","","null","47","","","","","","","","","","","","","","","",""
"","ISI","","html-keyboard-response","290","379364","0.0-1.0-426.0","0","0","47611","","null","","","null","47","NaN","","","","","","","","","","","","","","",""
"","S2","","html-keyboard-response","291","379620","0.0-1.0-427.0","0","0","47611","","null","","","null","47","","NaN","","","","","","","","","","","","","",""
"","response","","html-keyboard-response","292","380360","0.0-1.0-428.0-0.0","0","0","47611","","739","","","68","47","","","1","47","training","adjacent","CD","3","4","O.jpg","M.jpg","0","1","0","",""
"","feedback","","html-keyboard-response","293","382312","0.0-1.0-429.0-0.0","0","0","47611","","null","","","null","47","","","","","","","","","","","","","","","",""
"","time_out","","html-keyboard-response","294","385312","0.0-1.0-431.0-0.0","0","0","47611","","null","","","null","47","","","","","","","","","","","","","","","",""
"","ITI","","html-keyboard-response","295","387305","0.0-1.0-432.0","0","0","47611","","null","","","null","47","","","","","","","","","","","","","","","NaN",""
"","block_over","","html-keyboard-response","296","393968","0.0-1.0-433.0-0.0","0","0","47611","","6662","","","32","47","","","","","","","","","","","","","","","",""
"","S1","","html-keyboard-response","297","394228","0.0-1.0-434.0","0","0","47611","","null","","","null","48","","","","","","","","","","","","","","","",""
"","ISI","","html-keyboard-response","298","395234","0.0-1.0-435.0","0","0","47611","","null","","","null","48","NaN","","","","","","","","","","","","","","",""
"","S2","","html-keyboard-response","299","395489","0.0-1.0-436.0","0","0","47611","","null","","","null","48","","NaN","","","","","","","","","","","","","",""
"","response","","html-keyboard-response","300","396156","0.0-1.0-437.0-0.0","0","0","47611","","666","","","75","48","","","2","48","training","adjacent","GF","7","6","R.jpg","P.jpg","1","0","0","",""
"","feedback","","html-keyboard-response","301","397157","0.0-1.0-438.0-0.0","0","0","47611","","null","","","null","48","","","","","","","","","","","","","","","",""
"","time_out","","html-keyboard-response","302","399314","0.0-1.0-440.0-0.0","0","0","47611","","null","","","null","48","","","","","","","","","","","","","","","",""
"","ITI","","html-keyboard-response","303","401304","0.0-1.0-441.0","0","0","47611","","null","","","null","48","","","","","","","","","","","","","","","NaN",""
"","S1","","html-keyboard-response","304","402310","0.0-1.0-443.0","0","0","47611","","null","","","null","49","","","","","","","","","","","","","","","",""
"","ISI","","html-keyboard-response","305","404303","0.0-1.0-444.0","0","0","47611","","null","","","null","49","NaN","","","","","","","","","","","","","","",""
"","S2","","html-keyboard-response","306","405115","0.0-1.0-445.0","0","0","47611","","811","","","68","49","","d","2","49","training","adjacent","CD","3","4","O.jpg","M.jpg","0","1","0","",""
"","feedback","","html-keyboard-response","307","406120","0.0-1.0-447.0-0.0","0","0","47611","","null","","","null","49","","","","","","","","","","","","","","","",""
"","time_out","","html-keyboard-response","308","408131","0.0-1.0-449.0-0.0","0","0","47611","","null","","","null","49","","","","","","","","","","","","","","","",""
"","ITI","","html-keyboard-response","309","409137","0.0-1.0-450.0","0","0","47611","","null","","","null","49","","","","","","","","","","","","","","","NaN",""
"","S1","","html-keyboard-response","310","409393","0.0-1.0-452.0","0","0","47611","","null","","","null","50","","","","","","","","","","","","","","","",""
"","ISI","","html-keyboard-response","311","410401","0.0-1.0-453.0","0","0","47611","","null","","","null","50","NaN","","","","","","","","","","","","","","",""
"","S2","","html-keyboard-response","312","410658","0.0-1.0-454.0","0","0","47611","","null","","","null","50","","NaN","","","","","","","","","","","","","",""
"","response","","html-keyboard-response","313","411149","0.0-1.0-455.0-0.0","0","0","47611","","490","","","68","50","","","2","50","training","adjacent","FG","6","7","P.jpg","R.jpg","0","1","0","",""
"","feedback","","html-keyboard-response","314","412158","0.0-1.0-456.0-0.0","0","0","47611","","null","","","null","50","","","","","","","","","","","","","","","",""
"","time_out","","html-keyboard-response","315","414168","0.0-1.0-458.0-0.0","0","0","47611","","null","","","null","50","","","","","","","","","","","","","","","",""
"","ITI","","html-keyboard-response","316","415177","0.0-1.0-459.0","0","0","47611","","null","","","null","50","","","","","","","","","","","","","","","NaN",""
"","S1","","html-keyboard-response","317","416309","0.0-1.0-461.0","0","0","47611","","null","","","null","51","","","","","","","","","","","","","","","",""
"","ISI","","html-keyboard-response","318","418307","0.0-1.0-462.0","0","0","47611","","null","","","null","51","NaN","","","","","","","","","","","","","","",""
"","S2","","html-keyboard-response","319","418864","0.0-1.0-463.0","0","0","47611","","556","","","68","51","","d","2","51","training","adjacent","FG","6","7","P.jpg","R.jpg","0","1","0","",""
"","feedback","","html-keyboard-response","320","419871","0.0-1.0-465.0-0.0","0","0","47611","","null","","","null","51","","","","","","","","","","","","","","","",""
"","time_out","","html-keyboard-response","321","421881","0.0-1.0-467.0-0.0","0","0","47611","","null","","","null","51","","","","","","","","","","","","","","","",""
"","ITI","","html-keyboard-response","322","422887","0.0-1.0-468.0","0","0","47611","","null","","","null","51","","","","","","","","","","","","","","","NaN",""
"","S1","","html-keyboard-response","323","423143","0.0-1.0-470.0","0","0","47611","","null","","","null","52","","","","","","","","","","","","","","","",""
"","ISI","","html-keyboard-response","324","424311","0.0-1.0-471.0","0","0","47611","","null","","","null","52","NaN","","","","","","","","","","","","","","",""
"","S2","","html-keyboard-response","325","425184","0.0-1.0-472.0","0","0","47611","","872","","","68","52","","d","2","52","training","adjacent","CD","3","4","O.jpg","M.jpg","0","1","0","",""
"","feedback","","html-keyboard-response","326","426195","0.0-1.0-474.0-0.0","0","0","47611","","null","","","null","52","","","","","","","","","","","","","","","",""
"","time_out","","html-keyboard-response","327","428205","0.0-1.0-476.0-0.0","0","0","47611","","null","","","null","52","","","","","","","","","","","","","","","",""
"","ITI","","html-keyboard-response","328","429210","0.0-1.0-477.0","0","0","47611","","null","","","null","52","","","","","","","","","","","","","","","NaN",""
"","S1","","html-keyboard-response","329","429465","0.0-1.0-479.0","0","0","47611","","null","","","null","53","","","","","","","","","","","","","","","",""
"","ISI","","html-keyboard-response","330","431317","0.0-1.0-480.0","0","0","47611","","null","","","null","53","NaN","","","","","","","","","","","","","","",""
"","S2","","html-keyboard-response","331","431913","0.0-1.0-481.0","0","0","47611","","595","","","75","53","","k","2","53","training","adjacent","GF","7","6","R.jpg","P.jpg","1","0","0","",""
"","feedback","","html-keyboard-response","332","432915","0.0-1.0-483.0-0.0","0","0","47611","","null","","","null","53","","","","","","","","","","","","","","","",""
"","time_out","","html-keyboard-response","333","434926","0.0-1.0-485.0-0.0","0","0","47611","","null","","","null","53","","","","","","","","","","","","","","","",""
"","ITI","","html-keyboard-response","334","435933","0.0-1.0-486.0","0","0","47611","","null","","","null","53","","","","","","","","","","","","","","","NaN",""
"","S1","","html-keyboard-response","335","436188","0.0-1.0-488.0","0","0","47611","","null","","","null","54","","","","","","","","","","","","","","","",""
"","ISI","","html-keyboard-response","336","437317","0.0-1.0-489.0","0","0","47611","","null","","","null","54","NaN","","","","","","","","","","","","","","",""
"","S2","","html-keyboard-response","337","438153","0.0-1.0-490.0","0","0","47611","","836","","","68","54","","d","2","54","training","adjacent","AB","1","2","N.jpg","Q.jpg","0","1","0","",""
"","feedback","","html-keyboard-response","338","439161","0.0-1.0-492.0-0.0","0","0","47611","","null","","","null","54","","","","","","","","","","","","","","","",""
"","time_out","","html-keyboard-response","339","441171","0.0-1.0-494.0-0.0","0","0","47611","","null","","","null","54","","","","","","","","","","","","","","","",""
"","ITI","","html-keyboard-response","340","442176","0.0-1.0-495.0","0","0","47611","","null","","","null","54","","","","","","","","","","","","","","","NaN",""
"","S1","","html-keyboard-response","341","442430","0.0-1.0-497.0","0","0","47611","","null","","","null","55","","","","","","","","","","","","","","","",""
"","ISI","","html-keyboard-response","342","444315","0.0-1.0-498.0","0","0","47611","","null","","","null","55","NaN","","","","","","","","","","","","","","",""
"","S2","","html-keyboard-response","343","444752","0.0-1.0-499.0","0","0","47611","","436","","","68","55","","d","2","55","training","adjacent","BA","2","1","Q.jpg","N.jpg","0","0","1","",""
"","feedback","","html-keyboard-response","344","445755","0.0-1.0-501.0-0.0","0","0","47611","","null","","","null","55","","","","","","","","","","","","","","","",""
"","ITI","","html-keyboard-response","345","446757","0.0-1.0-504.0","0","0","47611","","null","","","null","55","","","","","","","","","","","","","","","NaN",""
"","S1","","html-keyboard-response","346","447014","0.0-1.0-506.0","0","0","47611","","null","","","null","56","","","","","","","","","","","","","","","",""
"","ISI","","html-keyboard-response","347","448019","0.0-1.0-507.0","0","0","47611","","null","","","null","56","NaN","","","","","","","","","","","","","","",""
"","S2","","html-keyboard-response","348","448274","0.0-1.0-508.0","0","0","47611","","null","","","null","56","","NaN","","","","","","","","","","","","","",""
"","response","","html-keyboard-response","349","448658","0.0-1.0-509.0-0.0","0","0","47611","","383","","","68","56","","","2","56","training","adjacent","FE","6","5","P.jpg","L.jpg","0","0","1","",""
"","feedback","","html-keyboard-response","350","449662","0.0-1.0-510.0-0.0","0","0","47611","","null","","","null","56","","","","","","","","","","","","","","","",""
"","ITI","","html-keyboard-response","351","451309","0.0-1.0-513.0","0","0","47611","","null","","","null","56","","","","","","","","","","","","","","","NaN",""
"","S1","","html-keyboard-response","352","452316","0.0-1.0-515.0","0","0","47611","","null","","","null","57","","","","","","","","","","","","","","","",""
"","ISI","","html-keyboard-response","353","454309","0.0-1.0-516.0","0","0","47611","","null","","","null","57","NaN","","","","","","","","","","","","","","",""
"","S2","","html-keyboard-response","354","454856","0.0-1.0-517.0","0","0","47611","","545","","","68","57","","d","2","57","training","adjacent","DE","4","5","M.jpg","L.jpg","0","1","0","",""
"","feedback","","html-keyboard-response","355","455859","0.0-1.0-519.0-0.0","0","0","47611","","null","","","null","57","","","","","","","","","","","","","","","",""
"","time_out","","html-keyboard-response","356","457870","0.0-1.0-521.0-0.0","0","0","47611","","null","","","null","57","","","","","","","","","","","","","","","",""
"","ITI","","html-keyboard-response","357","458874","0.0-1.0-522.0","0","0","47611","","null","","","null","57","","","","","","","","","","","","","","","NaN",""
"","S1","","html-keyboard-response","358","459130","0.0-1.0-524.0","0","0","47611","","null","","","null","58","","","","","","","","","","","","","","","",""
"","ISI","","html-keyboard-response","359","460310","0.0-1.0-525.0","0","0","47611","","null","","","null","58","NaN","","","","","","","","","","","","","","",""
"","S2","","html-keyboard-response","360","460716","0.0-1.0-526.0","0","0","47611","","405","","","68","58","","d","2","58","training","adjacent","BC","2","3","Q.jpg","O.jpg","0","1","0","",""
"","feedback","","html-keyboard-response","361","461731","0.0-1.0-528.0-0.0","0","0","47611","","null","","","null","58","","","","","","","","","","","","","","","",""
"","time_out","","html-keyboard-response","362","463744","0.0-1.0-530.0-0.0","0","0","47611","","null","","","null","58","","","","","","","","","","","","","","","",""
"","ITI","","html-keyboard-response","363","464749","0.0-1.0-531.0","0","0","47611","","null","","","null","58","","","","","","","","","","","","","","","NaN",""
"","S1","","html-keyboard-response","364","465002","0.0-1.0-533.0","0","0","47611","","null","","","null","59","","","","","","","","","","","","","","","",""
"","ISI","","html-keyboard-response","365","466309","0.0-1.0-534.0","0","0","47611","","null","","","null","59","NaN","","","","","","","","","","","","","","",""
"","S2","","html-keyboard-response","366","466959","0.0-1.0-535.0","0","0","47611","","648","","","75","59","","k","2","59","training","adjacent","EF","5","6","L.jpg","P.jpg","1","1","1","",""
"","feedback","","html-keyboard-response","367","467971","0.0-1.0-537.0-0.0","0","0","47611","","null","","","null","59","","","","","","","","","","","","","","","",""
"","ITI","","html-keyboard-response","368","468974","0.0-1.0-540.0","0","0","47611","","null","","","null","59","","","","","","","","","","","","","","","NaN",""
"","S1","","html-keyboard-response","369","469229","0.0-1.0-542.0","0","0","47611","","null","","","null","60","","","","","","","","","","","","","","","",""
"","ISI","","html-keyboard-response","370","470237","0.0-1.0-543.0","0","0","47611","","null","","","null","60","NaN","","","","","","","","","","","","","","",""
"","S2","","html-keyboard-response","371","470493","0.0-1.0-544.0","0","0","47611","","null","","","null","60","","NaN","","","","","","","","","","","","","",""
"","response","","html-keyboard-response","372","470919","0.0-1.0-545.0-0.0","0","0","47611","","426","","","68","60","","","2","60","training","adjacent","CD","3","4","O.jpg","M.jpg","0","1","0","",""
"","feedback","","html-keyboard-response","373","471925","0.0-1.0-546.0-0.0","0","0","47611","","null","","","null","60","","","","","","","","","","","","","","","",""
"","time_out","","html-keyboard-response","374","474304","0.0-1.0-548.0-0.0","0","0","47611","","null","","","null","60","","","","","","","","","","","","","","","",""
"","ITI","","html-keyboard-response","375","476313","0.0-1.0-549.0","0","0","47611","","null","","","null","60","","","","","","","","","","","","","","","NaN",""
"","S1","","html-keyboard-response","376","477304","0.0-1.0-551.0","0","0","47611","","null","","","null","61","","","","","","","","","","","","","","","",""
"","ISI","","html-keyboard-response","377","479309","0.0-1.0-552.0","0","0","47611","","null","","","null","61","NaN","","","","","","","","","","","","","","",""
"","S2","","html-keyboard-response","378","480049","0.0-1.0-553.0","0","0","47611","","739","","","68","61","","d","2","61","training","adjacent","FG","6","7","P.jpg","R.jpg","0","1","0","",""
"","feedback","","html-keyboard-response","379","481050","0.0-1.0-555.0-0.0","0","0","47611","","null","","","null","61","","","","","","","","","","","","","","","",""
"","time_out","","html-keyboard-response","380","483061","0.0-1.0-557.0-0.0","0","0","47611","","null","","","null","61","","","","","","","","","","","","","","","",""
"","ITI","","html-keyboard-response","381","484067","0.0-1.0-558.0","0","0","47611","","null","","","null","61","","","","","","","","","","","","","","","NaN",""
"","S1","","html-keyboard-response","382","484322","0.0-1.0-560.0","0","0","47611","","null","","","null","62","","","","","","","","","","","","","","","",""
"","ISI","","html-keyboard-response","383","486302","0.0-1.0-561.0","0","0","47611","","null","","","null","62","NaN","","","","","","","","","","","","","","",""
"","S2","","html-keyboard-response","384","486973","0.0-1.0-562.0","0","0","47611","","670","","","75","62","","k","2","62","training","adjacent","CB","3","2","O.jpg","Q.jpg","1","0","0","",""
"","feedback","","html-keyboard-response","385","487978","0.0-1.0-564.0-0.0","0","0","47611","","null","","","null","62","","","","","","","","","","","","","","","",""
"","time_out","","html-keyboard-response","386","489985","0.0-1.0-566.0-0.0","0","0","47611","","null","","","null","62","","","","","","","","","","","","","","","",""
"","ITI","","html-keyboard-response","387","490990","0.0-1.0-567.0","0","0","47611","","null","","","null","62","","","","","","","","","","","","","","","NaN",""
"","S1","","html-keyboard-response","388","491246","0.0-1.0-569.0","0","0","47611","","null","","","null","63","","","","","","","","","","","","","","","",""
"","ISI","","html-keyboard-response","389","492317","0.0-1.0-570.0","0","0","47611","","null","","","null","63","NaN","","","","","","","","","","","","","","",""
"","S2","","html-keyboard-response","390","492989","0.0-1.0-571.0","0","0","47611","","672","","","68","63","","d","2","63","training","adjacent","DC","4","3","M.jpg","O.jpg","0","0","1","",""
"","feedback","","html-keyboard-response","391","493992","0.0-1.0-573.0-0.0","0","0","47611","","null","","","null","63","","","","","","","","","","","","","","","",""
"","ITI","","html-keyboard-response","392","494998","0.0-1.0-576.0","0","0","47611","","null","","","null","63","","","","","","","","","","","","","","","NaN",""
"","S1","","html-keyboard-response","393","495253","0.0-1.0-578.0","0","0","47611","","null","","","null","64","","","","","","","","","","","","","","","",""
"","ISI","","html-keyboard-response","394","496255","0.0-1.0-579.0","0","0","47611","","null","","","null","64","NaN","","","","","","","","","","","","","","",""
"","S2","","html-keyboard-response","395","496509","0.0-1.0-580.0","0","0","47611","","null","","","null","64","","NaN","","","","","","","","","","","","","",""
"","response","","html-keyboard-response","396","496718","0.0-1.0-581.0-0.0","0","0","47611","","209","","","68","64","","","2","64","training","adjacent","GF","7","6","R.jpg","P.jpg","0","0","1","",""
"","feedback","","html-keyboard-response","397","497730","0.0-1.0-582.0-0.0","0","0","47611","","null","","","null","64","","","","","","","","","","","","","","","",""
"","ITI","","html-keyboard-response","398","499307","0.0-1.0-585.0","0","0","47611","","null","","","null","64","","","","","","","","","","","","","","","NaN",""
"","S1","","html-keyboard-response","399","500312","0.0-1.0-587.0","0","0","47611","","null","","","null","65","","","","","","","","","","","","","","","",""
"","ISI","","html-keyboard-response","400","502310","0.0-1.0-588.0","0","0","47611","","null","","","null","65","NaN","","","","","","","","","","","","","","",""
"","S2","","html-keyboard-response","401","502935","0.0-1.0-589.0","0","0","47611","","624","","","75","65","","k","2","65","training","adjacent","CB","3","2","O.jpg","Q.jpg","1","0","0","",""
"","feedback","","html-keyboard-response","402","503937","0.0-1.0-591.0-0.0","0","0","47611","","null","","","null","65","","","","","","","","","","","","","","","",""
"","time_out","","html-keyboard-response","403","505949","0.0-1.0-593.0-0.0","0","0","47611","","null","","","null","65","","","","","","","","","","","","","","","",""
"","ITI","","html-keyboard-response","404","506954","0.0-1.0-594.0","0","0","47611","","null","","","null","65","","","","","","","","","","","","","","","NaN",""
"","S1","","html-keyboard-response","405","507221","0.0-1.0-596.0","0","0","47611","","null","","","null","66","","","","","","","","","","","","","","","",""
"","ISI","","html-keyboard-response","406","508309","0.0-1.0-597.0","0","0","47611","","null","","","null","66","NaN","","","","","","","","","","","","","","",""
"","S2","","html-keyboard-response","407","508759","0.0-1.0-598.0","0","0","47611","","449","","","68","66","","d","2","66","training","adjacent","BC","2","3","Q.jpg","O.jpg","0","1","0","",""
"","feedback","","html-keyboard-response","408","509776","0.0-1.0-600.0-0.0","0","0","47611","","null","","","null","66","","","","","","","","","","","","","","","",""
"","time_out","","html-keyboard-response","409","511787","0.0-1.0-602.0-0.0","0","0","47611","","null","","","null","66","","","","","","","","","","","","","","","",""
"","ITI","","html-keyboard-response","410","512791","0.0-1.0-603.0","0","0","47611","","null","","","null","66","","","","","","","","","","","","","","","NaN",""
"","S1","","html-keyboard-response","411","513046","0.0-1.0-605.0","0","0","47611","","null","","","null","67","","","","","","","","","","","","","","","",""
"","ISI","","html-keyboard-response","412","514307","0.0-1.0-606.0","0","0","47611","","null","","","null","67","NaN","","","","","","","","","","","","","","",""
"","S2","","html-keyboard-response","413","514869","0.0-1.0-607.0","0","0","47611","","561","","","75","67","","k","2","67","training","adjacent","DE","4","5","M.jpg","L.jpg","1","1","1","",""
"","feedback","","html-keyboard-response","414","515883","0.0-1.0-609.0-0.0","0","0","47611","","null","","","null","67","","","","","","","","","","","","","","","",""
"","ITI","","html-keyboard-response","415","516899","0.0-1.0-612.0","0","0","47611","","null","","","null","67","","","","","","","","","","","","","","","NaN",""
"","S1","","html-keyboard-response","416","517154","0.0-1.0-614.0","0","0","47611","","null","","","null","68","","","","","","","","","","","","","","","",""
"","ISI","","html-keyboard-response","417","518159","0.0-1.0-615.0","0","0","47611","","null","","","null","68","NaN","","","","","","","","","","","","","","",""
"","S2","","html-keyboard-response","418","518414","0.0-1.0-616.0","0","0","47611","","null","","","null","68","","NaN","","","","","","","","","","","","","",""
"","response","","html-keyboard-response","419","518820","0.0-1.0-617.0-0.0","0","0","47611","","406","","","68","68","","","2","68","training","adjacent","FE","6","5","P.jpg","L.jpg","0","0","1","",""
"","feedback","","html-keyboard-response","420","519831","0.0-1.0-618.0-0.0","0","0","47611","","null","","","null","68","","","","","","","","","","","","","","","",""
"","ITI","","html-keyboard-response","421","521316","0.0-1.0-621.0","0","0","47611","","null","","","null","68","","","","","","","","","","","","","","","NaN",""
"","S1","","html-keyboard-response","422","522304","0.0-1.0-623.0","0","0","47611","","null","","","null","69","","","","","","","","","","","","","","","",""
"","ISI","","html-keyboard-response","423","524315","0.0-1.0-624.0","0","0","47611","","null","","","null","69","NaN","","","","","","","","","","","","","","",""
"","S2","","html-keyboard-response","424","524743","0.0-1.0-625.0","0","0","47611","","427","","","75","69","","k","2","69","training","adjacent","BC","2","3","Q.jpg","O.jpg","1","1","1","",""
"","feedback","","html-keyboard-response","425","525751","0.0-1.0-627.0-0.0","0","0","47611","","null","","","null","69","","","","","","","","","","","","","","","",""
"","ITI","","html-keyboard-response","426","526755","0.0-1.0-630.0","0","0","47611","","null","","","null","69","","","","","","","","","","","","","","","NaN",""
"","S1","","html-keyboard-response","427","527009","0.0-1.0-632.0","0","0","47611","","null","","","null","70","","","","","","","","","","","","","","","",""
"","ISI","","html-keyboard-response","428","528015","0.0-1.0-633.0","0","0","47611","","null","","","null","70","NaN","","","","","","","","","","","","","","",""
"","S2","","html-keyboard-response","429","528270","0.0-1.0-634.0","0","0","47611","","null","","","null","70","","NaN","","","","","","","","","","","","","",""
"","response","","html-keyboard-response","430","528983","0.0-1.0-635.0-0.0","0","0","47611","","713","","","68","70","","","2","70","training","adjacent","CB","3","2","O.jpg","Q.jpg","0","0","1","",""
"","feedback","","html-keyboard-response","431","530313","0.0-1.0-636.0-0.0","0","0","47611","","null","","","null","70","","","","","","","","","","","","","","","",""
"","ITI","","html-keyboard-response","432","532307","0.0-1.0-639.0","0","0","47611","","null","","","null","70","","","","","","","","","","","","","","","NaN",""
"","S1","","html-keyboard-response","433","533313","0.0-1.0-641.0","0","0","47611","","null","","","null","71","","","","","","","","","","","","","","","",""
"","ISI","","html-keyboard-response","434","535309","0.0-1.0-642.0","0","0","47611","","null","","","null","71","NaN","","","","","","","","","","","","","","",""
"","S2","","html-keyboard-response","435","535769","0.0-1.0-643.0","0","0","47611","","460","","","68","71","","d","2","71","training","adjacent","DE","4","5","M.jpg","L.jpg","0","1","0","",""
"","feedback","","html-keyboard-response","436","536777","0.0-1.0-645.0-0.0","0","0","47611","","null","","","null","71","","","","","","","","","","","","","","","",""
"","time_out","","html-keyboard-response","437","538791","0.0-1.0-647.0-0.0","0","0","47611","","null","","","null","71","","","","","","","","","","","","","","","",""
"","ITI","","html-keyboard-response","438","539795","0.0-1.0-648.0","0","0","47611","","null","","","null","71","","","","","","","","","","","","","","","NaN",""
"","S1","","html-keyboard-response","439","540050","0.0-1.0-650.0","0","0","47611","","null","","","null","72","","","","","","","","","","","","","","","",""
"","ISI","","html-keyboard-response","440","541312","0.0-1.0-651.0","0","0","47611","","null","","","null","72","NaN","","","","","","","","","","","","","","",""
"","S2","","html-keyboard-response","441","541909","0.0-1.0-652.0","0","0","47611","","595","","","68","72","","d","2","72","training","adjacent","BA","2","1","Q.jpg","N.jpg","0","0","1","",""
"","feedback","","html-keyboard-response","442","542926","0.0-1.0-654.0-0.0","0","0","47611","","null","","","null","72","","","","","","","","","","","","","","","",""
"","ITI","","html-keyboard-response","443","543931","0.0-1.0-657.0","0","0","47611","","null","","","null","72","","","","","","","","","","","","","","","NaN",""
"","S1","","html-keyboard-response","444","544187","0.0-1.0-659.0","0","0","47611","","null","","","null","73","","","","","","","","","","","","","","","",""
"","ISI","","html-keyboard-response","445","545191","0.0-1.0-660.0","0","0","47611","","null","","","null","73","NaN","","","","","","","","","","","","","","",""
"","S2","","html-keyboard-response","446","545445","0.0-1.0-661.0","0","0","47611","","null","","","null","73","","NaN","","","","","","","","","","","","","",""
"","response","","html-keyboard-response","447","545986","0.0-1.0-662.0-0.0","0","0","47611","","540","","","75","73","","","2","73","training","adjacent","FE","6","5","P.jpg","L.jpg","1","0","0","",""
"","feedback","","html-keyboard-response","448","547311","0.0-1.0-663.0-0.0","0","0","47611","","null","","","null","73","","","","","","","","","","","","","","","",""
"","time_out","","html-keyboard-response","449","550311","0.0-1.0-665.0-0.0","0","0","47611","","null","","","null","73","","","","","","","","","","","","","","","",""
"","ITI","","html-keyboard-response","450","552304","0.0-1.0-666.0","0","0","47611","","null","","","null","73","","","","","","","","","","","","","","","NaN",""
"","S1","","html-keyboard-response","451","553309","0.0-1.0-668.0","0","0","47611","","null","","","null","74","","","","","","","","","","","","","","","",""
"","ISI","","html-keyboard-response","452","555304","0.0-1.0-669.0","0","0","47611","","null","","","null","74","NaN","","","","","","","","","","","","","","",""
"","S2","","html-keyboard-response","453","556017","0.0-1.0-670.0","0","0","47611","","712","","","75","74","","k","2","74","training","adjacent","AB","1","2","N.jpg","Q.jpg","1","1","1","",""
"","feedback","","html-keyboard-response","454","557025","0.0-1.0-672.0-0.0","0","0","47611","","null","","","null","74","","","","","","","","","","","","","","","",""
"","ITI","","html-keyboard-response","455","558038","0.0-1.0-675.0","0","0","47611","","null","","","null","74","","","","","","","","","","","","","","","NaN",""
"","S1","","html-keyboard-response","456","558293","0.0-1.0-677.0","0","0","47611","","null","","","null","75","","","","","","","","","","","","","","","",""
"","ISI","","html-keyboard-response","457","559299","0.0-1.0-678.0","0","0","47611","","null","","","null","75","NaN","","","","","","","","","","","","","","",""
"","S2","","html-keyboard-response","458","559555","0.0-1.0-679.0","0","0","47611","","null","","","null","75","","NaN","","","","","","","","","","","","","",""
"","response","","html-keyboard-response","459","559918","0.0-1.0-680.0-0.0","0","0","47611","","362","","","68","75","","","2","75","training","adjacent","GF","7","6","R.jpg","P.jpg","0","0","1","",""
"","feedback","","html-keyboard-response","460","560927","0.0-1.0-681.0-0.0","0","0","47611","","null","","","null","75","","","","","","","","","","","","","","","",""
"","ITI","","html-keyboard-response","461","562315","0.0-1.0-684.0","0","0","47611","","null","","","null","75","","","","","","","","","","","","","","","NaN",""
"","S1","","html-keyboard-response","462","563303","0.0-1.0-686.0","0","0","47611","","null","","","null","76","","","","","","","","","","","","","","","",""
"","ISI","","html-keyboard-response","463","565316","0.0-1.0-687.0","0","0","47611","","null","","","null","76","NaN","","","","","","","","","","","","","","",""
"","S2","","html-keyboard-response","464","566250","0.0-1.0-688.0","0","0","47611","","932","","","68","76","","d","2","76","training","adjacent","AB","1","2","N.jpg","Q.jpg","0","1","0","",""
"","feedback","","html-keyboard-response","465","567263","0.0-1.0-690.0-0.0","0","0","47611","","null","","","null","76","","","","","","","","","","","","","","","",""
"","time_out","","html-keyboard-response","466","569267","0.0-1.0-692.0-0.0","0","0","47611","","null","","","null","76","","","","","","","","","","","","","","","",""
"","ITI","","html-keyboard-response","467","570271","0.0-1.0-693.0","0","0","47611","","null","","","null","76","","","","","","","","","","","","","","","NaN",""
"","S1","","html-keyboard-response","468","570525","0.0-1.0-695.0","0","0","47611","","null","","","null","77","","","","","","","","","","","","","","","",""
"","ISI","","html-keyboard-response","469","572312","0.0-1.0-696.0","0","0","47611","","null","","","null","77","NaN","","","","","","","","","","","","","","",""
"","S2","","html-keyboard-response","470","572875","0.0-1.0-697.0","0","0","47611","","563","","","68","77","","d","2","77","training","adjacent","BA","2","1","Q.jpg","N.jpg","0","0","1","",""
"","feedback","","html-keyboard-response","471","573878","0.0-1.0-699.0-0.0","0","0","47611","","null","","","null","77","","","","","","","","","","","","","","","",""
"","ITI","","html-keyboard-response","472","574880","0.0-1.0-702.0","0","0","47611","","null","","","null","77","","","","","","","","","","","","","","","NaN",""
"","S1","","html-keyboard-response","473","575134","0.0-1.0-704.0","0","0","47611","","null","","","null","78","","","","","","","","","","","","","","","",""
"","ISI","","html-keyboard-response","474","576138","0.0-1.0-705.0","0","0","47611","","null","","","null","78","NaN","","","","","","","","","","","","","","",""
"","S2","","html-keyboard-response","475","576393","0.0-1.0-706.0","0","0","47611","","null","","","null","78","","NaN","","","","","","","","","","","","","",""
"","response","","html-keyboard-response","476","576581","0.0-1.0-707.0-0.0","0","0","47611","","188","","","75","78","","","2","78","training","adjacent","ED","5","4","L.jpg","M.jpg","1","0","0","",""
"","feedback","","html-keyboard-response","477","577587","0.0-1.0-708.0-0.0","0","0","47611","","null","","","null","78","","","","","","","","","","","","","","","",""
"","time_out","","html-keyboard-response","478","580314","0.0-1.0-710.0-0.0","0","0","47611","","null","","","null","78","","","","","","","","","","","","","","","",""
"","ITI","","html-keyboard-response","479","582310","0.0-1.0-711.0","0","0","47611","","null","","","null","78","","","","","","","","","","","","","","","NaN",""
"","S1","","html-keyboard-response","480","583316","0.0-1.0-713.0","0","0","47611","","null","","","null","79","","","","","","","","","","","","","","","",""
"","ISI","","html-keyboard-response","481","585312","0.0-1.0-714.0","0","0","47611","","null","","","null","79","NaN","","","","","","","","","","","","","","",""
"","S2","","html-keyboard-response","482","585922","0.0-1.0-715.0","0","0","47611","","608","","","68","79","","d","2","79","training","adjacent","BA","2","1","Q.jpg","N.jpg","0","0","1","",""
"","feedback","","html-keyboard-response","483","586925","0.0-1.0-717.0-0.0","0","0","47611","","null","","","null","79","","","","","","","","","","","","","","","",""
"","ITI","","html-keyboard-response","484","587930","0.0-1.0-720.0","0","0","47611","","null","","","null","79","","","","","","","","","","","","","","","NaN",""
"","S1","","html-keyboard-response","485","588185","0.0-1.0-722.0","0","0","47611","","null","","","null","80","","","","","","","","","","","","","","","",""
"","ISI","","html-keyboard-response","486","589192","0.0-1.0-723.0","0","0","47611","","null","","","null","80","NaN","","","","","","","","","","","","","","",""
"","S2","","html-keyboard-response","487","589448","0.0-1.0-724.0","0","0","47611","","null","","","null","80","","NaN","","","","","","","","","","","","","",""
"","response","","html-keyboard-response","488","590442","0.0-1.0-725.0-0.0","0","0","47611","","993","","","68","80","","","2","80","training","adjacent","CD","3","4","O.jpg","M.jpg","0","1","0","",""
"","feedback","","html-keyboard-response","489","592303","0.0-1.0-726.0-0.0","0","0","47611","","null","","","null","80","","","","","","","","","","","","","","","",""
"","time_out","","html-keyboard-response","490","595314","0.0-1.0-728.0-0.0","0","0","47611","","null","","","null","80","","","","","","","","","","","","","","","",""
"","ITI","","html-keyboard-response","491","597303","0.0-1.0-729.0","0","0","47611","","null","","","null","80","","","","","","","","","","","","","","","NaN",""
"","S1","","html-keyboard-response","492","598310","0.0-1.0-731.0","0","0","47611","","null","","","null","81","","","","","","","","","","","","","","","",""
"","ISI","","html-keyboard-response","493","600303","0.0-1.0-732.0","0","0","47611","","null","","","null","81","NaN","","","","","","","","","","","","","","",""
"","S2","","html-keyboard-response","494","600876","0.0-1.0-733.0","0","0","47611","","572","","","75","81","","k","2","81","training","adjacent","EF","5","6","L.jpg","P.jpg","1","1","1","",""
"","feedback","","html-keyboard-response","495","601884","0.0-1.0-735.0-0.0","0","0","47611","","null","","","null","81","","","","","","","","","","","","","","","",""
"","ITI","","html-keyboard-response","496","602891","0.0-1.0-738.0","0","0","47611","","null","","","null","81","","","","","","","","","","","","","","","NaN",""
"","S1","","html-keyboard-response","497","603143","0.0-1.0-740.0","0","0","47611","","null","","","null","82","","","","","","","","","","","","","","","",""
"","ISI","","html-keyboard-response","498","604148","0.0-1.0-741.0","0","0","47611","","null","","","null","82","NaN","","","","","","","","","","","","","","",""
"","S2","","html-keyboard-response","499","604404","0.0-1.0-742.0","0","0","47611","","null","","","null","82","","NaN","","","","","","","","","","","","","",""
"","response","","html-keyboard-response","500","604606","0.0-1.0-743.0-0.0","0","0","47611","","201","","","68","82","","","2","82","training","adjacent","ED","5","4","L.jpg","M.jpg","0","0","1","",""
"","feedback","","html-keyboard-response","501","605616","0.0-1.0-744.0-0.0","0","0","47611","","null","","","null","82","","","","","","","","","","","","","","","",""
"","ITI","","html-keyboard-response","502","607307","0.0-1.0-747.0","0","0","47611","","null","","","null","82","","","","","","","","","","","","","","","NaN",""
"","S1","","html-keyboard-response","503","608312","0.0-1.0-749.0","0","0","47611","","null","","","null","83","","","","","","","","","","","","","","","",""
"","ISI","","html-keyboard-response","504","610306","0.0-1.0-750.0","0","0","47611","","null","","","null","83","NaN","","","","","","","","","","","","","","",""
"","S2","","html-keyboard-response","505","610852","0.0-1.0-751.0","0","0","47611","","546","","","68","83","","d","2","83","training","adjacent","DE","4","5","M.jpg","L.jpg","0","1","0","",""
"","feedback","","html-keyboard-response","506","611867","0.0-1.0-753.0-0.0","0","0","47611","","null","","","null","83","","","","","","","","","","","","","","","",""
"","time_out","","html-keyboard-response","507","613872","0.0-1.0-755.0-0.0","0","0","47611","","null","","","null","83","","","","","","","","","","","","","","","",""
"","ITI","","html-keyboard-response","508","614881","0.0-1.0-756.0","0","0","47611","","null","","","null","83","","","","","","","","","","","","","","","NaN",""
"","S1","","html-keyboard-response","509","615137","0.0-1.0-758.0","0","0","47611","","null","","","null","84","","","","","","","","","","","","","","","",""
"","ISI","","html-keyboard-response","510","616314","0.0-1.0-759.0","0","0","47611","","null","","","null","84","NaN","","","","","","","","","","","","","","",""
"","S2","","html-keyboard-response","511","616880","0.0-1.0-760.0","0","0","47611","","565","","","75","84","","k","2","84","training","adjacent","DC","4","3","M.jpg","O.jpg","1","0","0","",""
"","feedback","","html-keyboard-response","512","617893","0.0-1.0-762.0-0.0","0","0","47611","","null","","","null","84","","","","","","","","","","","","","","","",""
"","time_out","","html-keyboard-response","513","619903","0.0-1.0-764.0-0.0","0","0","47611","","null","","","null","84","","","","","","","","","","","","","","","",""
"","ITI","","html-keyboard-response","514","620907","0.0-1.0-765.0","0","0","47611","","null","","","null","84","","","","","","","","","","","","","","","NaN",""
"","S1","","html-keyboard-response","515","621161","0.0-1.0-767.0","0","0","47611","","null","","","null","85","","","","","","","","","","","","","","","",""
"","ISI","","html-keyboard-response","516","622312","0.0-1.0-768.0","0","0","47611","","null","","","null","85","NaN","","","","","","","","","","","","","","",""
"","S2","","html-keyboard-response","517","622696","0.0-1.0-769.0","0","0","47611","","383","","","68","85","","d","2","85","training","adjacent","DC","4","3","M.jpg","O.jpg","0","0","1","",""
"","feedback","","html-keyboard-response","518","623699","0.0-1.0-771.0-0.0","0","0","47611","","null","","","null","85","","","","","","","","","","","","","","","",""
"","ITI","","html-keyboard-response","519","624702","0.0-1.0-774.0","0","0","47611","","null","","","null","85","","","","","","","","","","","","","","","NaN",""
"","S1","","html-keyboard-response","520","624958","0.0-1.0-776.0","0","0","47611","","null","","","null","86","","","","","","","","","","","","","","","",""
"","ISI","","html-keyboard-response","521","625962","0.0-1.0-777.0","0","0","47611","","null","","","null","86","NaN","","","","","","","","","","","","","","",""
"","S2","","html-keyboard-response","522","626218","0.0-1.0-778.0","0","0","47611","","null","","","null","86","","NaN","","","","","","","","","","","","","",""
"","response","","html-keyboard-response","523","626610","0.0-1.0-779.0-0.0","0","0","47611","","391","","","68","86","","","2","86","training","adjacent","FE","6","5","P.jpg","L.jpg","0","0","1","",""
"","feedback","","html-keyboard-response","524","627626","0.0-1.0-780.0-0.0","0","0","47611","","null","","","null","86","","","","","","","","","","","","","","","",""
"","ITI","","html-keyboard-response","525","629314","0.0-1.0-783.0","0","0","47611","","null","","","null","86","","","","","","","","","","","","","","","NaN",""
"","S1","","html-keyboard-response","526","630317","0.0-1.0-785.0","0","0","47611","","null","","","null","87","","","","","","","","","","","","","","","",""
"","ISI","","html-keyboard-response","527","632318","0.0-1.0-786.0","0","0","47611","","null","","","null","87","NaN","","","","","","","","","","","","","","",""
"","S2","","html-keyboard-response","528","633306","0.0-1.0-787.0","0","0","47611","","null","","","null","87","","NaN","","","","","","","","","","","","","",""
"","response","","html-keyboard-response","529","633334","0.0-1.0-788.0-0.0","0","0","47611","","27","","","75","87","","","2","87","training","adjacent","FG","6","7","P.jpg","R.jpg","1","1","1","",""
"","feedback","","html-keyboard-response","530","634343","0.0-1.0-789.0-0.0","0","0","47611","","null","","","null","87","","","","","","","","","","","","","","","",""
"","ITI","","html-keyboard-response","531","635345","0.0-1.0-792.0","0","0","47611","","null","","","null","87","","","","","","","","","","","","","","","NaN",""
"","S1","","html-keyboard-response","532","635600","0.0-1.0-794.0","0","0","47611","","null","","","null","88","","","","","","","","","","","","","","","",""
"","ISI","","html-keyboard-response","533","636603","0.0-1.0-795.0","0","0","47611","","null","","","null","88","NaN","","","","","","","","","","","","","","",""
"","S2","","html-keyboard-response","534","636859","0.0-1.0-796.0","0","0","47611","","null","","","null","88","","NaN","","","","","","","","","","","","","",""
"","response","","html-keyboard-response","535","637183","0.0-1.0-797.0-0.0","0","0","47611","","323","","","68","88","","","2","88","training","adjacent","BC","2","3","Q.jpg","O.jpg","0","1","0","",""
"","feedback","","html-keyboard-response","536","638200","0.0-1.0-798.0-0.0","0","0","47611","","null","","","null","88","","","","","","","","","","","","","","","",""
"","time_out","","html-keyboard-response","537","640305","0.0-1.0-800.0-0.0","0","0","47611","","null","","","null","88","","","","","","","","","","","","","","","",""
"","ITI","","html-keyboard-response","538","642302","0.0-1.0-801.0","0","0","47611","","null","","","null","88","","","","","","","","","","","","","","","NaN",""
"","S1","","html-keyboard-response","539","643309","0.0-1.0-803.0","0","0","47611","","null","","","null","89","","","","","","","","","","","","","","","",""
"","ISI","","html-keyboard-response","540","645308","0.0-1.0-804.0","0","0","47611","","null","","","null","89","NaN","","","","","","","","","","","","","","",""
"","S2","","html-keyboard-response","541","645503","0.0-1.0-805.0","0","0","47611","","195","","","68","89","","d","2","89","training","adjacent","ED","5","4","L.jpg","M.jpg","0","0","1","",""
"","feedback","","html-keyboard-response","542","646520","0.0-1.0-807.0-0.0","0","0","47611","","null","","","null","89","","","","","","","","","","","","","","","",""
"","ITI","","html-keyboard-response","543","647524","0.0-1.0-810.0","0","0","47611","","null","","","null","89","","","","","","","","","","","","","","","NaN",""
"","S1","","html-keyboard-response","544","647778","0.0-1.0-812.0","0","0","47611","","null","","","null","90","","","","","","","","","","","","","","","",""
"","ISI","","html-keyboard-response","545","648784","0.0-1.0-813.0","0","0","47611","","null","","","null","90","NaN","","","","","","","","","","","","","","",""
"","S2","","html-keyboard-response","546","649040","0.0-1.0-814.0","0","0","47611","","null","","","null","90","","NaN","","","","","","","","","","","","","",""
"","response","","html-keyboard-response","547","649348","0.0-1.0-815.0-0.0","0","0","47611","","307","","","75","90","","","2","90","training","adjacent","DC","4","3","M.jpg","O.jpg","1","0","0","",""
"","feedback","","html-keyboard-response","548","650364","0.0-1.0-816.0-0.0","0","0","47611","","null","","","null","90","","","","","","","","","","","","","","","",""
"","time_out","","html-keyboard-response","549","653314","0.0-1.0-818.0-0.0","0","0","47611","","null","","","null","90","","","","","","","","","","","","","","","",""
"","ITI","","html-keyboard-response","550","655309","0.0-1.0-819.0","0","0","47611","","null","","","null","90","","","","","","","","","","","","","","","NaN",""
"","S1","","html-keyboard-response","551","656314","0.0-1.0-821.0","0","0","47611","","null","","","null","91","","","","","","","","","","","","","","","",""
"","ISI","","html-keyboard-response","552","658312","0.0-1.0-822.0","0","0","47611","","null","","","null","91","NaN","","","","","","","","","","","","","","",""
"","S2","","html-keyboard-response","553","659086","0.0-1.0-823.0","0","0","47611","","772","","","75","91","","k","2","91","training","adjacent","AB","1","2","N.jpg","Q.jpg","1","1","1","",""
"","feedback","","html-keyboard-response","554","660097","0.0-1.0-825.0-0.0","0","0","47611","","null","","","null","91","","","","","","","","","","","","","","","",""
"","ITI","","html-keyboard-response","555","661103","0.0-1.0-828.0","0","0","47611","","null","","","null","91","","","","","","","","","","","","","","","NaN",""
"","S1","","html-keyboard-response","556","661359","0.0-1.0-830.0","0","0","47611","","null","","","null","92","","","","","","","","","","","","","","","",""
"","ISI","","html-keyboard-response","557","662364","0.0-1.0-831.0","0","0","47611","","null","","","null","92","NaN","","","","","","","","","","","","","","",""
"","S2","","html-keyboard-response","558","662617","0.0-1.0-832.0","0","0","47611","","null","","","null","92","","NaN","","","","","","","","","","","","","",""
"","response","","html-keyboard-response","559","662964","0.0-1.0-833.0-0.0","0","0","47611","","345","","","68","92","","","2","92","training","adjacent","EF","5","6","L.jpg","P.jpg","0","1","0","",""
"","feedback","","html-keyboard-response","560","663975","0.0-1.0-834.0-0.0","0","0","47611","","null","","","null","92","","","","","","","","","","","","","","","",""
"","time_out","","html-keyboard-response","561","666304","0.0-1.0-836.0-0.0","0","0","47611","","null","","","null","92","","","","","","","","","","","","","","","",""
"","ITI","","html-keyboard-response","562","668311","0.0-1.0-837.0","0","0","47611","","null","","","null","92","","","","","","","","","","","","","","","NaN",""
"","S1","","html-keyboard-response","563","669317","0.0-1.0-839.0","0","0","47611","","null","","","null","93","","","","","","","","","","","","","","","",""
"","ISI","","html-keyboard-response","564","671305","0.0-1.0-840.0","0","0","47611","","null","","","null","93","NaN","","","","","","","","","","","","","","",""
"","S2","","html-keyboard-response","565","672082","0.0-1.0-841.0","0","0","47611","","775","","","75","93","","k","2","93","training","adjacent","EF","5","6","L.jpg","P.jpg","1","1","1","",""
"","feedback","","html-keyboard-response","566","673097","0.0-1.0-843.0-0.0","0","0","47611","","null","","","null","93","","","","","","","","","","","","","","","",""
"","ITI","","html-keyboard-response","567","674101","0.0-1.0-846.0","0","0","47611","","null","","","null","93","","","","","","","","","","","","","","","NaN",""
"","S1","","html-keyboard-response","568","674357","0.0-1.0-848.0","0","0","47611","","null","","","null","94","","","","","","","","","","","","","","","",""
"","ISI","","html-keyboard-response","569","675362","0.0-1.0-849.0","0","0","47611","","null","","","null","94","NaN","","","","","","","","","","","","","","",""
"","S2","","html-keyboard-response","570","675618","0.0-1.0-850.0","0","0","47611","","null","","","null","94","","NaN","","","","","","","","","","","","","",""
"","response","","html-keyboard-response","571","676039","0.0-1.0-851.0-0.0","0","0","47611","","420","","","68","94","","","2","94","training","adjacent","CB","3","2","O.jpg","Q.jpg","0","0","1","",""
"","feedback","","html-keyboard-response","572","677054","0.0-1.0-852.0-0.0","0","0","47611","","null","","","null","94","","","","","","","","","","","","","","","",""
"","ITI","","html-keyboard-response","573","678313","0.0-1.0-855.0","0","0","47611","","null","","","null","94","","","","","","","","","","","","","","","NaN",""
"","S1","","html-keyboard-response","574","679317","0.0-1.0-857.0","0","0","47611","","null","","","null","95","","","","","","","","","","","","","","","",""
"","ISI","","html-keyboard-response","575","681314","0.0-1.0-858.0","0","0","47611","","null","","","null","95","NaN","","","","","","","","","","","","","","",""
"","S2","","html-keyboard-response","576","681958","0.0-1.0-859.0","0","0","47611","","642","","","68","95","","d","2","95","training","adjacent","ED","5","4","L.jpg","M.jpg","0","0","1","",""
"","feedback","","html-keyboard-response","577","682973","0.0-1.0-861.0-0.0","0","0","47611","","null","","","null","95","","","","","","","","","","","","","","","",""
"","ITI","","html-keyboard-response","578","683981","0.0-1.0-864.0","0","0","47611","","null","","","null","95","","","","","","","","","","","","","","","NaN",""
"","block_over","","html-keyboard-response","579","711002","0.0-1.0-865.0-0.0","0","0","47611","","27019","","","32","95","","","","","","","","","","","","","","","",""
"","S1","","html-keyboard-response","580","711268","0.0-1.0-866.0","0","0","47611","","null","","","null","96","","","","","","","","","","","","","","","",""
"","ISI","","html-keyboard-response","581","712275","0.0-1.0-867.0","0","0","47611","","null","","","null","96","NaN","","","","","","","","","","","","","","",""
