"success","ttype","start_time","trial_type","trial_index","time_elapsed","internal_node_id","warning","missed_checkup","PID","view_history","rt","responses","repeat_instructions","key_press","index","keypress_isi","keypress_S2","block","trial_num","phase","group_type","pair_type","S1_stim","S2_stim","S1_img","S2_img","S1_chosen","S1_higher","accuracy","keypress_iti","total_bonus_tally"
"true","full_screen","d03082023hr1520","fullscreen","0","18189","0.0-0.0","0","0","34073","","","","","","","","","","","","","","","","","","","","","",""
"","instructions","","instructions","1","47900","0.0-1.0-0.0-0.0","0","0","34073","[{""page_index"":0,""viewing_time"":5693},{""page_index"":1,""viewing_time"":17631},{""page_index"":2,""viewing_time"":4876},{""page_index"":3,""viewing_time"":1504}]","29705","","","","","","","","","","","","","","","","","","","",""
"","comprehension_check","","survey-multi-choice","2","64066","0.0-1.0-0.0-1.0","0","0","34073","","16151","{""Q0"":""True"",""Q1"":""K"",""Q2"":""Only when the screen 'MAKE A CHOICE' is shown"",""Q3"":""Green mark"",""Q4"":""either D or K""}","1","","","","","","","","","","","","","","","","","",""
"","missed_instruction_checkup","","html-keyboard-response","3","65183","0.0-1.0-0.0-2.0-0.0","0","1","34073","","1103","","","32","","","","","","","","","","","","","","","","",""
"","instructions","","instructions","4","76468","0.0-1.0-0.1-0.1","0","0","34073","[{""page_index"":0,""viewing_time"":2346},{""page_index"":1,""viewing_time"":5109},{""page_index"":2,""viewing_time"":2588},{""page_index"":3,""viewing_time"":1236}]","11280","","","","","","","","","","","","","","","","","","","",""
"","comprehension_check","","survey-multi-choice","5","87555","0.0-1.0-0.1-1.1","0","0","34073","","11075","{""Q0"":""True"",""Q1"":""K"",""Q2"":""Once the second image appears and while the screen 'MAKE A CHOICE' is shown"",""Q3"":""Green mark"",""Q4"":""either D or K""}","0","","","","","","","","","","","","","","","","","",""
"","start_exp","","html-keyboard-response","6","88759","0.0-1.0-1.0","0","0","34073","","1197","","","32","","","","","","","","","","","","","","","","",""
"","S1","","html-keyboard-response","7","89019","0.0-1.0-2.0","0","0","34073","","null","","","null","0","","","","","","","","","","","","","","","",""
"","ISI","","html-keyboard-response","8","89175","0.0-1.0-3.0","0","0","34073","","null","","","null","0","NaN","","","","","","","","","","","","","","",""
"","S2","","html-keyboard-response","9","89429","0.0-1.0-4.0","0","0","34073","","null","","","null","0","","NaN","","","","","","","","","","","","","",""
"","response","","html-keyboard-response","10","90512","0.0-1.0-5.0-0.0","0","0","34073","","1080","","","75","0","","","1","0","training","adjacent","GF","7","6","L.jpg","O.jpg","1","0","0","",""
"","feedback","","html-keyboard-response","11","91525","0.0-1.0-6.0-0.0","0","0","34073","","null","","","null","0","","","","","","","","","","","","","","","",""
"","time_out","","html-keyboard-response","12","93530","0.0-1.0-8.0-0.0","0","0","34073","","null","","","null","0","","","","","","","","","","","","","","","",""
"","ITI","","html-keyboard-response","13","94538","0.0-1.0-9.0","0","0","34073","","null","","","null","0","","","","","","","","","","","","","","","NaN",""
"","S1","","html-keyboard-response","14","94792","0.0-1.0-11.0","0","0","34073","","null","","","null","1","","","","","","","","","","","","","","","",""
"","ISI","","html-keyboard-response","15","94950","0.0-1.0-12.0","0","0","34073","","null","","","null","1","NaN","","","","","","","","","","","","","","",""
"","S2","","html-keyboard-response","16","95209","0.0-1.0-13.0","0","0","34073","","null","","","null","1","","NaN","","","","","","","","","","","","","",""
"","response","","html-keyboard-response","17","95784","0.0-1.0-14.0-0.0","0","0","34073","","571","","","75","1","","","1","1","training","adjacent","EF","5","6","M.jpg","O.jpg","1","1","1","",""
"","feedback","","html-keyboard-response","18","96799","0.0-1.0-15.0-0.0","0","0","34073","","null","","","null","1","","","","","","","","","","","","","","","",""
"","ITI","","html-keyboard-response","19","97806","0.0-1.0-18.0","0","0","34073","","null","","","null","1","","","","","","","","","","","","","","","NaN",""
"","S1","","html-keyboard-response","20","98062","0.0-1.0-20.0","0","0","34073","","null","","","null","2","","","","","","","","","","","","","","","",""
"","ISI","","html-keyboard-response","21","98218","0.0-1.0-21.0","0","0","34073","","null","","","null","2","NaN","","","","","","","","","","","","","","",""
"","S2","","html-keyboard-response","22","98480","0.0-1.0-22.0","0","0","34073","","null","","","null","2","","NaN","","","","","","","","","","","","","",""
"","response","","html-keyboard-response","23","98991","0.0-1.0-23.0-0.0","0","0","34073","","508","","","75","2","","","1","2","training","adjacent","BC","2","3","R.jpg","N.jpg","1","1","1","",""
"","feedback","","html-keyboard-response","24","99995","0.0-1.0-24.0-0.0","0","0","34073","","null","","","null","2","","","","","","","","","","","","","","","",""
"","ITI","","html-keyboard-response","25","101004","0.0-1.0-27.0","0","0","34073","","null","","","null","2","","","","","","","","","","","","","","","NaN",""
"","S1","","html-keyboard-response","26","101269","0.0-1.0-29.0","0","0","34073","","null","","","null","3","","","","","","","","","","","","","","","",""
"","ISI","","html-keyboard-response","27","101425","0.0-1.0-30.0","0","0","34073","","null","","","null","3","NaN","","","","","","","","","","","","","","",""
"","S2","","html-keyboard-response","28","101681","0.0-1.0-31.0","0","0","34073","","null","","","null","3","","NaN","","","","","","","","","","","","","",""
"","response","","html-keyboard-response","29","102193","0.0-1.0-32.0-0.0","0","0","34073","","509","","","75","3","","","1","3","training","adjacent","BA","2","1","R.jpg","P.jpg","1","0","0","",""
"","feedback","","html-keyboard-response","30","103199","0.0-1.0-33.0-0.0","0","0","34073","","null","","","null","3","","","","","","","","","","","","","","","",""
"","time_out","","html-keyboard-response","31","105204","0.0-1.0-35.0-0.0","0","0","34073","","null","","","null","3","","","","","","","","","","","","","","","",""
"","ITI","","html-keyboard-response","32","106208","0.0-1.0-36.0","0","0","34073","","null","","","null","3","","","","","","","","","","","","","","","NaN",""
"","S1","","html-keyboard-response","33","106473","0.0-1.0-38.0","0","0","34073","","null","","","null","4","","","","","","","","","","","","","","","",""
"","ISI","","html-keyboard-response","34","106628","0.0-1.0-39.0","0","0","34073","","null","","","null","4","NaN","","","","","","","","","","","","","","",""
"","S2","","html-keyboard-response","35","106882","0.0-1.0-40.0","0","0","34073","","null","","","null","4","","NaN","","","","","","","","","","","","","",""
"","response","","html-keyboard-response","36","107347","0.0-1.0-41.0-0.0","0","0","34073","","461","","","75","4","","","1","4","training","adjacent","ED","5","4","M.jpg","Q.jpg","1","0","0","",""
"","feedback","","html-keyboard-response","37","108357","0.0-1.0-42.0-0.0","0","0","34073","","null","","","null","4","","","","","","","","","","","","","","","",""
"","time_out","","html-keyboard-response","38","110368","0.0-1.0-44.0-0.0","0","0","34073","","null","","","null","4","","","","","","","","","","","","","","","",""
"","ITI","","html-keyboard-response","39","111376","0.0-1.0-45.0","0","0","34073","","null","","","null","4","","","","","","","","","","","","","","","NaN",""
"","S1","","html-keyboard-response","40","111639","0.0-1.0-47.0","0","0","34073","","null","","","null","5","","","","","","","","","","","","","","","",""
"","ISI","","html-keyboard-response","41","111797","0.0-1.0-48.0","0","0","34073","","null","","","null","5","NaN","","","","","","","","","","","","","","",""
"","S2","","html-keyboard-response","42","112059","0.0-1.0-49.0","0","0","34073","","null","","","null","5","","NaN","","","","","","","","","","","","","",""
"","response","","html-keyboard-response","43","112701","0.0-1.0-50.0-0.0","0","0","34073","","639","","","68","5","","","1","5","training","adjacent","FE","6","5","O.jpg","M.jpg","0","0","1","",""
"","feedback","","html-keyboard-response","44","113711","0.0-1.0-51.0-0.0","0","0","34073","","null","","","null","5","","","","","","","","","","","","","","","",""
"","ITI","","html-keyboard-response","45","114714","0.0-1.0-54.0","0","0","34073","","null","","","null","5","","","","","","","","","","","","","","","NaN",""
"","S1","","html-keyboard-response","46","114971","0.0-1.0-56.0","0","0","34073","","null","","","null","6","","","","","","","","","","","","","","","",""
"","ISI","","html-keyboard-response","47","115128","0.0-1.0-57.0","0","0","34073","","null","","","null","6","NaN","","","","","","","","","","","","","","",""
"","S2","","html-keyboard-response","48","115385","0.0-1.0-58.0","0","0","34073","","null","","","null","6","","NaN","","","","","","","","","","","","","",""
"","response","","html-keyboard-response","49","116046","0.0-1.0-59.0-0.0","0","0","34073","","657","","","68","6","","","1","6","training","adjacent","FE","6","5","O.jpg","M.jpg","0","0","1","",""
"","feedback","","html-keyboard-response","50","117051","0.0-1.0-60.0-0.0","0","0","34073","","null","","","null","6","","","","","","","","","","","","","","","",""
"","ITI","","html-keyboard-response","51","118059","0.0-1.0-63.0","0","0","34073","","null","","","null","6","","","","","","","","","","","","","","","NaN",""
"","S1","","html-keyboard-response","52","118313","0.0-1.0-65.0","0","0","34073","","null","","","null","7","","","","","","","","","","","","","","","",""
"","ISI","","html-keyboard-response","53","118478","0.0-1.0-66.0","0","0","34073","","null","","","null","7","NaN","","","","","","","","","","","","","","",""
"","S2","","html-keyboard-response","54","118741","0.0-1.0-67.0","0","0","34073","","null","","","null","7","","NaN","","","","","","","","","","","","","",""
"","response","","html-keyboard-response","55","119160","0.0-1.0-68.0-0.0","0","0","34073","","416","","","75","7","","","1","7","training","adjacent","EF","5","6","M.jpg","O.jpg","1","1","1","",""
"","feedback","","html-keyboard-response","56","120167","0.0-1.0-69.0-0.0","0","0","34073","","null","","","null","7","","","","","","","","","","","","","","","",""
"","ITI","","html-keyboard-response","57","121177","0.0-1.0-72.0","0","0","34073","","null","","","null","7","","","","","","","","","","","","","","","NaN",""
"","S1","","html-keyboard-response","58","121432","0.0-1.0-74.0","0","0","34073","","null","","","null","8","","","","","","","","","","","","","","","",""
"","ISI","","html-keyboard-response","59","121595","0.0-1.0-75.0","0","0","34073","","null","","","null","8","NaN","","","","","","","","","","","","","","",""
"","S2","","html-keyboard-response","60","121851","0.0-1.0-76.0","0","0","34073","","null","","","null","8","","NaN","","","","","","","","","","","","","",""
"","response","","html-keyboard-response","61","122486","0.0-1.0-77.0-0.0","0","0","34073","","632","","","75","8","","","1","8","training","adjacent","CD","3","4","N.jpg","Q.jpg","1","1","1","",""
"","feedback","","html-keyboard-response","62","123492","0.0-1.0-78.0-0.0","0","0","34073","","null","","","null","8","","","","","","","","","","","","","","","",""
"","ITI","","html-keyboard-response","63","124495","0.0-1.0-81.0","0","0","34073","","null","","","null","8","","","","","","","","","","","","","","","NaN",""
"","S1","","html-keyboard-response","64","124753","0.0-1.0-83.0","0","0","34073","","null","","","null","9","","","","","","","","","","","","","","","",""
"","ISI","","html-keyboard-response","65","124910","0.0-1.0-84.0","0","0","34073","","null","","","null","9","NaN","","","","","","","","","","","","","","",""
"","S2","","html-keyboard-response","66","125168","0.0-1.0-85.0","0","0","34073","","null","","","null","9","","NaN","","","","","","","","","","","","","",""
"","response","","html-keyboard-response","67","125864","0.0-1.0-86.0-0.0","0","0","34073","","694","","","68","9","","","1","9","training","adjacent","AB","1","2","P.jpg","R.jpg","0","1","0","",""
"","feedback","","html-keyboard-response","68","126868","0.0-1.0-87.0-0.0","0","0","34073","","null","","","null","9","","","","","","","","","","","","","","","",""
"","time_out","","html-keyboard-response","69","128887","0.0-1.0-89.0-0.0","0","0","34073","","null","","","null","9","","","","","","","","","","","","","","","",""
"","ITI","","html-keyboard-response","70","129892","0.0-1.0-90.0","0","0","34073","","null","","","null","9","","","","","","","","","","","","","","","NaN",""
"","S1","","html-keyboard-response","71","130146","0.0-1.0-92.0","0","0","34073","","null","","","null","10","","","","","","","","","","","","","","","",""
"","ISI","","html-keyboard-response","72","130304","0.0-1.0-93.0","0","0","34073","","null","","","null","10","NaN","","","","","","","","","","","","","","",""
"","S2","","html-keyboard-response","73","130562","0.0-1.0-94.0","0","0","34073","","null","","","null","10","","NaN","","","","","","","","","","","","","",""
"","response","","html-keyboard-response","74","131295","0.0-1.0-95.0-0.0","0","0","34073","","730","","","68","10","","","1","10","training","adjacent","DC","4","3","Q.jpg","N.jpg","0","0","1","",""
"","feedback","","html-keyboard-response","75","132301","0.0-1.0-96.0-0.0","0","0","34073","","null","","","null","10","","","","","","","","","","","","","","","",""
"","ITI","","html-keyboard-response","76","133305","0.0-1.0-99.0","0","0","34073","","null","","","null","10","","","","","","","","","","","","","","","NaN",""
"","S1","","html-keyboard-response","77","133559","0.0-1.0-101.0","0","0","34073","","null","","","null","11","","","","","","","","","","","","","","","",""
"","ISI","","html-keyboard-response","78","133716","0.0-1.0-102.0","0","0","34073","","null","","","null","11","NaN","","","","","","","","","","","","","","",""
"","S2","","html-keyboard-response","79","133974","0.0-1.0-103.0","0","0","34073","","null","","","null","11","","NaN","","","","","","","","","","","","","",""
"","response","","html-keyboard-response","80","134725","0.0-1.0-104.0-0.0","0","0","34073","","748","","","68","11","","","1","11","training","adjacent","FG","6","7","O.jpg","L.jpg","0","1","0","",""
"","feedback","","html-keyboard-response","81","135735","0.0-1.0-105.0-0.0","0","0","34073","","null","","","null","11","","","","","","","","","","","","","","","",""
"","time_out","","html-keyboard-response","82","137741","0.0-1.0-107.0-0.0","0","0","34073","","null","","","null","11","","","","","","","","","","","","","","","",""
"","ITI","","html-keyboard-response","83","138749","0.0-1.0-108.0","0","0","34073","","null","","","null","11","","","","","","","","","","","","","","","NaN",""
"","S1","","html-keyboard-response","84","139004","0.0-1.0-110.0","0","0","34073","","null","","","null","12","","","","","","","","","","","","","","","",""
"","ISI","","html-keyboard-response","85","139169","0.0-1.0-111.0","0","0","34073","","null","","","null","12","NaN","","","","","","","","","","","","","","",""
"","S2","","html-keyboard-response","86","139431","0.0-1.0-112.0","0","0","34073","","null","","","null","12","","NaN","","","","","","","","","","","","","",""
"","response","","html-keyboard-response","87","139926","0.0-1.0-113.0-0.0","0","0","34073","","492","","","75","12","","","1","12","training","adjacent","GF","7","6","L.jpg","O.jpg","1","0","0","",""
"","feedback","","html-keyboard-response","88","140937","0.0-1.0-114.0-0.0","0","0","34073","","null","","","null","12","","","","","","","","","","","","","","","",""
"","time_out","","html-keyboard-response","89","142940","0.0-1.0-116.0-0.0","0","0","34073","","null","","","null","12","","","","","","","","","","","","","","","",""
"","ITI","","html-keyboard-response","90","143957","0.0-1.0-117.0","0","0","34073","","null","","","null","12","","","","","","","","","","","","","","","NaN",""
"","S1","","html-keyboard-response","91","144211","0.0-1.0-119.0","0","0","34073","","null","","","null","13","","","","","","","","","","","","","","","",""
"","ISI","","html-keyboard-response","92","144366","0.0-1.0-120.0","0","0","34073","","null","","","null","13","NaN","","","","","","","","","","","","","","",""
"","S2","","html-keyboard-response","93","144620","0.0-1.0-121.0","0","0","34073","","null","","","null","13","","NaN","","","","","","","","","","","","","",""
"","response","","html-keyboard-response","94","145050","0.0-1.0-122.0-0.0","0","0","34073","","427","","","68","13","","","1","13","training","adjacent","FG","6","7","O.jpg","L.jpg","0","1","0","",""
"","feedback","","html-keyboard-response","95","146056","0.0-1.0-123.0-0.0","0","0","34073","","null","","","null","13","","","","","","","","","","","","","","","",""
"","time_out","","html-keyboard-response","96","148061","0.0-1.0-125.0-0.0","0","0","34073","","null","","","null","13","","","","","","","","","","","","","","","",""
"","ITI","","html-keyboard-response","97","149074","0.0-1.0-126.0","0","0","34073","","null","","","null","13","","","","","","","","","","","","","","","NaN",""
"","S1","","html-keyboard-response","98","149329","0.0-1.0-128.0","0","0","34073","","null","","","null","14","","","","","","","","","","","","","","","",""
"","ISI","","html-keyboard-response","99","149483","0.0-1.0-129.0","0","0","34073","","null","","","null","14","NaN","","","","","","","","","","","","","","",""
"","S2","","html-keyboard-response","100","149738","0.0-1.0-130.0","0","0","34073","","null","","","null","14","","NaN","","","","","","","","","","","","","",""
"","response","","html-keyboard-response","101","150499","0.0-1.0-131.0-0.0","0","0","34073","","758","","","68","14","","","1","14","training","adjacent","AB","1","2","P.jpg","R.jpg","0","1","0","",""
"","feedback","","html-keyboard-response","102","151507","0.0-1.0-132.0-0.0","0","0","34073","","null","","","null","14","","","","","","","","","","","","","","","",""
"","time_out","","html-keyboard-response","103","153516","0.0-1.0-134.0-0.0","0","0","34073","","null","","","null","14","","","","","","","","","","","","","","","",""
"","ITI","","html-keyboard-response","104","154526","0.0-1.0-135.0","0","0","34073","","null","","","null","14","","","","","","","","","","","","","","","NaN",""
"","S1","","html-keyboard-response","105","154782","0.0-1.0-137.0","0","0","34073","","null","","","null","15","","","","","","","","","","","","","","","",""
"","ISI","","html-keyboard-response","106","154941","0.0-1.0-138.0","0","0","34073","","null","","","null","15","NaN","","","","","","","","","","","","","","",""
"","S2","","html-keyboard-response","107","155196","0.0-1.0-139.0","0","0","34073","","null","","","null","15","","NaN","","","","","","","","","","","","","",""
"","response","","html-keyboard-response","108","156186","0.0-1.0-140.0-0.0","0","0","34073","","985","","","68","15","","","1","15","training","adjacent","CB","3","2","N.jpg","R.jpg","0","0","1","",""
"","feedback","","html-keyboard-response","109","157196","0.0-1.0-141.0-0.0","0","0","34073","","null","","","null","15","","","","","","","","","","","","","","","",""
"","ITI","","html-keyboard-response","110","158201","0.0-1.0-144.0","0","0","34073","","null","","","null","15","","","","","","","","","","","","","","","NaN",""
"","S1","","html-keyboard-response","111","158460","0.0-1.0-146.0","0","0","34073","","null","","","null","16","","","","","","","","","","","","","","","",""
"","ISI","","html-keyboard-response","112","158616","0.0-1.0-147.0","0","0","34073","","null","","","null","16","NaN","","","","","","","","","","","","","","",""
"","S2","","html-keyboard-response","113","158886","0.0-1.0-148.0","0","0","34073","","null","","","null","16","","NaN","","","","","","","","","","","","","",""
"","response","","html-keyboard-response","114","159373","0.0-1.0-149.0-0.0","0","0","34073","","482","","","75","16","","","1","16","training","adjacent","BA","2","1","R.jpg","P.jpg","1","0","0","",""
"","feedback","","html-keyboard-response","115","160388","0.0-1.0-150.0-0.0","0","0","34073","","null","","","null","16","","","","","","","","","","","","","","","",""
"","time_out","","html-keyboard-response","116","162392","0.0-1.0-152.0-0.0","0","0","34073","","null","","","null","16","","","","","","","","","","","","","","","",""
"","ITI","","html-keyboard-response","117","163397","0.0-1.0-153.0","0","0","34073","","null","","","null","16","","","","","","","","","","","","","","","NaN",""
"","S1","","html-keyboard-response","118","163656","0.0-1.0-155.0","0","0","34073","","null","","","null","17","","","","","","","","","","","","","","","",""
"","ISI","","html-keyboard-response","119","163823","0.0-1.0-156.0","0","0","34073","","null","","","null","17","NaN","","","","","","","","","","","","","","",""
"","S2","","html-keyboard-response","120","164094","0.0-1.0-157.0","0","0","34073","","null","","","null","17","","NaN","","","","","","","","","","","","","",""
"","response","","html-keyboard-response","121","165111","0.0-1.0-158.0-0.0","0","0","34073","","1013","","","75","17","","","1","17","training","adjacent","CB","3","2","N.jpg","R.jpg","1","0","0","",""
"","feedback","","html-keyboard-response","122","166117","0.0-1.0-159.0-0.0","0","0","34073","","null","","","null","17","","","","","","","","","","","","","","","",""
"","time_out","","html-keyboard-response","123","168137","0.0-1.0-161.0-0.0","0","0","34073","","null","","","null","17","","","","","","","","","","","","","","","",""
"","ITI","","html-keyboard-response","124","169142","0.0-1.0-162.0","0","0","34073","","null","","","null","17","","","","","","","","","","","","","","","NaN",""
"","S1","","html-keyboard-response","125","169397","0.0-1.0-164.0","0","0","34073","","null","","","null","18","","","","","","","","","","","","","","","",""
"","ISI","","html-keyboard-response","126","169557","0.0-1.0-165.0","0","0","34073","","null","","","null","18","NaN","","","","","","","","","","","","","","",""
"","S2","","html-keyboard-response","127","169821","0.0-1.0-166.0","0","0","34073","","null","","","null","18","","NaN","","","","","","","","","","","","","",""
"","response","","html-keyboard-response","128","170533","0.0-1.0-167.0-0.0","0","0","34073","","707","","","68","18","","","1","18","training","adjacent","FE","6","5","O.jpg","M.jpg","0","0","1","",""
"","feedback","","html-keyboard-response","129","171551","0.0-1.0-168.0-0.0","0","0","34073","","null","","","null","18","","","","","","","","","","","","","","","",""
"","ITI","","html-keyboard-response","130","172556","0.0-1.0-171.0","0","0","34073","","null","","","null","18","","","","","","","","","","","","","","","NaN",""
"","S1","","html-keyboard-response","131","172812","0.0-1.0-173.0","0","0","34073","","null","","","null","19","","","","","","","","","","","","","","","",""
"","ISI","","html-keyboard-response","132","172980","0.0-1.0-174.0","0","0","34073","","null","","","null","19","NaN","","","","","","","","","","","","","","",""
"","S2","","html-keyboard-response","133","173245","0.0-1.0-175.0","0","0","34073","","null","","","null","19","","NaN","","","","","","","","","","","","","",""
"","response","","html-keyboard-response","134","173714","0.0-1.0-176.0-0.0","0","0","34073","","464","","","68","19","","","1","19","training","adjacent","FE","6","5","O.jpg","M.jpg","0","0","1","",""
"","feedback","","html-keyboard-response","135","174723","0.0-1.0-177.0-0.0","0","0","34073","","null","","","null","19","","","","","","","","","","","","","","","",""
"","ITI","","html-keyboard-response","136","175732","0.0-1.0-180.0","0","0","34073","","null","","","null","19","","","","","","","","","","","","","","","NaN",""
"","S1","","html-keyboard-response","137","175992","0.0-1.0-182.0","0","0","34073","","null","","","null","20","","","","","","","","","","","","","","","",""
"","ISI","","html-keyboard-response","138","176159","0.0-1.0-183.0","0","0","34073","","null","","","null","20","NaN","","","","","","","","","","","","","","",""
"","S2","","html-keyboard-response","139","176422","0.0-1.0-184.0","0","0","34073","","null","","","null","20","","NaN","","","","","","","","","","","","","",""
"","response","","html-keyboard-response","140","176848","0.0-1.0-185.0-0.0","0","0","34073","","422","","","75","20","","","1","20","training","adjacent","BA","2","1","R.jpg","P.jpg","1","0","0","",""
"","feedback","","html-keyboard-response","141","177866","0.0-1.0-186.0-0.0","0","0","34073","","null","","","null","20","","","","","","","","","","","","","","","",""
"","time_out","","html-keyboard-response","142","179879","0.0-1.0-188.0-0.0","0","0","34073","","null","","","null","20","","","","","","","","","","","","","","","",""
"","ITI","","html-keyboard-response","143","180893","0.0-1.0-189.0","0","0","34073","","null","","","null","20","","","","","","","","","","","","","","","NaN",""
"","S1","","html-keyboard-response","144","181148","0.0-1.0-191.0","0","0","34073","","null","","","null","21","","","","","","","","","","","","","","","",""
"","ISI","","html-keyboard-response","145","181304","0.0-1.0-192.0","0","0","34073","","null","","","null","21","NaN","","","","","","","","","","","","","","",""
"","S2","","html-keyboard-response","146","181560","0.0-1.0-193.0","0","0","34073","","null","","","null","21","","NaN","","","","","","","","","","","","","",""
"","response","","html-keyboard-response","147","182073","0.0-1.0-194.0-0.0","0","0","34073","","508","","","68","21","","","1","21","training","adjacent","CB","3","2","N.jpg","R.jpg","0","0","1","",""
"","feedback","","html-keyboard-response","148","183079","0.0-1.0-195.0-0.0","0","0","34073","","null","","","null","21","","","","","","","","","","","","","","","",""
"","ITI","","html-keyboard-response","149","184089","0.0-1.0-198.0","0","0","34073","","null","","","null","21","","","","","","","","","","","","","","","NaN",""
"","S1","","html-keyboard-response","150","184343","0.0-1.0-200.0","0","0","34073","","null","","","null","22","","","","","","","","","","","","","","","",""
"","ISI","","html-keyboard-response","151","184498","0.0-1.0-201.0","0","0","34073","","null","","","null","22","NaN","","","","","","","","","","","","","","",""
"","S2","","html-keyboard-response","152","184768","0.0-1.0-202.0","0","0","34073","","null","","","null","22","","NaN","","","","","","","","","","","","","",""
"","response","","html-keyboard-response","153","185309","0.0-1.0-203.0-0.0","0","0","34073","","537","","","68","22","","","1","22","training","adjacent","DC","4","3","Q.jpg","N.jpg","0","0","1","",""
"","feedback","","html-keyboard-response","154","186318","0.0-1.0-204.0-0.0","0","0","34073","","null","","","null","22","","","","","","","","","","","","","","","",""
"","ITI","","html-keyboard-response","155","187329","0.0-1.0-207.0","0","0","34073","","null","","","null","22","","","","","","","","","","","","","","","NaN",""
"","S1","","html-keyboard-response","156","187592","0.0-1.0-209.0","0","0","34073","","null","","","null","23","","","","","","","","","","","","","","","",""
"","ISI","","html-keyboard-response","157","187747","0.0-1.0-210.0","0","0","34073","","null","","","null","23","NaN","","","","","","","","","","","","","","",""
"","S2","","html-keyboard-response","158","188010","0.0-1.0-211.0","0","0","34073","","null","","","null","23","","NaN","","","","","","","","","","","","","",""
"","response","","html-keyboard-response","159","188624","0.0-1.0-212.0-0.0","0","0","34073","","611","","","75","23","","","1","23","training","adjacent","EF","5","6","M.jpg","O.jpg","1","1","1","",""
"","feedback","","html-keyboard-response","160","189638","0.0-1.0-213.0-0.0","0","0","34073","","null","","","null","23","","","","","","","","","","","","","","","",""
"","ITI","","html-keyboard-response","161","190648","0.0-1.0-216.0","0","0","34073","","null","","","null","23","","","","","","","","","","","","","","","NaN",""
"","S1","","html-keyboard-response","162","190906","0.0-1.0-218.0","0","0","34073","","null","","","null","24","","","","","","","","","","","","","","","",""
"","ISI","","html-keyboard-response","163","191063","0.0-1.0-219.0","0","0","34073","","null","","","null","24","NaN","","","","","","","","","","","","","","",""
"","S2","","html-keyboard-response","164","191321","0.0-1.0-220.0","0","0","34073","","null","","","null","24","","NaN","","","","","","","","","","","","","",""
"","response","","html-keyboard-response","165","192139","0.0-1.0-221.0-0.0","0","0","34073","","813","","","75","24","","","1","24","training","adjacent","ED","5","4","M.jpg","Q.jpg","1","0","0","",""
"","feedback","","html-keyboard-response","166","193155","0.0-1.0-222.0-0.0","0","0","34073","","null","","","null","24","","","","","","","","","","","","","","","",""
"","time_out","","html-keyboard-response","167","195166","0.0-1.0-224.0-0.0","0","0","34073","","null","","","null","24","","","","","","","","","","","","","","","",""
"","ITI","","html-keyboard-response","168","196174","0.0-1.0-225.0","0","0","34073","","null","","","null","24","","","","","","","","","","","","","","","NaN",""
"","S1","","html-keyboard-response","169","196429","0.0-1.0-227.0","0","0","34073","","null","","","null","25","","","","","","","","","","","","","","","",""
"","ISI","","html-keyboard-response","170","196588","0.0-1.0-228.0","0","0","34073","","null","","","null","25","NaN","","","","","","","","","","","","","","",""
"","S2","","html-keyboard-response","171","196849","0.0-1.0-229.0","0","0","34073","","null","","","null","25","","NaN","","","","","","","","","","","","","",""
"","response","","html-keyboard-response","172","197463","0.0-1.0-230.0-0.0","0","0","34073","","608","","","68","25","","","1","25","training","adjacent","BC","2","3","R.jpg","N.jpg","0","1","0","",""
"","feedback","","html-keyboard-response","173","198473","0.0-1.0-231.0-0.0","0","0","34073","","null","","","null","25","","","","","","","","","","","","","","","",""
"","time_out","","html-keyboard-response","174","200477","0.0-1.0-233.0-0.0","0","0","34073","","null","","","null","25","","","","","","","","","","","","","","","",""
"","ITI","","html-keyboard-response","175","201490","0.0-1.0-234.0","0","0","34073","","null","","","null","25","","","","","","","","","","","","","","","NaN",""
"","S1","","html-keyboard-response","176","201751","0.0-1.0-236.0","0","0","34073","","null","","","null","26","","","","","","","","","","","","","","","",""
"","ISI","","html-keyboard-response","177","201906","0.0-1.0-237.0","0","0","34073","","null","","","null","26","NaN","","","","","","","","","","","","","","",""
"","S2","","html-keyboard-response","178","202166","0.0-1.0-238.0","0","0","34073","","null","","","null","26","","NaN","","","","","","","","","","","","","",""
"","response","","html-keyboard-response","179","202699","0.0-1.0-239.0-0.0","0","0","34073","","529","","","75","26","","","1","26","training","adjacent","BC","2","3","R.jpg","N.jpg","1","1","1","",""
"","feedback","","html-keyboard-response","180","203706","0.0-1.0-240.0-0.0","0","0","34073","","null","","","null","26","","","","","","","","","","","","","","","",""
"","ITI","","html-keyboard-response","181","204712","0.0-1.0-243.0","0","0","34073","","null","","","null","26","","","","","","","","","","","","","","","NaN",""
"","S1","","html-keyboard-response","182","204968","0.0-1.0-245.0","0","0","34073","","null","","","null","27","","","","","","","","","","","","","","","",""
"","ISI","","html-keyboard-response","183","205131","0.0-1.0-246.0","0","0","34073","","null","","","null","27","NaN","","","","","","","","","","","","","","",""
"","S2","","html-keyboard-response","184","205388","0.0-1.0-247.0","0","0","34073","","null","","","null","27","","NaN","","","","","","","","","","","","","",""
"","response","","html-keyboard-response","185","206397","0.0-1.0-248.0-0.0","0","0","34073","","1004","","","68","27","","","1","27","training","adjacent","GF","7","6","L.jpg","O.jpg","0","0","1","",""
"","feedback","","html-keyboard-response","186","207404","0.0-1.0-249.0-0.0","0","0","34073","","null","","","null","27","","","","","","","","","","","","","","","",""
"","ITI","","html-keyboard-response","187","208410","0.0-1.0-252.0","0","0","34073","","null","","","null","27","","","","","","","","","","","","","","","NaN",""
"","S1","","html-keyboard-response","188","208668","0.0-1.0-254.0","0","0","34073","","null","","","null","28","","","","","","","","","","","","","","","",""
"","ISI","","html-keyboard-response","189","208838","0.0-1.0-255.0","0","0","34073","","null","","","null","28","NaN","","","","","","","","","","","","","","",""
"","S2","","html-keyboard-response","190","209102","0.0-1.0-256.0","0","0","34073","","null","","","null","28","","NaN","","","","","","","","","","","","","",""
"","response","","html-keyboard-response","191","209731","0.0-1.0-257.0-0.0","0","0","34073","","624","","","68","28","","","1","28","training","adjacent","BC","2","3","R.jpg","N.jpg","0","1","0","",""
"","feedback","","html-keyboard-response","192","210745","0.0-1.0-258.0-0.0","0","0","34073","","null","","","null","28","","","","","","","","","","","","","","","",""
"","time_out","","html-keyboard-response","193","212758","0.0-1.0-260.0-0.0","0","0","34073","","null","","","null","28","","","","","","","","","","","","","","","",""
"","ITI","","html-keyboard-response","194","213776","0.0-1.0-261.0","0","0","34073","","null","","","null","28","","","","","","","","","","","","","","","NaN",""
"","S1","","html-keyboard-response","195","214037","0.0-1.0-263.0","0","0","34073","","null","","","null","29","","","","","","","","","","","","","","","",""
"","ISI","","html-keyboard-response","196","214196","0.0-1.0-264.0","0","0","34073","","null","","","null","29","NaN","","","","","","","","","","","","","","",""
"","S2","","html-keyboard-response","197","214454","0.0-1.0-265.0","0","0","34073","","null","","","null","29","","NaN","","","","","","","","","","","","","",""
"","response","","html-keyboard-response","198","215065","0.0-1.0-266.0-0.0","0","0","34073","","606","","","68","29","","","1","29","training","adjacent","AB","1","2","P.jpg","R.jpg","0","1","0","",""
"","feedback","","html-keyboard-response","199","216074","0.0-1.0-267.0-0.0","0","0","34073","","null","","","null","29","","","","","","","","","","","","","","","",""
"","time_out","","html-keyboard-response","200","218082","0.0-1.0-269.0-0.0","0","0","34073","","null","","","null","29","","","","","","","","","","","","","","","",""
"","ITI","","html-keyboard-response","201","219092","0.0-1.0-270.0","0","0","34073","","null","","","null","29","","","","","","","","","","","","","","","NaN",""
"","S1","","html-keyboard-response","202","219349","0.0-1.0-272.0","0","0","34073","","null","","","null","30","","","","","","","","","","","","","","","",""
"","ISI","","html-keyboard-response","203","219510","0.0-1.0-273.0","0","0","34073","","null","","","null","30","NaN","","","","","","","","","","","","","","",""
"","S2","","html-keyboard-response","204","219767","0.0-1.0-274.0","0","0","34073","","null","","","null","30","","NaN","","","","","","","","","","","","","",""
"","response","","html-keyboard-response","205","220740","0.0-1.0-275.0-0.0","0","0","34073","","968","","","68","30","","","1","30","training","adjacent","CD","3","4","N.jpg","Q.jpg","0","1","0","",""
"","feedback","","html-keyboard-response","206","221746","0.0-1.0-276.0-0.0","0","0","34073","","null","","","null","30","","","","","","","","","","","","","","","",""
"","time_out","","html-keyboard-response","207","223757","0.0-1.0-278.0-0.0","0","0","34073","","null","","","null","30","","","","","","","","","","","","","","","",""
"","ITI","","html-keyboard-response","208","224768","0.0-1.0-279.0","0","0","34073","","null","","","null","30","","","","","","","","","","","","","","","NaN",""
"","S1","","html-keyboard-response","209","225024","0.0-1.0-281.0","0","0","34073","","null","","","null","31","","","","","","","","","","","","","","","",""
"","ISI","","html-keyboard-response","210","225182","0.0-1.0-282.0","0","0","34073","","null","","","null","31","NaN","","","","","","","","","","","","","","",""
"","S2","","html-keyboard-response","211","225445","0.0-1.0-283.0","0","0","34073","","null","","","null","31","","NaN","","","","","","","","","","","","","",""
"","response","","html-keyboard-response","212","226144","0.0-1.0-284.0-0.0","0","0","34073","","694","","","75","31","","","1","31","training","adjacent","ED","5","4","M.jpg","Q.jpg","1","0","0","",""
"","feedback","","html-keyboard-response","213","227157","0.0-1.0-285.0-0.0","0","0","34073","","null","","","null","31","","","","","","","","","","","","","","","",""
"","time_out","","html-keyboard-response","214","229167","0.0-1.0-287.0-0.0","0","0","34073","","null","","","null","31","","","","","","","","","","","","","","","",""
"","ITI","","html-keyboard-response","215","230180","0.0-1.0-288.0","0","0","34073","","null","","","null","31","","","","","","","","","","","","","","","NaN",""
"","S1","","html-keyboard-response","216","230436","0.0-1.0-290.0","0","0","34073","","null","","","null","32","","","","","","","","","","","","","","","",""
"","ISI","","html-keyboard-response","217","230607","0.0-1.0-291.0","0","0","34073","","null","","","null","32","NaN","","","","","","","","","","","","","","",""
"","S2","","html-keyboard-response","218","230868","0.0-1.0-292.0","0","0","34073","","null","","","null","32","","NaN","","","","","","","","","","","","","",""
"","response","","html-keyboard-response","219","231331","0.0-1.0-293.0-0.0","0","0","34073","","457","","","68","32","","","1","32","training","adjacent","DC","4","3","Q.jpg","N.jpg","0","0","1","",""
"","feedback","","html-keyboard-response","220","232339","0.0-1.0-294.0-0.0","0","0","34073","","null","","","null","32","","","","","","","","","","","","","","","",""
"","ITI","","html-keyboard-response","221","233353","0.0-1.0-297.0","0","0","34073","","null","","","null","32","","","","","","","","","","","","","","","NaN",""
"","S1","","html-keyboard-response","222","233615","0.0-1.0-299.0","0","0","34073","","null","","","null","33","","","","","","","","","","","","","","","",""
"","ISI","","html-keyboard-response","223","233772","0.0-1.0-300.0","0","0","34073","","null","","","null","33","NaN","","","","","","","","","","","","","","",""
"","S2","","html-keyboard-response","224","234031","0.0-1.0-301.0","0","0","34073","","null","","","null","33","","NaN","","","","","","","","","","","","","",""
"","response","","html-keyboard-response","225","234531","0.0-1.0-302.0-0.0","0","0","34073","","496","","","68","33","","","1","33","training","adjacent","BA","2","1","R.jpg","P.jpg","0","0","1","",""
"","feedback","","html-keyboard-response","226","235542","0.0-1.0-303.0-0.0","0","0","34073","","null","","","null","33","","","","","","","","","","","","","","","",""
"","ITI","","html-keyboard-response","227","236547","0.0-1.0-306.0","0","0","34073","","null","","","null","33","","","","","","","","","","","","","","","NaN",""
"","S1","","html-keyboard-response","228","236805","0.0-1.0-308.0","0","0","34073","","null","","","null","34","","","","","","","","","","","","","","","",""
"","ISI","","html-keyboard-response","229","236964","0.0-1.0-309.0","0","0","34073","","null","","","null","34","NaN","","","","","","","","","","","","","","",""
"","S2","","html-keyboard-response","230","237222","0.0-1.0-310.0","0","0","34073","","null","","","null","34","","NaN","","","","","","","","","","","","","",""
"","response","","html-keyboard-response","231","237693","0.0-1.0-311.0-0.0","0","0","34073","","466","","","68","34","","","1","34","training","adjacent","DE","4","5","Q.jpg","M.jpg","0","1","0","",""
"","feedback","","html-keyboard-response","232","238703","0.0-1.0-312.0-0.0","0","0","34073","","null","","","null","34","","","","","","","","","","","","","","","",""
"","time_out","","html-keyboard-response","233","240713","0.0-1.0-314.0-0.0","0","0","34073","","null","","","null","34","","","","","","","","","","","","","","","",""
"","ITI","","html-keyboard-response","234","241723","0.0-1.0-315.0","0","0","34073","","null","","","null","34","","","","","","","","","","","","","","","NaN",""
"","S1","","html-keyboard-response","235","241983","0.0-1.0-317.0","0","0","34073","","null","","","null","35","","","","","","","","","","","","","","","",""
"","ISI","","html-keyboard-response","236","242143","0.0-1.0-318.0","0","0","34073","","null","","","null","35","NaN","","","","","","","","","","","","","","",""
"","S2","","html-keyboard-response","237","242408","0.0-1.0-319.0","0","0","34073","","null","","","null","35","","NaN","","","","","","","","","","","","","",""
"","response","","html-keyboard-response","238","243148","0.0-1.0-320.0-0.0","0","0","34073","","734","","","75","35","","","1","35","training","adjacent","ED","5","4","M.jpg","Q.jpg","1","0","0","",""
"","feedback","","html-keyboard-response","239","244161","0.0-1.0-321.0-0.0","0","0","34073","","null","","","null","35","","","","","","","","","","","","","","","",""
"","time_out","","html-keyboard-response","240","246166","0.0-1.0-323.0-0.0","0","0","34073","","null","","","null","35","","","","","","","","","","","","","","","",""
"","ITI","","html-keyboard-response","241","247170","0.0-1.0-324.0","0","0","34073","","null","","","null","35","","","","","","","","","","","","","","","NaN",""
"","S1","","html-keyboard-response","242","247427","0.0-1.0-326.0","0","0","34073","","null","","","null","36","","","","","","","","","","","","","","","",""
"","ISI","","html-keyboard-response","243","247589","0.0-1.0-327.0","0","0","34073","","null","","","null","36","NaN","","","","","","","","","","","","","","",""
"","S2","","html-keyboard-response","244","247850","0.0-1.0-328.0","0","0","34073","","null","","","null","36","","NaN","","","","","","","","","","","","","",""
"","response","","html-keyboard-response","245","248749","0.0-1.0-329.0-0.0","0","0","34073","","894","","","75","36","","","1","36","training","adjacent","CD","3","4","N.jpg","Q.jpg","1","1","1","",""
"","feedback","","html-keyboard-response","246","249760","0.0-1.0-330.0-0.0","0","0","34073","","null","","","null","36","","","","","","","","","","","","","","","",""
"","ITI","","html-keyboard-response","247","250769","0.0-1.0-333.0","0","0","34073","","null","","","null","36","","","","","","","","","","","","","","","NaN",""
"","S1","","html-keyboard-response","248","251025","0.0-1.0-335.0","0","0","34073","","null","","","null","37","","","","","","","","","","","","","","","",""
"","ISI","","html-keyboard-response","249","251188","0.0-1.0-336.0","0","0","34073","","null","","","null","37","NaN","","","","","","","","","","","","","","",""
"","S2","","html-keyboard-response","250","251448","0.0-1.0-337.0","0","0","34073","","null","","","null","37","","NaN","","","","","","","","","","","","","",""
"","response","","html-keyboard-response","251","251953","0.0-1.0-338.0-0.0","0","0","34073","","500","","","75","37","","","1","37","training","adjacent","FG","6","7","O.jpg","L.jpg","1","1","1","",""
"","feedback","","html-keyboard-response","252","252963","0.0-1.0-339.0-0.0","0","0","34073","","null","","","null","37","","","","","","","","","","","","","","","",""
"","ITI","","html-keyboard-response","253","253970","0.0-1.0-342.0","0","0","34073","","null","","","null","37","","","","","","","","","","","","","","","NaN",""
"","S1","","html-keyboard-response","254","254229","0.0-1.0-344.0","0","0","34073","","null","","","null","38","","","","","","","","","","","","","","","",""
"","ISI","","html-keyboard-response","255","254398","0.0-1.0-345.0","0","0","34073","","null","","","null","38","NaN","","","","","","","","","","","","","","",""
"","S2","","html-keyboard-response","256","254658","0.0-1.0-346.0","0","0","34073","","null","","","null","38","","NaN","","","","","","","","","","","","","",""
"","response","","html-keyboard-response","257","255175","0.0-1.0-347.0-0.0","0","0","34073","","512","","","75","38","","","1","38","training","adjacent","AB","1","2","P.jpg","R.jpg","1","1","1","",""
"","feedback","","html-keyboard-response","258","256185","0.0-1.0-348.0-0.0","0","0","34073","","null","","","null","38","","","","","","","","","","","","","","","",""
"","ITI","","html-keyboard-response","259","257197","0.0-1.0-351.0","0","0","34073","","null","","","null","38","","","","","","","","","","","","","","","NaN",""
"","S1","","html-keyboard-response","260","257454","0.0-1.0-353.0","0","0","34073","","null","","","null","39","","","","","","","","","","","","","","","",""
"","ISI","","html-keyboard-response","261","257617","0.0-1.0-354.0","0","0","34073","","null","","","null","39","NaN","","","","","","","","","","","","","","",""
"","S2","","html-keyboard-response","262","257880","0.0-1.0-355.0","0","0","34073","","null","","","null","39","","NaN","","","","","","","","","","","","","",""
"","response","","html-keyboard-response","263","258543","0.0-1.0-356.0-0.0","0","0","34073","","658","","","68","39","","","1","39","training","adjacent","CB","3","2","N.jpg","R.jpg","0","0","1","",""
"","feedback","","html-keyboard-response","264","259548","0.0-1.0-357.0-0.0","0","0","34073","","null","","","null","39","","","","","","","","","","","","","","","",""
"","ITI","","html-keyboard-response","265","260554","0.0-1.0-360.0","0","0","34073","","null","","","null","39","","","","","","","","","","","","","","","NaN",""
"","S1","","html-keyboard-response","266","260812","0.0-1.0-362.0","0","0","34073","","null","","","null","40","","","","","","","","","","","","","","","",""
"","ISI","","html-keyboard-response","267","260972","0.0-1.0-363.0","0","0","34073","","null","","","null","40","NaN","","","","","","","","","","","","","","",""
"","S2","","html-keyboard-response","268","261234","0.0-1.0-364.0","0","0","34073","","null","","","null","40","","NaN","","","","","","","","","","","","","",""
"","response","","html-keyboard-response","269","261900","0.0-1.0-365.0-0.0","0","0","34073","","662","","","75","40","","","1","40","training","adjacent","CD","3","4","N.jpg","Q.jpg","1","1","1","",""
"","feedback","","html-keyboard-response","270","262913","0.0-1.0-366.0-0.0","0","0","34073","","null","","","null","40","","","","","","","","","","","","","","","",""
"","ITI","","html-keyboard-response","271","263925","0.0-1.0-369.0","0","0","34073","","null","","","null","40","","","","","","","","","","","","","","","NaN",""
"","S1","","html-keyboard-response","272","264182","0.0-1.0-371.0","0","0","34073","","null","","","null","41","","","","","","","","","","","","","","","",""
"","ISI","","html-keyboard-response","273","264339","0.0-1.0-372.0","0","0","34073","","null","","","null","41","NaN","","","","","","","","","","","","","","",""
"","S2","","html-keyboard-response","274","264594","0.0-1.0-373.0","0","0","34073","","null","","","null","41","","NaN","","","","","","","","","","","","","",""
"","response","","html-keyboard-response","275","265066","0.0-1.0-374.0-0.0","0","0","34073","","467","","","75","41","","","1","41","training","adjacent","FG","6","7","O.jpg","L.jpg","1","1","1","",""
"","feedback","","html-keyboard-response","276","266078","0.0-1.0-375.0-0.0","0","0","34073","","null","","","null","41","","","","","","","","","","","","","","","",""
"","ITI","","html-keyboard-response","277","267088","0.0-1.0-378.0","0","0","34073","","null","","","null","41","","","","","","","","","","","","","","","NaN",""
"","S1","","html-keyboard-response","278","267348","0.0-1.0-380.0","0","0","34073","","null","","","null","42","","","","","","","","","","","","","","","",""
"","ISI","","html-keyboard-response","279","267508","0.0-1.0-381.0","0","0","34073","","null","","","null","42","NaN","","","","","","","","","","","","","","",""
"","S2","","html-keyboard-response","280","267775","0.0-1.0-382.0","0","0","34073","","null","","","null","42","","NaN","","","","","","","","","","","","","",""
"","response","","html-keyboard-response","281","268248","0.0-1.0-383.0-0.0","0","0","34073","","469","","","68","42","","","1","42","training","adjacent","DE","4","5","Q.jpg","M.jpg","0","1","0","",""
"","feedback","","html-keyboard-response","282","269255","0.0-1.0-384.0-0.0","0","0","34073","","null","","","null","42","","","","","","","","","","","","","","","",""
"","time_out","","html-keyboard-response","283","271267","0.0-1.0-386.0-0.0","0","0","34073","","null","","","null","42","","","","","","","","","","","","","","","",""
"","ITI","","html-keyboard-response","284","272278","0.0-1.0-387.0","0","0","34073","","null","","","null","42","","","","","","","","","","","","","","","NaN",""
"","S1","","html-keyboard-response","285","272535","0.0-1.0-389.0","0","0","34073","","null","","","null","43","","","","","","","","","","","","","","","",""
"","ISI","","html-keyboard-response","286","272692","0.0-1.0-390.0","0","0","34073","","null","","","null","43","NaN","","","","","","","","","","","","","","",""
"","S2","","html-keyboard-response","287","272960","0.0-1.0-391.0","0","0","34073","","null","","","null","43","","NaN","","","","","","","","","","","","","",""
"","response","","html-keyboard-response","288","273485","0.0-1.0-392.0-0.0","0","0","34073","","521","","","68","43","","","1","43","training","adjacent","DC","4","3","Q.jpg","N.jpg","0","0","1","",""
"","feedback","","html-keyboard-response","289","274494","0.0-1.0-393.0-0.0","0","0","34073","","null","","","null","43","","","","","","","","","","","","","","","",""
"","ITI","","html-keyboard-response","290","275499","0.0-1.0-396.0","0","0","34073","","null","","","null","43","","","","","","","","","","","","","","","NaN",""
"","S1","","html-keyboard-response","291","275757","0.0-1.0-398.0","0","0","34073","","null","","","null","44","","","","","","","","","","","","","","","",""
"","ISI","","html-keyboard-response","292","275925","0.0-1.0-399.0","0","0","34073","","null","","","null","44","NaN","","","","","","","","","","","","","","",""
"","S2","","html-keyboard-response","293","276183","0.0-1.0-400.0","0","0","34073","","null","","","null","44","","NaN","","","","","","","","","","","","","",""
"","response","","html-keyboard-response","294","277083","0.0-1.0-401.0-0.0","0","0","34073","","895","","","75","44","","","1","44","training","adjacent","DE","4","5","Q.jpg","M.jpg","1","1","1","",""
"","feedback","","html-keyboard-response","295","278105","0.0-1.0-402.0-0.0","0","0","34073","","null","","","null","44","","","","","","","","","","","","","","","",""
"","ITI","","html-keyboard-response","296","279117","0.0-1.0-405.0","0","0","34073","","null","","","null","44","","","","","","","","","","","","","","","NaN",""
"","S1","","html-keyboard-response","297","279374","0.0-1.0-407.0","0","0","34073","","null","","","null","45","","","","","","","","","","","","","","","",""
"","ISI","","html-keyboard-response","298","279533","0.0-1.0-408.0","0","0","34073","","null","","","null","45","NaN","","","","","","","","","","","","","","",""
"","S2","","html-keyboard-response","299","279790","0.0-1.0-409.0","0","0","34073","","null","","","null","45","","NaN","","","","","","","","","","","","","",""
"","response","","html-keyboard-response","300","280966","0.0-1.0-410.0-0.0","0","0","34073","","1171","","","75","45","","","1","45","training","adjacent","EF","5","6","M.jpg","O.jpg","1","1","1","",""
"","feedback","","html-keyboard-response","301","281975","0.0-1.0-411.0-0.0","0","0","34073","","null","","","null","45","","","","","","","","","","","","","","","",""
"","ITI","","html-keyboard-response","302","282980","0.0-1.0-414.0","0","0","34073","","null","","","null","45","","","","","","","","","","","","","","","NaN",""
"","S1","","html-keyboard-response","303","283237","0.0-1.0-416.0","0","0","34073","","null","","","null","46","","","","","","","","","","","","","","","",""
"","ISI","","html-keyboard-response","304","283399","0.0-1.0-417.0","0","0","34073","","null","","","null","46","NaN","","","","","","","","","","","","","","",""
"","S2","","html-keyboard-response","305","283655","0.0-1.0-418.0","0","0","34073","","null","","","null","46","","NaN","","","","","","","","","","","","","",""
"","response","","html-keyboard-response","306","284436","0.0-1.0-419.0-0.0","0","0","34073","","777","","","75","46","","","1","46","training","adjacent","DE","4","5","Q.jpg","M.jpg","1","1","1","",""
"","feedback","","html-keyboard-response","307","285448","0.0-1.0-420.0-0.0","0","0","34073","","null","","","null","46","","","","","","","","","","","","","","","",""
"","ITI","","html-keyboard-response","308","286462","0.0-1.0-423.0","0","0","34073","","null","","","null","46","","","","","","","","","","","","","","","NaN",""
"","S1","","html-keyboard-response","309","286722","0.0-1.0-425.0","0","0","34073","","null","","","null","47","","","","","","","","","","","","","","","",""
"","ISI","","html-keyboard-response","310","286878","0.0-1.0-426.0","0","0","34073","","null","","","null","47","NaN","","","","","","","","","","","","","","",""
"","S2","","html-keyboard-response","311","287139","0.0-1.0-427.0","0","0","34073","","null","","","null","47","","NaN","","","","","","","","","","","","","",""
"","response","","html-keyboard-response","312","287884","0.0-1.0-428.0-0.0","0","0","34073","","741","","","75","47","","","1","47","training","adjacent","GF","7","6","L.jpg","O.jpg","1","0","0","",""
"","feedback","","html-keyboard-response","313","288898","0.0-1.0-429.0-0.0","0","0","34073","","null","","","null","47","","","","","","","","","","","","","","","",""
"","time_out","","html-keyboard-response","314","290908","0.0-1.0-431.0-0.0","0","0","34073","","null","","","null","47","","","","","","","","","","","","","","","",""
"","ITI","","html-keyboard-response","315","291918","0.0-1.0-432.0","0","0","34073","","null","","","null","47","","","","","","","","","","","","","","","NaN",""
"","block_over","","html-keyboard-response","316","294545","0.0-1.0-433.0-0.0","0","0","34073","","2622","","","32","47","","","","","","","","","","","","","","","",""
"","S1","","html-keyboard-response","317","294801","0.0-1.0-434.0","0","0","34073","","null","","","null","48","","","","","","","","","","","","","","","",""
"","ISI","","html-keyboard-response","318","294969","0.0-1.0-435.0","0","0","34073","","null","","","null","48","NaN","","","","","","","","","","","","","","",""
"","S2","","html-keyboard-response","319","295226","0.0-1.0-436.0","0","0","34073","","null","","","null","48","","NaN","","","","","","","","","","","","","",""
"","response","","html-keyboard-response","320","295840","0.0-1.0-437.0-0.0","0","0","34073","","610","","","68","48","","","2","48","training","adjacent","DC","4","3","Q.jpg","N.jpg","0","0","1","",""
"","feedback","","html-keyboard-response","321","296846","0.0-1.0-438.0-0.0","0","0","34073","","null","","","null","48","","","","","","","","","","","","","","","",""
"","ITI","","html-keyboard-response","322","297857","0.0-1.0-441.0","0","0","34073","","null","","","null","48","","","","","","","","","","","","","","","NaN",""
"","S1","","html-keyboard-response","323","298115","0.0-1.0-443.0","0","0","34073","","null","","","null","49","","","","","","","","","","","","","","","",""
"","ISI","","html-keyboard-response","324","298276","0.0-1.0-444.0","0","0","34073","","null","","","null","49","NaN","","","","","","","","","","","","","","",""
"","S2","","html-keyboard-response","325","298533","0.0-1.0-445.0","0","0","34073","","null","","","null","49","","NaN","","","","","","","","","","","","","",""
"","response","","html-keyboard-response","326","298927","0.0-1.0-446.0-0.0","0","0","34073","","388","","","75","49","","","2","49","training","adjacent","FG","6","7","O.jpg","L.jpg","1","1","1","",""
"","feedback","","html-keyboard-response","327","299936","0.0-1.0-447.0-0.0","0","0","34073","","null","","","null","49","","","","","","","","","","","","","","","",""
"","ITI","","html-keyboard-response","328","300944","0.0-1.0-450.0","0","0","34073","","null","","","null","49","","","","","","","","","","","","","","","NaN",""
"","S1","","html-keyboard-response","329","301199","0.0-1.0-452.0","0","0","34073","","null","","","null","50","","","","","","","","","","","","","","","",""
"","ISI","","html-keyboard-response","330","301366","0.0-1.0-453.0","0","0","34073","","null","","","null","50","NaN","","","","","","","","","","","","","","",""
"","S2","","html-keyboard-response","331","301621","0.0-1.0-454.0","0","0","34073","","null","","","null","50","","NaN","","","","","","","","","","","","","",""
"","response","","html-keyboard-response","332","302147","0.0-1.0-455.0-0.0","0","0","34073","","521","","","75","50","","","2","50","training","adjacent","CD","3","4","N.jpg","Q.jpg","1","1","1","",""
"","feedback","","html-keyboard-response","333","303156","0.0-1.0-456.0-0.0","0","0","34073","","null","","","null","50","","","","","","","","","","","","","","","",""
"","ITI","","html-keyboard-response","334","304161","0.0-1.0-459.0","0","0","34073","","null","","","null","50","","","","","","","","","","","","","","","NaN",""
"","S1","","html-keyboard-response","335","304419","0.0-1.0-461.0","0","0","34073","","null","","","null","51","","","","","","","","","","","","","","","",""
"","ISI","","html-keyboard-response","336","304577","0.0-1.0-462.0","0","0","34073","","null","","","null","51","NaN","","","","","","","","","","","","","","",""
"","S2","","html-keyboard-response","337","304840","0.0-1.0-463.0","0","0","34073","","null","","","null","51","","NaN","","","","","","","","","","","","","",""
"","response","","html-keyboard-response","338","305280","0.0-1.0-464.0-0.0","0","0","34073","","436","","","75","51","","","2","51","training","adjacent","FE","6","5","O.jpg","M.jpg","1","0","0","",""
"","feedback","","html-keyboard-response","339","306292","0.0-1.0-465.0-0.0","0","0","34073","","null","","","null","51","","","","","","","","","","","","","","","",""
"","time_out","","html-keyboard-response","340","308297","0.0-1.0-467.0-0.0","0","0","34073","","null","","","null","51","","","","","","","","","","","","","","","",""
"","ITI","","html-keyboard-response","341","309305","0.0-1.0-468.0","0","0","34073","","null","","","null","51","","","","","","","","","","","","","","","NaN",""
"","S1","","html-keyboard-response","342","309563","0.0-1.0-470.0","0","0","34073","","null","","","null","52","","","","","","","","","","","","","","","",""
"","ISI","","html-keyboard-response","343","309721","0.0-1.0-471.0","0","0","34073","","null","","","null","52","NaN","","","","","","","","","","","","","","",""
"","S2","","html-keyboard-response","344","309984","0.0-1.0-472.0","0","0","34073","","null","","","null","52","","NaN","","","","","","","","","","","","","",""
"","response","","html-keyboard-response","345","310472","0.0-1.0-473.0-0.0","0","0","34073","","483","","","68","52","","","2","52","training","adjacent","CB","3","2","N.jpg","R.jpg","0","0","1","",""
"","feedback","","html-keyboard-response","346","311476","0.0-1.0-474.0-0.0","0","0","34073","","null","","","null","52","","","","","","","","","","","","","","","",""
"","ITI","","html-keyboard-response","347","312487","0.0-1.0-477.0","0","0","34073","","null","","","null","52","","","","","","","","","","","","","","","NaN",""
"","S1","","html-keyboard-response","348","312747","0.0-1.0-479.0","0","0","34073","","null","","","null","53","","","","","","","","","","","","","","","",""
"","ISI","","html-keyboard-response","349","312907","0.0-1.0-480.0","0","0","34073","","null","","","null","53","NaN","","","","","","","","","","","","","","",""
"","S2","","html-keyboard-response","350","313163","0.0-1.0-481.0","0","0","34073","","null","","","null","53","","NaN","","","","","","","","","","","","","",""
"","response","","html-keyboard-response","351","313769","0.0-1.0-482.0-0.0","0","0","34073","","601","","","75","53","","","2","53","training","adjacent","ED","5","4","M.jpg","Q.jpg","1","0","0","",""
"","feedback","","html-keyboard-response","352","314774","0.0-1.0-483.0-0.0","0","0","34073","","null","","","null","53","","","","","","","","","","","","","","","",""
"","time_out","","html-keyboard-response","353","316781","0.0-1.0-485.0-0.0","0","0","34073","","null","","","null","53","","","","","","","","","","","","","","","",""
"","ITI","","html-keyboard-response","354","317785","0.0-1.0-486.0","0","0","34073","","null","","","null","53","","","","","","","","","","","","","","","NaN",""
"","S1","","html-keyboard-response","355","318041","0.0-1.0-488.0","0","0","34073","","null","","","null","54","","","","","","","","","","","","","","","",""
"","ISI","","html-keyboard-response","356","318207","0.0-1.0-489.0","0","0","34073","","null","","","null","54","NaN","","","","","","","","","","","","","","",""
"","S2","","html-keyboard-response","357","318469","0.0-1.0-490.0","0","0","34073","","null","","","null","54","","NaN","","","","","","","","","","","","","",""
"","response","","html-keyboard-response","358","319183","0.0-1.0-491.0-0.0","0","0","34073","","708","","","75","54","","","2","54","training","adjacent","ED","5","4","M.jpg","Q.jpg","1","0","0","",""
"","feedback","","html-keyboard-response","359","320203","0.0-1.0-492.0-0.0","0","0","34073","","null","","","null","54","","","","","","","","","","","","","","","",""
"","time_out","","html-keyboard-response","360","322208","0.0-1.0-494.0-0.0","0","0","34073","","null","","","null","54","","","","","","","","","","","","","","","",""
"","ITI","","html-keyboard-response","361","323221","0.0-1.0-495.0","0","0","34073","","null","","","null","54","","","","","","","","","","","","","","","NaN",""
"","S1","","html-keyboard-response","362","323483","0.0-1.0-497.0","0","0","34073","","null","","","null","55","","","","","","","","","","","","","","","",""
"","ISI","","html-keyboard-response","363","323644","0.0-1.0-498.0","0","0","34073","","null","","","null","55","NaN","","","","","","","","","","","","","","",""
"","S2","","html-keyboard-response","364","323907","0.0-1.0-499.0","0","0","34073","","null","","","null","55","","NaN","","","","","","","","","","","","","",""
"","response","","html-keyboard-response","365","324464","0.0-1.0-500.0-0.0","0","0","34073","","553","","","75","55","","","2","55","training","adjacent","DE","4","5","Q.jpg","M.jpg","1","1","1","",""
"","feedback","","html-keyboard-response","366","325473","0.0-1.0-501.0-0.0","0","0","34073","","null","","","null","55","","","","","","","","","","","","","","","",""
"","ITI","","html-keyboard-response","367","326489","0.0-1.0-504.0","0","0","34073","","null","","","null","55","","","","","","","","","","","","","","","NaN",""
"","S1","","html-keyboard-response","368","326745","0.0-1.0-506.0","0","0","34073","","null","","","null","56","","","","","","","","","","","","","","","",""
"","ISI","","html-keyboard-response","369","326902","0.0-1.0-507.0","0","0","34073","","null","","","null","56","NaN","","","","","","","","","","","","","","",""
"","S2","","html-keyboard-response","370","327165","0.0-1.0-508.0","0","0","34073","","null","","","null","56","","NaN","","","","","","","","","","","","","",""
"","response","","html-keyboard-response","371","327746","0.0-1.0-509.0-0.0","0","0","34073","","576","","","68","56","","","2","56","training","adjacent","CB","3","2","N.jpg","R.jpg","0","0","1","",""
"","feedback","","html-keyboard-response","372","328754","0.0-1.0-510.0-0.0","0","0","34073","","null","","","null","56","","","","","","","","","","","","","","","",""
"","ITI","","html-keyboard-response","373","329772","0.0-1.0-513.0","0","0","34073","","null","","","null","56","","","","","","","","","","","","","","","NaN",""
"","S1","","html-keyboard-response","374","330029","0.0-1.0-515.0","0","0","34073","","null","","","null","57","","","","","","","","","","","","","","","",""
"","ISI","","html-keyboard-response","375","330183","0.0-1.0-516.0","0","0","34073","","null","","","null","57","NaN","","","","","","","","","","","","","","",""
"","S2","","html-keyboard-response","376","330448","0.0-1.0-517.0","0","0","34073","","null","","","null","57","","NaN","","","","","","","","","","","","","",""
"","response","","html-keyboard-response","377","330906","0.0-1.0-518.0-0.0","0","0","34073","","453","","","75","57","","","2","57","training","adjacent","DE","4","5","Q.jpg","M.jpg","1","1","1","",""
"","feedback","","html-keyboard-response","378","331918","0.0-1.0-519.0-0.0","0","0","34073","","null","","","null","57","","","","","","","","","","","","","","","",""
"","ITI","","html-keyboard-response","379","332926","0.0-1.0-522.0","0","0","34073","","null","","","null","57","","","","","","","","","","","","","","","NaN",""
"","S1","","html-keyboard-response","380","333185","0.0-1.0-524.0","0","0","34073","","null","","","null","58","","","","","","","","","","","","","","","",""
"","ISI","","html-keyboard-response","381","333339","0.0-1.0-525.0","0","0","34073","","null","","","null","58","NaN","","","","","","","","","","","","","","",""
"","S2","","html-keyboard-response","382","333604","0.0-1.0-526.0","0","0","34073","","null","","","null","58","","NaN","","","","","","","","","","","","","",""
"","response","","html-keyboard-response","383","334944","0.0-1.0-527.0-0.0","0","0","34073","","1335","","","68","58","","","2","58","training","adjacent","AB","1","2","P.jpg","R.jpg","0","1","0","",""
"","feedback","","html-keyboard-response","384","335953","0.0-1.0-528.0-0.0","0","0","34073","","null","","","null","58","","","","","","","","","","","","","","","",""
"","time_out","","html-keyboard-response","385","337962","0.0-1.0-530.0-0.0","0","0","34073","","null","","","null","58","","","","","","","","","","","","","","","",""
"","ITI","","html-keyboard-response","386","338975","0.0-1.0-531.0","0","0","34073","","null","","","null","58","","","","","","","","","","","","","","","NaN",""
"","S1","","html-keyboard-response","387","339239","0.0-1.0-533.0","0","0","34073","","null","","","null","59","","","","","","","","","","","","","","","",""
"","ISI","","html-keyboard-response","388","339395","0.0-1.0-534.0","0","0","34073","","null","","","null","59","NaN","","","","","","","","","","","","","","",""
"","S2","","html-keyboard-response","389","339657","0.0-1.0-535.0","0","0","34073","","null","","","null","59","","NaN","","","","","","","","","","","","","",""
"","response","","html-keyboard-response","390","340082","0.0-1.0-536.0-0.0","0","0","34073","","420","","","68","59","","","2","59","training","adjacent","DC","4","3","Q.jpg","N.jpg","0","0","1","",""
"","feedback","","html-keyboard-response","391","341088","0.0-1.0-537.0-0.0","0","0","34073","","null","","","null","59","","","","","","","","","","","","","","","",""
"","ITI","","html-keyboard-response","392","342098","0.0-1.0-540.0","0","0","34073","","null","","","null","59","","","","","","","","","","","","","","","NaN",""
"","S1","","html-keyboard-response","393","342354","0.0-1.0-542.0","0","0","34073","","null","","","null","60","","","","","","","","","","","","","","","",""
"","ISI","","html-keyboard-response","394","342517","0.0-1.0-543.0","0","0","34073","","null","","","null","60","NaN","","","","","","","","","","","","","","",""
"","S2","","html-keyboard-response","395","342786","0.0-1.0-544.0","0","0","34073","","null","","","null","60","","NaN","","","","","","","","","","","","","",""
"","response","","html-keyboard-response","396","343594","0.0-1.0-545.0-0.0","0","0","34073","","804","","","75","60","","","2","60","training","adjacent","ED","5","4","M.jpg","Q.jpg","1","0","0","",""
"","feedback","","html-keyboard-response","397","344600","0.0-1.0-546.0-0.0","0","0","34073","","null","","","null","60","","","","","","","","","","","","","","","",""
"","time_out","","html-keyboard-response","398","346613","0.0-1.0-548.0-0.0","0","0","34073","","null","","","null","60","","","","","","","","","","","","","","","",""
"","ITI","","html-keyboard-response","399","347618","0.0-1.0-549.0","0","0","34073","","null","","","null","60","","","","","","","","","","","","","","","NaN",""
"","S1","","html-keyboard-response","400","347876","0.0-1.0-551.0","0","0","34073","","null","","","null","61","","","","","","","","","","","","","","","",""
"","ISI","","html-keyboard-response","401","348033","0.0-1.0-552.0","0","0","34073","","null","","","null","61","NaN","","","","","","","","","","","","","","",""
"","S2","","html-keyboard-response","402","348291","0.0-1.0-553.0","0","0","34073","","null","","","null","61","","NaN","","","","","","","","","","","","","",""
"","response","","html-keyboard-response","403","348715","0.0-1.0-554.0-0.0","0","0","34073","","419","","","68","61","","","2","61","training","adjacent","DC","4","3","Q.jpg","N.jpg","0","0","1","",""
"","feedback","","html-keyboard-response","404","349725","0.0-1.0-555.0-0.0","0","0","34073","","null","","","null","61","","","","","","","","","","","","","","","",""
"","ITI","","html-keyboard-response","405","350732","0.0-1.0-558.0","0","0","34073","","null","","","null","61","","","","","","","","","","","","","","","NaN",""
"","S1","","html-keyboard-response","406","350993","0.0-1.0-560.0","0","0","34073","","null","","","null","62","","","","","","","","","","","","","","","",""
"","ISI","","html-keyboard-response","407","351151","0.0-1.0-561.0","0","0","34073","","null","","","null","62","NaN","","","","","","","","","","","","","","",""
"","S2","","html-keyboard-response","408","351413","0.0-1.0-562.0","0","0","34073","","null","","","null","62","","NaN","","","","","","","","","","","","","",""
"","response","","html-keyboard-response","409","352146","0.0-1.0-563.0-0.0","0","0","34073","","728","","","75","62","","","2","62","training","adjacent","EF","5","6","M.jpg","O.jpg","1","1","1","",""
"","feedback","","html-keyboard-response","410","353154","0.0-1.0-564.0-0.0","0","0","34073","","null","","","null","62","","","","","","","","","","","","","","","",""
"","ITI","","html-keyboard-response","411","354166","0.0-1.0-567.0","0","0","34073","","null","","","null","62","","","","","","","","","","","","","","","NaN",""
"","S1","","html-keyboard-response","412","354429","0.0-1.0-569.0","0","0","34073","","null","","","null","63","","","","","","","","","","","","","","","",""
"","ISI","","html-keyboard-response","413","354594","0.0-1.0-570.0","0","0","34073","","null","","","null","63","NaN","","","","","","","","","","","","","","",""
"","S2","","html-keyboard-response","414","354859","0.0-1.0-571.0","0","0","34073","","null","","","null","63","","NaN","","","","","","","","","","","","","",""
"","response","","html-keyboard-response","415","356072","0.0-1.0-572.0-0.0","0","0","34073","","1207","","","68","63","","","2","63","training","adjacent","GF","7","6","L.jpg","O.jpg","0","0","1","",""
"","feedback","","html-keyboard-response","416","357079","0.0-1.0-573.0-0.0","0","0","34073","","null","","","null","63","","","","","","","","","","","","","","","",""
"","ITI","","html-keyboard-response","417","358091","0.0-1.0-576.0","0","0","34073","","null","","","null","63","","","","","","","","","","","","","","","NaN",""
"","S1","","html-keyboard-response","418","358350","0.0-1.0-578.0","0","0","34073","","null","","","null","64","","","","","","","","","","","","","","","",""
"","ISI","","html-keyboard-response","419","358505","0.0-1.0-579.0","0","0","34073","","null","","","null","64","NaN","","","","","","","","","","","","","","",""
"","S2","","html-keyboard-response","420","358774","0.0-1.0-580.0","0","0","34073","","null","","","null","64","","NaN","","","","","","","","","","","","","",""
"","response","","html-keyboard-response","421","359606","0.0-1.0-581.0-0.0","0","0","34073","","827","","","68","64","","","2","64","training","adjacent","EF","5","6","M.jpg","O.jpg","0","1","0","",""
"","feedback","","html-keyboard-response","422","360616","0.0-1.0-582.0-0.0","0","0","34073","","null","","","null","64","","","","","","","","","","","","","","","",""
"","time_out","","html-keyboard-response","423","362622","0.0-1.0-584.0-0.0","0","0","34073","","null","","","null","64","","","","","","","","","","","","","","","",""
"","ITI","","html-keyboard-response","424","363630","0.0-1.0-585.0","0","0","34073","","null","","","null","64","","","","","","","","","","","","","","","NaN",""
"","S1","","html-keyboard-response","425","363887","0.0-1.0-587.0","0","0","34073","","null","","","null","65","","","","","","","","","","","","","","","",""
"","ISI","","html-keyboard-response","426","364048","0.0-1.0-588.0","0","0","34073","","null","","","null","65","NaN","","","","","","","","","","","","","","",""
"","S2","","html-keyboard-response","427","364304","0.0-1.0-589.0","0","0","34073","","null","","","null","65","","NaN","","","","","","","","","","","","","",""
"","response","","html-keyboard-response","428","364664","0.0-1.0-590.0-0.0","0","0","34073","","355","","","68","65","","","2","65","training","adjacent","DC","4","3","Q.jpg","N.jpg","0","0","1","",""
"","feedback","","html-keyboard-response","429","365683","0.0-1.0-591.0-0.0","0","0","34073","","null","","","null","65","","","","","","","","","","","","","","","",""
"","ITI","","html-keyboard-response","430","366698","0.0-1.0-594.0","0","0","34073","","null","","","null","65","","","","","","","","","","","","","","","NaN",""
"","S1","","html-keyboard-response","431","366958","0.0-1.0-596.0","0","0","34073","","null","","","null","66","","","","","","","","","","","","","","","",""
"","ISI","","html-keyboard-response","432","367121","0.0-1.0-597.0","0","0","34073","","null","","","null","66","NaN","","","","","","","","","","","","","","",""
"","S2","","html-keyboard-response","433","367389","0.0-1.0-598.0","0","0","34073","","null","","","null","66","","NaN","","","","","","","","","","","","","",""
"","response","","html-keyboard-response","434","368144","0.0-1.0-599.0-0.0","0","0","34073","","750","","","75","66","","","2","66","training","adjacent","FE","6","5","O.jpg","M.jpg","1","0","0","",""
"","feedback","","html-keyboard-response","435","369153","0.0-1.0-600.0-0.0","0","0","34073","","null","","","null","66","","","","","","","","","","","","","","","",""
"","time_out","","html-keyboard-response","436","371165","0.0-1.0-602.0-0.0","0","0","34073","","null","","","null","66","","","","","","","","","","","","","","","",""
"","ITI","","html-keyboard-response","437","372170","0.0-1.0-603.0","0","0","34073","","null","","","null","66","","","","","","","","","","","","","","","NaN",""
"","S1","","html-keyboard-response","438","372431","0.0-1.0-605.0","0","0","34073","","null","","","null","67","","","","","","","","","","","","","","","",""
"","ISI","","html-keyboard-response","439","372593","0.0-1.0-606.0","0","0","34073","","null","","","null","67","NaN","","","","","","","","","","","","","","",""
"","S2","","html-keyboard-response","440","372856","0.0-1.0-607.0","0","0","34073","","null","","","null","67","","NaN","","","","","","","","","","","","","",""
"","response","","html-keyboard-response","441","373388","0.0-1.0-608.0-0.0","0","0","34073","","527","","","68","67","","","2","67","training","adjacent","GF","7","6","L.jpg","O.jpg","0","0","1","",""
"","feedback","","html-keyboard-response","442","374398","0.0-1.0-609.0-0.0","0","0","34073","","null","","","null","67","","","","","","","","","","","","","","","",""
"","ITI","","html-keyboard-response","443","375411","0.0-1.0-612.0","0","0","34073","","null","","","null","67","","","","","","","","","","","","","","","NaN",""
"","S1","","html-keyboard-response","444","375667","0.0-1.0-614.0","0","0","34073","","null","","","null","68","","","","","","","","","","","","","","","",""
"","ISI","","html-keyboard-response","445","375822","0.0-1.0-615.0","0","0","34073","","null","","","null","68","NaN","","","","","","","","","","","","","","",""
"","S2","","html-keyboard-response","446","376079","0.0-1.0-616.0","0","0","34073","","null","","","null","68","","NaN","","","","","","","","","","","","","",""
"","response","","html-keyboard-response","447","376962","0.0-1.0-617.0-0.0","0","0","34073","","876","","","68","68","","","2","68","training","adjacent","CB","3","2","N.jpg","R.jpg","0","0","1","",""
"","feedback","","html-keyboard-response","448","377974","0.0-1.0-618.0-0.0","0","0","34073","","null","","","null","68","","","","","","","","","","","","","","","",""
"","ITI","","html-keyboard-response","449","378981","0.0-1.0-621.0","0","0","34073","","null","","","null","68","","","","","","","","","","","","","","","NaN",""
"","S1","","html-keyboard-response","450","379237","0.0-1.0-623.0","0","0","34073","","null","","","null","69","","","","","","","","","","","","","","","",""
"","ISI","","html-keyboard-response","451","379398","0.0-1.0-624.0","0","0","34073","","null","","","null","69","NaN","","","","","","","","","","","","","","",""
"","S2","","html-keyboard-response","452","379659","0.0-1.0-625.0","0","0","34073","","null","","","null","69","","NaN","","","","","","","","","","","","","",""
"","response","","html-keyboard-response","453","380140","0.0-1.0-626.0-0.0","0","0","34073","","476","","","75","69","","","2","69","training","adjacent","CD","3","4","N.jpg","Q.jpg","1","1","1","",""
"","feedback","","html-keyboard-response","454","381146","0.0-1.0-627.0-0.0","0","0","34073","","null","","","null","69","","","","","","","","","","","","","","","",""
"","ITI","","html-keyboard-response","455","382152","0.0-1.0-630.0","0","0","34073","","null","","","null","69","","","","","","","","","","","","","","","NaN",""
"","S1","","html-keyboard-response","456","382411","0.0-1.0-632.0","0","0","34073","","null","","","null","70","","","","","","","","","","","","","","","",""
"","ISI","","html-keyboard-response","457","382573","0.0-1.0-633.0","0","0","34073","","null","","","null","70","NaN","","","","","","","","","","","","","","",""
"","S2","","html-keyboard-response","458","382838","0.0-1.0-634.0","0","0","34073","","null","","","null","70","","NaN","","","","","","","","","","","","","",""
"","response","","html-keyboard-response","459","383259","0.0-1.0-635.0-0.0","0","0","34073","","416","","","68","70","","","2","70","training","adjacent","GF","7","6","L.jpg","O.jpg","0","0","1","",""
"","feedback","","html-keyboard-response","460","384266","0.0-1.0-636.0-0.0","0","0","34073","","null","","","null","70","","","","","","","","","","","","","","","",""
"","ITI","","html-keyboard-response","461","385278","0.0-1.0-639.0","0","0","34073","","null","","","null","70","","","","","","","","","","","","","","","NaN",""
"","S1","","html-keyboard-response","462","385534","0.0-1.0-641.0","0","0","34073","","null","","","null","71","","","","","","","","","","","","","","","",""
"","ISI","","html-keyboard-response","463","385690","0.0-1.0-642.0","0","0","34073","","null","","","null","71","NaN","","","","","","","","","","","","","","",""
"","S2","","html-keyboard-response","464","385955","0.0-1.0-643.0","0","0","34073","","null","","","null","71","","NaN","","","","","","","","","","","","","",""
"","response","","html-keyboard-response","465","386847","0.0-1.0-644.0-0.0","0","0","34073","","885","","","68","71","","","2","71","training","adjacent","DE","4","5","Q.jpg","M.jpg","0","1","0","",""
"","feedback","","html-keyboard-response","466","387860","0.0-1.0-645.0-0.0","0","0","34073","","null","","","null","71","","","","","","","","","","","","","","","",""
"","time_out","","html-keyboard-response","467","389880","0.0-1.0-647.0-0.0","0","0","34073","","null","","","null","71","","","","","","","","","","","","","","","",""
"","ITI","","html-keyboard-response","468","390887","0.0-1.0-648.0","0","0","34073","","null","","","null","71","","","","","","","","","","","","","","","NaN",""
"","S1","","html-keyboard-response","469","391144","0.0-1.0-650.0","0","0","34073","","null","","","null","72","","","","","","","","","","","","","","","",""
"","ISI","","html-keyboard-response","470","391301","0.0-1.0-651.0","0","0","34073","","null","","","null","72","NaN","","","","","","","","","","","","","","",""
"","S2","","html-keyboard-response","471","391571","0.0-1.0-652.0","0","0","34073","","null","","","null","72","","NaN","","","","","","","","","","","","","",""
"","response","","html-keyboard-response","472","392146","0.0-1.0-653.0-0.0","0","0","34073","","569","","","68","72","","","2","72","training","adjacent","BA","2","1","R.jpg","P.jpg","0","0","1","",""
"","feedback","","html-keyboard-response","473","393153","0.0-1.0-654.0-0.0","0","0","34073","","null","","","null","72","","","","","","","","","","","","","","","",""
"","ITI","","html-keyboard-response","474","394159","0.0-1.0-657.0","0","0","34073","","null","","","null","72","","","","","","","","","","","","","","","NaN",""
"","S1","","html-keyboard-response","475","394419","0.0-1.0-659.0","0","0","34073","","null","","","null","73","","","","","","","","","","","","","","","",""
"","ISI","","html-keyboard-response","476","394575","0.0-1.0-660.0","0","0","34073","","null","","","null","73","NaN","","","","","","","","","","","","","","",""
"","S2","","html-keyboard-response","477","394837","0.0-1.0-661.0","0","0","34073","","null","","","null","73","","NaN","","","","","","","","","","","","","",""
"","response","","html-keyboard-response","478","395562","0.0-1.0-662.0-0.0","0","0","34073","","720","","","68","73","","","2","73","training","adjacent","AB","1","2","P.jpg","R.jpg","0","1","0","",""
"","feedback","","html-keyboard-response","479","396572","0.0-1.0-663.0-0.0","0","0","34073","","null","","","null","73","","","","","","","","","","","","","","","",""
"","time_out","","html-keyboard-response","480","398587","0.0-1.0-665.0-0.0","0","0","34073","","null","","","null","73","","","","","","","","","","","","","","","",""
"","ITI","","html-keyboard-response","481","399599","0.0-1.0-666.0","0","0","34073","","null","","","null","73","","","","","","","","","","","","","","","NaN",""
"","S1","","html-keyboard-response","482","399857","0.0-1.0-668.0","0","0","34073","","null","","","null","74","","","","","","","","","","","","","","","",""
"","ISI","","html-keyboard-response","483","400018","0.0-1.0-669.0","0","0","34073","","null","","","null","74","NaN","","","","","","","","","","","","","","",""
"","S2","","html-keyboard-response","484","400280","0.0-1.0-670.0","0","0","34073","","null","","","null","74","","NaN","","","","","","","","","","","","","",""
"","response","","html-keyboard-response","485","401336","0.0-1.0-671.0-0.0","0","0","34073","","1051","","","75","74","","","2","74","training","adjacent","FG","6","7","O.jpg","L.jpg","1","1","1","",""
"","feedback","","html-keyboard-response","486","402346","0.0-1.0-672.0-0.0","0","0","34073","","null","","","null","74","","","","","","","","","","","","","","","",""
"","ITI","","html-keyboard-response","487","403352","0.0-1.0-675.0","0","0","34073","","null","","","null","74","","","","","","","","","","","","","","","NaN",""
"","S1","","html-keyboard-response","488","403610","0.0-1.0-677.0","0","0","34073","","null","","","null","75","","","","","","","","","","","","","","","",""
"","ISI","","html-keyboard-response","489","403766","0.0-1.0-678.0","0","0","34073","","null","","","null","75","NaN","","","","","","","","","","","","","","",""
"","S2","","html-keyboard-response","490","404030","0.0-1.0-679.0","0","0","34073","","null","","","null","75","","NaN","","","","","","","","","","","","","",""
"","response","","html-keyboard-response","491","404501","0.0-1.0-680.0-0.0","0","0","34073","","466","","","68","75","","","2","75","training","adjacent","BA","2","1","R.jpg","P.jpg","0","0","1","",""
"","feedback","","html-keyboard-response","492","405508","0.0-1.0-681.0-0.0","0","0","34073","","null","","","null","75","","","","","","","","","","","","","","","",""
"","ITI","","html-keyboard-response","493","406517","0.0-1.0-684.0","0","0","34073","","null","","","null","75","","","","","","","","","","","","","","","NaN",""
"","S1","","html-keyboard-response","494","406772","0.0-1.0-686.0","0","0","34073","","null","","","null","76","","","","","","","","","","","","","","","",""
"","ISI","","html-keyboard-response","495","406928","0.0-1.0-687.0","0","0","34073","","null","","","null","76","NaN","","","","","","","","","","","","","","",""
"","S2","","html-keyboard-response","496","407188","0.0-1.0-688.0","0","0","34073","","null","","","null","76","","NaN","","","","","","","","","","","","","",""
"","response","","html-keyboard-response","497","408572","0.0-1.0-689.0-0.0","0","0","34073","","1377","","","68","76","","","2","76","training","adjacent","BC","2","3","R.jpg","N.jpg","0","1","0","",""
"","feedback","","html-keyboard-response","498","409588","0.0-1.0-690.0-0.0","0","0","34073","","null","","","null","76","","","","","","","","","","","","","","","",""
"","time_out","","html-keyboard-response","499","411600","0.0-1.0-692.0-0.0","0","0","34073","","null","","","null","76","","","","","","","","","","","","","","","",""
"","ITI","","html-keyboard-response","500","412608","0.0-1.0-693.0","0","0","34073","","null","","","null","76","","","","","","","","","","","","","","","NaN",""
"","S1","","html-keyboard-response","501","412868","0.0-1.0-695.0","0","0","34073","","null","","","null","77","","","","","","","","","","","","","","","",""
"","ISI","","html-keyboard-response","502","413030","0.0-1.0-696.0","0","0","34073","","null","","","null","77","NaN","","","","","","","","","","","","","","",""
"","S2","","html-keyboard-response","503","413286","0.0-1.0-697.0","0","0","34073","","null","","","null","77","","NaN","","","","","","","","","","","","","",""
"","response","","html-keyboard-response","504","413756","0.0-1.0-698.0-0.0","0","0","34073","","467","","","68","77","","","2","77","training","adjacent","EF","5","6","M.jpg","O.jpg","0","1","0","",""
"","feedback","","html-keyboard-response","505","414769","0.0-1.0-699.0-0.0","0","0","34073","","null","","","null","77","","","","","","","","","","","","","","","",""
"","time_out","","html-keyboard-response","506","416782","0.0-1.0-701.0-0.0","0","0","34073","","null","","","null","77","","","","","","","","","","","","","","","",""
"","ITI","","html-keyboard-response","507","417794","0.0-1.0-702.0","0","0","34073","","null","","","null","77","","","","","","","","","","","","","","","NaN",""
"","S1","","html-keyboard-response","508","418054","0.0-1.0-704.0","0","0","34073","","null","","","null","78","","","","","","","","","","","","","","","",""
"","ISI","","html-keyboard-response","509","418217","0.0-1.0-705.0","0","0","34073","","null","","","null","78","NaN","","","","","","","","","","","","","","",""
"","S2","","html-keyboard-response","510","418474","0.0-1.0-706.0","0","0","34073","","null","","","null","78","","NaN","","","","","","","","","","","","","",""
"","response","","html-keyboard-response","511","419520","0.0-1.0-707.0-0.0","0","0","34073","","1041","","","75","78","","","2","78","training","adjacent","BC","2","3","R.jpg","N.jpg","1","1","1","",""
"","feedback","","html-keyboard-response","512","420534","0.0-1.0-708.0-0.0","0","0","34073","","null","","","null","78","","","","","","","","","","","","","","","",""
"","ITI","","html-keyboard-response","513","421544","0.0-1.0-711.0","0","0","34073","","null","","","null","78","","","","","","","","","","","","","","","NaN",""
"","S1","","html-keyboard-response","514","421802","0.0-1.0-713.0","0","0","34073","","null","","","null","79","","","","","","","","","","","","","","","",""
"","ISI","","html-keyboard-response","515","421964","0.0-1.0-714.0","0","0","34073","","null","","","null","79","NaN","","","","","","","","","","","","","","",""
"","S2","","html-keyboard-response","516","422222","0.0-1.0-715.0","0","0","34073","","null","","","null","79","","NaN","","","","","","","","","","","","","",""
"","response","","html-keyboard-response","517","423016","0.0-1.0-716.0-0.0","0","0","34073","","790","","","75","79","","","2","79","training","adjacent","CD","3","4","N.jpg","Q.jpg","1","1","1","",""
"","feedback","","html-keyboard-response","518","424023","0.0-1.0-717.0-0.0","0","0","34073","","null","","","null","79","","","","","","","","","","","","","","","",""
"","ITI","","html-keyboard-response","519","425038","0.0-1.0-720.0","0","0","34073","","null","","","null","79","","","","","","","","","","","","","","","NaN",""
"","S1","","html-keyboard-response","520","425294","0.0-1.0-722.0","0","0","34073","","null","","","null","80","","","","","","","","","","","","","","","",""
"","ISI","","html-keyboard-response","521","425456","0.0-1.0-723.0","0","0","34073","","null","","","null","80","NaN","","","","","","","","","","","","","","",""
"","S2","","html-keyboard-response","522","425712","0.0-1.0-724.0","0","0","34073","","null","","","null","80","","NaN","","","","","","","","","","","","","",""
"","response","","html-keyboard-response","523","426499","0.0-1.0-725.0-0.0","0","0","34073","","782","","","75","80","","","2","80","training","adjacent","BC","2","3","R.jpg","N.jpg","1","1","1","",""
"","feedback","","html-keyboard-response","524","427511","0.0-1.0-726.0-0.0","0","0","34073","","null","","","null","80","","","","","","","","","","","","","","","",""
"","ITI","","html-keyboard-response","525","428517","0.0-1.0-729.0","0","0","34073","","null","","","null","80","","","","","","","","","","","","","","","NaN",""
"","S1","","html-keyboard-response","526","428775","0.0-1.0-731.0","0","0","34073","","null","","","null","81","","","","","","","","","","","","","","","",""
"","ISI","","html-keyboard-response","527","428939","0.0-1.0-732.0","0","0","34073","","null","","","null","81","NaN","","","","","","","","","","","","","","",""
"","S2","","html-keyboard-response","528","429197","0.0-1.0-733.0","0","0","34073","","null","","","null","81","","NaN","","","","","","","","","","","","","",""
"","response","","html-keyboard-response","529","430436","0.0-1.0-734.0-0.0","0","0","34073","","1233","","","75","81","","","2","81","training","adjacent","DE","4","5","Q.jpg","M.jpg","1","1","1","",""
"","feedback","","html-keyboard-response","530","431450","0.0-1.0-735.0-0.0","0","0","34073","","null","","","null","81","","","","","","","","","","","","","","","",""
"","ITI","","html-keyboard-response","531","432459","0.0-1.0-738.0","0","0","34073","","null","","","null","81","","","","","","","","","","","","","","","NaN",""
"","S1","","html-keyboard-response","532","432722","0.0-1.0-740.0","0","0","34073","","null","","","null","82","","","","","","","","","","","","","","","",""
"","ISI","","html-keyboard-response","533","432890","0.0-1.0-741.0","0","0","34073","","null","","","null","82","NaN","","","","","","","","","","","","","","",""
"","S2","","html-keyboard-response","534","433145","0.0-1.0-742.0","0","0","34073","","null","","","null","82","","NaN","","","","","","","","","","","","","",""
"","response","","html-keyboard-response","535","433742","0.0-1.0-743.0-0.0","0","0","34073","","591","","","75","82","","","2","82","training","adjacent","FG","6","7","O.jpg","L.jpg","1","1","1","",""
"","feedback","","html-keyboard-response","536","434755","0.0-1.0-744.0-0.0","0","0","34073","","null","","","null","82","","","","","","","","","","","","","","","",""
"","ITI","","html-keyboard-response","537","435762","0.0-1.0-747.0","0","0","34073","","null","","","null","82","","","","","","","","","","","","","","","NaN",""
"","S1","","html-keyboard-response","538","436016","0.0-1.0-749.0","0","0","34073","","null","","","null","83","","","","","","","","","","","","","","","",""
"","ISI","","html-keyboard-response","539","436173","0.0-1.0-750.0","0","0","34073","","null","","","null","83","NaN","","","","","","","","","","","","","","",""
"","S2","","html-keyboard-response","540","436438","0.0-1.0-751.0","0","0","34073","","null","","","null","83","","NaN","","","","","","","","","","","","","",""
"","response","","html-keyboard-response","541","436962","0.0-1.0-752.0-0.0","0","0","34073","","519","","","75","83","","","2","83","training","adjacent","FE","6","5","O.jpg","M.jpg","1","0","0","",""
"","feedback","","html-keyboard-response","542","437975","0.0-1.0-753.0-0.0","0","0","34073","","null","","","null","83","","","","","","","","","","","","","","","",""
"","time_out","","html-keyboard-response","543","439985","0.0-1.0-755.0-0.0","0","0","34073","","null","","","null","83","","","","","","","","","","","","","","","",""
"","ITI","","html-keyboard-response","544","440997","0.0-1.0-756.0","0","0","34073","","null","","","null","83","","","","","","","","","","","","","","","NaN",""
"","S1","","html-keyboard-response","545","441258","0.0-1.0-758.0","0","0","34073","","null","","","null","84","","","","","","","","","","","","","","","",""
"","ISI","","html-keyboard-response","546","441418","0.0-1.0-759.0","0","0","34073","","null","","","null","84","NaN","","","","","","","","","","","","","","",""
"","S2","","html-keyboard-response","547","441684","0.0-1.0-760.0","0","0","34073","","null","","","null","84","","NaN","","","","","","","","","","","","","",""
"","response","","html-keyboard-response","548","442126","0.0-1.0-761.0-0.0","0","0","34073","","437","","","75","84","","","2","84","training","adjacent","CD","3","4","N.jpg","Q.jpg","1","1","1","",""
"","feedback","","html-keyboard-response","549","443139","0.0-1.0-762.0-0.0","0","0","34073","","null","","","null","84","","","","","","","","","","","","","","","",""
"","ITI","","html-keyboard-response","550","444150","0.0-1.0-765.0","0","0","34073","","null","","","null","84","","","","","","","","","","","","","","","NaN",""
"","S1","","html-keyboard-response","551","444407","0.0-1.0-767.0","0","0","34073","","null","","","null","85","","","","","","","","","","","","","","","",""
"","ISI","","html-keyboard-response","552","444568","0.0-1.0-768.0","0","0","34073","","null","","","null","85","NaN","","","","","","","","","","","","","","",""
"","S2","","html-keyboard-response","553","444825","0.0-1.0-769.0","0","0","34073","","null","","","null","85","","NaN","","","","","","","","","","","","","",""
"","response","","html-keyboard-response","554","445445","0.0-1.0-770.0-0.0","0","0","34073","","614","","","75","85","","","2","85","training","adjacent","BC","2","3","R.jpg","N.jpg","1","1","1","",""
"","feedback","","html-keyboard-response","555","446452","0.0-1.0-771.0-0.0","0","0","34073","","null","","","null","85","","","","","","","","","","","","","","","",""
"","ITI","","html-keyboard-response","556","447460","0.0-1.0-774.0","0","0","34073","","null","","","null","85","","","","","","","","","","","","","","","NaN",""
"","S1","","html-keyboard-response","557","447721","0.0-1.0-776.0","0","0","34073","","null","","","null","86","","","","","","","","","","","","","","","",""
"","ISI","","html-keyboard-response","558","447878","0.0-1.0-777.0","0","0","34073","","null","","","null","86","NaN","","","","","","","","","","","","","","",""
"","S2","","html-keyboard-response","559","448141","0.0-1.0-778.0","0","0","34073","","null","","","null","86","","NaN","","","","","","","","","","","","","",""
"","response","","html-keyboard-response","560","448659","0.0-1.0-779.0-0.0","0","0","34073","","512","","","68","86","","","2","86","training","adjacent","BA","2","1","R.jpg","P.jpg","0","0","1","",""
"","feedback","","html-keyboard-response","561","449670","0.0-1.0-780.0-0.0","0","0","34073","","null","","","null","86","","","","","","","","","","","","","","","",""
"","ITI","","html-keyboard-response","562","450677","0.0-1.0-783.0","0","0","34073","","null","","","null","86","","","","","","","","","","","","","","","NaN",""
"","S1","","html-keyboard-response","563","450941","0.0-1.0-785.0","0","0","34073","","null","","","null","87","","","","","","","","","","","","","","","",""
"","ISI","","html-keyboard-response","564","451100","0.0-1.0-786.0","0","0","34073","","null","","","null","87","NaN","","","","","","","","","","","","","","",""
"","S2","","html-keyboard-response","565","451361","0.0-1.0-787.0","0","0","34073","","null","","","null","87","","NaN","","","","","","","","","","","","","",""
"","response","","html-keyboard-response","566","451855","0.0-1.0-788.0-0.0","0","0","34073","","489","","","75","87","","","2","87","training","adjacent","AB","1","2","P.jpg","R.jpg","1","1","1","",""
"","feedback","","html-keyboard-response","567","452868","0.0-1.0-789.0-0.0","0","0","34073","","null","","","null","87","","","","","","","","","","","","","","","",""
"","ITI","","html-keyboard-response","568","453890","0.0-1.0-792.0","0","0","34073","","null","","","null","87","","","","","","","","","","","","","","","NaN",""
"","S1","","html-keyboard-response","569","454149","0.0-1.0-794.0","0","0","34073","","null","","","null","88","","","","","","","","","","","","","","","",""
"","ISI","","html-keyboard-response","570","454304","0.0-1.0-795.0","0","0","34073","","null","","","null","88","NaN","","","","","","","","","","","","","","",""
"","S2","","html-keyboard-response","571","454567","0.0-1.0-796.0","0","0","34073","","null","","","null","88","","NaN","","","","","","","","","","","","","",""
"","response","","html-keyboard-response","572","455257","0.0-1.0-797.0-0.0","0","0","34073","","685","","","68","88","","","2","88","training","adjacent","GF","7","6","L.jpg","O.jpg","0","0","1","",""
"","feedback","","html-keyboard-response","573","456267","0.0-1.0-798.0-0.0","0","0","34073","","null","","","null","88","","","","","","","","","","","","","","","",""
"","ITI","","html-keyboard-response","574","457278","0.0-1.0-801.0","0","0","34073","","null","","","null","88","","","","","","","","","","","","","","","NaN",""
"","S1","","html-keyboard-response","575","457541","0.0-1.0-803.0","0","0","34073","","null","","","null","89","","","","","","","","","","","","","","","",""
"","ISI","","html-keyboard-response","576","457701","0.0-1.0-804.0","0","0","34073","","null","","","null","89","NaN","","","","","","","","","","","","","","",""
"","S2","","html-keyboard-response","577","457960","0.0-1.0-805.0","0","0","34073","","null","","","null","89","","NaN","","","","","","","","","","","","","",""
"","response","","html-keyboard-response","578","458802","0.0-1.0-806.0-0.0","0","0","34073","","836","","","68","89","","","2","89","training","adjacent","EF","5","6","M.jpg","O.jpg","0","1","0","",""
"","feedback","","html-keyboard-response","579","459812","0.0-1.0-807.0-0.0","0","0","34073","","null","","","null","89","","","","","","","","","","","","","","","",""
"","time_out","","html-keyboard-response","580","461822","0.0-1.0-809.0-0.0","0","0","34073","","null","","","null","89","","","","","","","","","","","","","","","",""
