"success","ttype","start_time","trial_type","trial_index","time_elapsed","internal_node_id","warning","missed_checkup","PID","view_history","rt","responses","repeat_instructions","key_press","index","keypress_isi","keypress_S2","block","trial_num","phase","group_type","pair_type","S1_stim","S2_stim","S1_img","S2_img","S1_chosen","S1_higher","accuracy","keypress_iti","total_bonus_tally"
"true","full_screen","d03082023hr1458","fullscreen","0","27451","0.0-0.0","0","0","60944","","","","","","","","","","","","","","","","","","","","","",""
"","instructions","","instructions","1","131210","0.0-1.0-0.0-0.0","0","0","60944","[{""page_index"":0,""viewing_time"":13404},{""page_index"":1,""viewing_time"":69108},{""page_index"":2,""viewing_time"":16495},{""page_index"":3,""viewing_time"":4485}]","103522","","","","","","","","","","","","","","","","","","","",""
"","comprehension_check","","survey-multi-choice","2","199028","0.0-1.0-0.0-1.0","0","0","60944","","67002","{""Q0"":""True"",""Q1"":""D"",""Q2"":""Once the second image appears and while the screen 'MAKE A CHOICE' is shown"",""Q3"":""Red cross"",""Q4"":""either D or K""}","1","","","","","","","","","","","","","","","","","",""
"","missed_instruction_checkup","","html-keyboard-response","3","205089","0.0-1.0-0.0-2.0-0.0","0","1","60944","","5853","","","32","","","","","","","","","","","","","","","","",""
"","instructions","","instructions","4","235027","0.0-1.0-0.1-0.1","0","0","60944","[{""page_index"":0,""viewing_time"":5267},{""page_index"":1,""viewing_time"":14161},{""page_index"":2,""viewing_time"":8288},{""page_index"":3,""viewing_time"":2180}]","29896","","","","","","","","","","","","","","","","","","","",""
"","comprehension_check","","survey-multi-choice","5","269726","0.0-1.0-0.1-1.1","0","0","60944","","34669","{""Q0"":""True"",""Q1"":""D"",""Q2"":""Once the second image appears and while the screen 'MAKE A CHOICE' is shown"",""Q3"":""Green mark"",""Q4"":""either D or K""}","0","","","","","","","","","","","","","","","","","",""
"","start_exp","","html-keyboard-response","6","276669","0.0-1.0-1.0","0","0","60944","","6939","","","32","","","","","","","","","","","","","","","","",""
"","S1","","html-keyboard-response","7","277065","0.0-1.0-2.0","0","0","60944","","null","","","null","0","","","","","","","","","","","","","","","",""
"","ISI","","html-keyboard-response","8","277218","0.0-1.0-3.0","0","0","60944","","null","","","null","0","NaN","","","","","","","","","","","","","","",""
"","S2","","html-keyboard-response","9","277473","0.0-1.0-4.0","0","0","60944","","null","","","null","0","","NaN","","","","","","","","","","","","","",""
"","response","","html-keyboard-response","10","278835","0.0-1.0-5.0-0.0","0","0","60944","","1345","","","68","0","","","1","0","training","adjacent","DE","4","5","O.jpg","L.jpg","1","1","1","",""
"","feedback","","html-keyboard-response","11","279841","0.0-1.0-6.0-0.0","0","0","60944","","null","","","null","0","","","","","","","","","","","","","","","",""
"","ITI","","html-keyboard-response","12","280847","0.0-1.0-9.0","0","0","60944","","null","","","null","0","","","","","","","","","","","","","","","NaN",""
"","S1","","html-keyboard-response","13","281104","0.0-1.0-11.0","0","0","60944","","null","","","null","1","","","","","","","","","","","","","","","",""
"","ISI","","html-keyboard-response","14","281259","0.0-1.0-12.0","0","0","60944","","null","","","null","1","NaN","","","","","","","","","","","","","","",""
"","S2","","html-keyboard-response","15","281515","0.0-1.0-13.0","0","0","60944","","null","","","null","1","","NaN","","","","","","","","","","","","","",""
"","response","","html-keyboard-response","16","282258","0.0-1.0-14.0-0.0","0","0","60944","","739","","","68","1","","","1","1","training","adjacent","AB","1","2","R.jpg","Q.jpg","1","1","1","",""
"","feedback","","html-keyboard-response","17","283263","0.0-1.0-15.0-0.0","0","0","60944","","null","","","null","1","","","","","","","","","","","","","","","",""
"","ITI","","html-keyboard-response","18","284268","0.0-1.0-18.0","0","0","60944","","null","","","null","1","","","","","","","","","","","","","","","NaN",""
"","S1","","html-keyboard-response","19","284522","0.0-1.0-20.0","0","0","60944","","null","","","null","2","","","","","","","","","","","","","","","",""
"","ISI","","html-keyboard-response","20","284676","0.0-1.0-21.0","0","0","60944","","null","","","null","2","NaN","","","","","","","","","","","","","","",""
"","S2","","html-keyboard-response","21","284930","0.0-1.0-22.0","0","0","60944","","null","","","null","2","","NaN","","","","","","","","","","","","","",""
"","response","","html-keyboard-response","22","285169","0.0-1.0-23.0-0.0","0","0","60944","","235","","","75","2","","","1","2","training","adjacent","FG","6","7","M.jpg","N.jpg","0","1","0","",""
"","feedback","","html-keyboard-response","23","286176","0.0-1.0-24.0-0.0","0","0","60944","","null","","","null","2","","","","","","","","","","","","","","","",""
"","time_out","","html-keyboard-response","24","288181","0.0-1.0-26.0-0.0","0","0","60944","","null","","","null","2","","","","","","","","","","","","","","","",""
"","ITI","","html-keyboard-response","25","289185","0.0-1.0-27.0","0","0","60944","","null","","","null","2","","","","","","","","","","","","","","","NaN",""
"","S1","","html-keyboard-response","26","289441","0.0-1.0-29.0","0","0","60944","","null","","","null","3","","","","","","","","","","","","","","","",""
"","ISI","","html-keyboard-response","27","289595","0.0-1.0-30.0","0","0","60944","","null","","","null","3","NaN","","","","","","","","","","","","","","",""
"","S2","","html-keyboard-response","28","289850","0.0-1.0-31.0","0","0","60944","","null","","","null","3","","NaN","","","","","","","","","","","","","",""
"","response","","html-keyboard-response","29","290190","0.0-1.0-32.0-0.0","0","0","60944","","336","","","68","3","","","1","3","training","adjacent","EF","5","6","L.jpg","M.jpg","1","1","1","",""
"","feedback","","html-keyboard-response","30","291195","0.0-1.0-33.0-0.0","0","0","60944","","null","","","null","3","","","","","","","","","","","","","","","",""
"","ITI","","html-keyboard-response","31","292199","0.0-1.0-36.0","0","0","60944","","null","","","null","3","","","","","","","","","","","","","","","NaN",""
"","S1","","html-keyboard-response","32","292454","0.0-1.0-38.0","0","0","60944","","null","","","null","4","","","","","","","","","","","","","","","",""
"","ISI","","html-keyboard-response","33","292608","0.0-1.0-39.0","0","0","60944","","null","","","null","4","NaN","","","","","","","","","","","","","","",""
"","S2","","html-keyboard-response","34","292863","0.0-1.0-40.0","0","0","60944","","null","","","null","4","","NaN","","","","","","","","","","","","","",""
"","response","","html-keyboard-response","35","293347","0.0-1.0-41.0-0.0","0","0","60944","","480","","","68","4","","","1","4","training","adjacent","DC","4","3","O.jpg","P.jpg","1","0","0","",""
"","feedback","","html-keyboard-response","36","294352","0.0-1.0-42.0-0.0","0","0","60944","","null","","","null","4","","","","","","","","","","","","","","","",""
"","time_out","","html-keyboard-response","37","296358","0.0-1.0-44.0-0.0","0","0","60944","","null","","","null","4","","","","","","","","","","","","","","","",""
"","ITI","","html-keyboard-response","38","297362","0.0-1.0-45.0","0","0","60944","","null","","","null","4","","","","","","","","","","","","","","","NaN",""
"","S1","","html-keyboard-response","39","297616","0.0-1.0-47.0","0","0","60944","","null","","","null","5","","","","","","","","","","","","","","","",""
"","ISI","","html-keyboard-response","40","297771","0.0-1.0-48.0","0","0","60944","","null","","","null","5","NaN","","","","","","","","","","","","","","",""
"","S2","","html-keyboard-response","41","298026","0.0-1.0-49.0","0","0","60944","","null","","","null","5","","NaN","","","","","","","","","","","","","",""
"","response","","html-keyboard-response","42","298808","0.0-1.0-50.0-0.0","0","0","60944","","778","","","75","5","","","1","5","training","adjacent","ED","5","4","L.jpg","O.jpg","0","0","1","",""
"","feedback","","html-keyboard-response","43","299814","0.0-1.0-51.0-0.0","0","0","60944","","null","","","null","5","","","","","","","","","","","","","","","",""
"","ITI","","html-keyboard-response","44","300818","0.0-1.0-54.0","0","0","60944","","null","","","null","5","","","","","","","","","","","","","","","NaN",""
"","S1","","html-keyboard-response","45","301073","0.0-1.0-56.0","0","0","60944","","null","","","null","6","","","","","","","","","","","","","","","",""
"","ISI","","html-keyboard-response","46","301227","0.0-1.0-57.0","0","0","60944","","null","","","null","6","NaN","","","","","","","","","","","","","","",""
"","S2","","html-keyboard-response","47","301482","0.0-1.0-58.0","0","0","60944","","null","","","null","6","","NaN","","","","","","","","","","","","","",""
"","response","","html-keyboard-response","48","301888","0.0-1.0-59.0-0.0","0","0","60944","","401","","","75","6","","","1","6","training","adjacent","FE","6","5","M.jpg","L.jpg","0","0","1","",""
"","feedback","","html-keyboard-response","49","302894","0.0-1.0-60.0-0.0","0","0","60944","","null","","","null","6","","","","","","","","","","","","","","","",""
"","ITI","","html-keyboard-response","50","303897","0.0-1.0-63.0","0","0","60944","","null","","","null","6","","","","","","","","","","","","","","","NaN",""
"","S1","","html-keyboard-response","51","304152","0.0-1.0-65.0","0","0","60944","","null","","","null","7","","","","","","","","","","","","","","","",""
"","ISI","","html-keyboard-response","52","304305","0.0-1.0-66.0","0","0","60944","","null","","","null","7","NaN","","","","","","","","","","","","","","",""
"","S2","","html-keyboard-response","53","304561","0.0-1.0-67.0","0","0","60944","","null","","","null","7","","NaN","","","","","","","","","","","","","",""
"","response","","html-keyboard-response","54","304998","0.0-1.0-68.0-0.0","0","0","60944","","434","","","68","7","","","1","7","training","adjacent","FG","6","7","M.jpg","N.jpg","1","1","1","",""
"","feedback","","html-keyboard-response","55","306002","0.0-1.0-69.0-0.0","0","0","60944","","null","","","null","7","","","","","","","","","","","","","","","",""
"","ITI","","html-keyboard-response","56","307007","0.0-1.0-72.0","0","0","60944","","null","","","null","7","","","","","","","","","","","","","","","NaN",""
"","S1","","html-keyboard-response","57","307262","0.0-1.0-74.0","0","0","60944","","null","","","null","8","","","","","","","","","","","","","","","",""
"","ISI","","html-keyboard-response","58","307416","0.0-1.0-75.0","0","0","60944","","null","","","null","8","NaN","","","","","","","","","","","","","","",""
"","S2","","html-keyboard-response","59","307670","0.0-1.0-76.0","0","0","60944","","null","","","null","8","","NaN","","","","","","","","","","","","","",""
"","response","","html-keyboard-response","60","308182","0.0-1.0-77.0-0.0","0","0","60944","","509","","","75","8","","","1","8","training","adjacent","FG","6","7","M.jpg","N.jpg","0","1","0","",""
"","feedback","","html-keyboard-response","61","309187","0.0-1.0-78.0-0.0","0","0","60944","","null","","","null","8","","","","","","","","","","","","","","","",""
"","time_out","","html-keyboard-response","62","311193","0.0-1.0-80.0-0.0","0","0","60944","","null","","","null","8","","","","","","","","","","","","","","","",""
"","ITI","","html-keyboard-response","63","312197","0.0-1.0-81.0","0","0","60944","","null","","","null","8","","","","","","","","","","","","","","","NaN",""
"","S1","","html-keyboard-response","64","312453","0.0-1.0-83.0","0","0","60944","","null","","","null","9","","","","","","","","","","","","","","","",""
"","ISI","","html-keyboard-response","65","312607","0.0-1.0-84.0","0","0","60944","","null","","","null","9","NaN","","","","","","","","","","","","","","",""
"","S2","","html-keyboard-response","66","312862","0.0-1.0-85.0","0","0","60944","","null","","","null","9","","NaN","","","","","","","","","","","","","",""
"","response","","html-keyboard-response","67","313288","0.0-1.0-86.0-0.0","0","0","60944","","404","","","68","9","","","1","9","training","adjacent","EF","5","6","L.jpg","M.jpg","1","1","1","",""
"","feedback","","html-keyboard-response","68","314294","0.0-1.0-87.0-0.0","0","0","60944","","null","","","null","9","","","","","","","","","","","","","","","",""
"","ITI","","html-keyboard-response","69","315297","0.0-1.0-90.0","0","0","60944","","null","","","null","9","","","","","","","","","","","","","","","NaN",""
"","S1","","html-keyboard-response","70","315551","0.0-1.0-92.0","0","0","60944","","null","","","null","10","","","","","","","","","","","","","","","",""
"","ISI","","html-keyboard-response","71","315706","0.0-1.0-93.0","0","0","60944","","null","","","null","10","NaN","","","","","","","","","","","","","","",""
"","S2","","html-keyboard-response","72","315961","0.0-1.0-94.0","0","0","60944","","null","","","null","10","","NaN","","","","","","","","","","","","","",""
"","response","","html-keyboard-response","73","316440","0.0-1.0-95.0-0.0","0","0","60944","","476","","","75","10","","","1","10","training","adjacent","FE","6","5","M.jpg","L.jpg","0","0","1","",""
"","feedback","","html-keyboard-response","74","317445","0.0-1.0-96.0-0.0","0","0","60944","","null","","","null","10","","","","","","","","","","","","","","","",""
"","ITI","","html-keyboard-response","75","318449","0.0-1.0-99.0","0","0","60944","","null","","","null","10","","","","","","","","","","","","","","","NaN",""
"","S1","","html-keyboard-response","76","318704","0.0-1.0-101.0","0","0","60944","","null","","","null","11","","","","","","","","","","","","","","","",""
"","ISI","","html-keyboard-response","77","318859","0.0-1.0-102.0","0","0","60944","","null","","","null","11","NaN","","","","","","","","","","","","","","",""
"","S2","","html-keyboard-response","78","319114","0.0-1.0-103.0","0","0","60944","","null","","","null","11","","NaN","","","","","","","","","","","","","",""
"","response","","html-keyboard-response","79","319642","0.0-1.0-104.0-0.0","0","0","60944","","524","","","68","11","","","1","11","training","adjacent","AB","1","2","R.jpg","Q.jpg","1","1","1","",""
"","feedback","","html-keyboard-response","80","320648","0.0-1.0-105.0-0.0","0","0","60944","","null","","","null","11","","","","","","","","","","","","","","","",""
"","ITI","","html-keyboard-response","81","321652","0.0-1.0-108.0","0","0","60944","","null","","","null","11","","","","","","","","","","","","","","","NaN",""
"","S1","","html-keyboard-response","82","321907","0.0-1.0-110.0","0","0","60944","","null","","","null","12","","","","","","","","","","","","","","","",""
"","ISI","","html-keyboard-response","83","322062","0.0-1.0-111.0","0","0","60944","","null","","","null","12","NaN","","","","","","","","","","","","","","",""
"","S2","","html-keyboard-response","84","322317","0.0-1.0-112.0","0","0","60944","","null","","","null","12","","NaN","","","","","","","","","","","","","",""
"","response","","html-keyboard-response","85","322808","0.0-1.0-113.0-0.0","0","0","60944","","488","","","68","12","","","1","12","training","adjacent","GF","7","6","N.jpg","M.jpg","1","0","0","",""
"","feedback","","html-keyboard-response","86","323814","0.0-1.0-114.0-0.0","0","0","60944","","null","","","null","12","","","","","","","","","","","","","","","",""
"","time_out","","html-keyboard-response","87","325818","0.0-1.0-116.0-0.0","0","0","60944","","null","","","null","12","","","","","","","","","","","","","","","",""
"","ITI","","html-keyboard-response","88","326823","0.0-1.0-117.0","0","0","60944","","null","","","null","12","","","","","","","","","","","","","","","NaN",""
"","S1","","html-keyboard-response","89","327077","0.0-1.0-119.0","0","0","60944","","null","","","null","13","","","","","","","","","","","","","","","",""
"","ISI","","html-keyboard-response","90","327232","0.0-1.0-120.0","0","0","60944","","null","","","null","13","NaN","","","","","","","","","","","","","","",""
"","S2","","html-keyboard-response","91","327487","0.0-1.0-121.0","0","0","60944","","null","","","null","13","","NaN","","","","","","","","","","","","","",""
"","response","","html-keyboard-response","92","327871","0.0-1.0-122.0-0.0","0","0","60944","","379","","","68","13","","","1","13","training","adjacent","ED","5","4","L.jpg","O.jpg","1","0","0","",""
"","feedback","","html-keyboard-response","93","328875","0.0-1.0-123.0-0.0","0","0","60944","","null","","","null","13","","","","","","","","","","","","","","","",""
"","time_out","","html-keyboard-response","94","330881","0.0-1.0-125.0-0.0","0","0","60944","","null","","","null","13","","","","","","","","","","","","","","","",""
"","ITI","","html-keyboard-response","95","331885","0.0-1.0-126.0","0","0","60944","","null","","","null","13","","","","","","","","","","","","","","","NaN",""
"","S1","","html-keyboard-response","96","332139","0.0-1.0-128.0","0","0","60944","","null","","","null","14","","","","","","","","","","","","","","","",""
"","ISI","","html-keyboard-response","97","332295","0.0-1.0-129.0","0","0","60944","","null","","","null","14","NaN","","","","","","","","","","","","","","",""
"","S2","","html-keyboard-response","98","332549","0.0-1.0-130.0","0","0","60944","","null","","","null","14","","NaN","","","","","","","","","","","","","",""
"","response","","html-keyboard-response","99","332971","0.0-1.0-131.0-0.0","0","0","60944","","418","","","75","14","","","1","14","training","adjacent","CB","3","2","P.jpg","Q.jpg","0","0","1","",""
"","feedback","","html-keyboard-response","100","333975","0.0-1.0-132.0-0.0","0","0","60944","","null","","","null","14","","","","","","","","","","","","","","","",""
"","ITI","","html-keyboard-response","101","334979","0.0-1.0-135.0","0","0","60944","","null","","","null","14","","","","","","","","","","","","","","","NaN",""
"","S1","","html-keyboard-response","102","335233","0.0-1.0-137.0","0","0","60944","","null","","","null","15","","","","","","","","","","","","","","","",""
"","ISI","","html-keyboard-response","103","335387","0.0-1.0-138.0","0","0","60944","","null","","","null","15","NaN","","","","","","","","","","","","","","",""
"","S2","","html-keyboard-response","104","335642","0.0-1.0-139.0","0","0","60944","","null","","","null","15","","NaN","","","","","","","","","","","","","",""
"","response","","html-keyboard-response","105","336077","0.0-1.0-140.0-0.0","0","0","60944","","432","","","75","15","","","1","15","training","adjacent","BA","2","1","Q.jpg","R.jpg","0","0","1","",""
"","feedback","","html-keyboard-response","106","337081","0.0-1.0-141.0-0.0","0","0","60944","","null","","","null","15","","","","","","","","","","","","","","","",""
"","ITI","","html-keyboard-response","107","338085","0.0-1.0-144.0","0","0","60944","","null","","","null","15","","","","","","","","","","","","","","","NaN",""
"","S1","","html-keyboard-response","108","338340","0.0-1.0-146.0","0","0","60944","","null","","","null","16","","","","","","","","","","","","","","","",""
"","ISI","","html-keyboard-response","109","338494","0.0-1.0-147.0","0","0","60944","","null","","","null","16","NaN","","","","","","","","","","","","","","",""
"","S2","","html-keyboard-response","110","338749","0.0-1.0-148.0","0","0","60944","","null","","","null","16","","NaN","","","","","","","","","","","","","",""
"","response","","html-keyboard-response","111","339031","0.0-1.0-149.0-0.0","0","0","60944","","278","","","75","16","","","1","16","training","adjacent","CD","3","4","P.jpg","O.jpg","0","1","0","",""
"","feedback","","html-keyboard-response","112","340036","0.0-1.0-150.0-0.0","0","0","60944","","null","","","null","16","","","","","","","","","","","","","","","",""
"","time_out","","html-keyboard-response","113","342041","0.0-1.0-152.0-0.0","0","0","60944","","null","","","null","16","","","","","","","","","","","","","","","",""
"","ITI","","html-keyboard-response","114","343045","0.0-1.0-153.0","0","0","60944","","null","","","null","16","","","","","","","","","","","","","","","NaN",""
"","S1","","html-keyboard-response","115","343299","0.0-1.0-155.0","0","0","60944","","null","","","null","17","","","","","","","","","","","","","","","",""
"","ISI","","html-keyboard-response","116","343454","0.0-1.0-156.0","0","0","60944","","null","","","null","17","NaN","","","","","","","","","","","","","","",""
"","S2","","html-keyboard-response","117","343709","0.0-1.0-157.0","0","0","60944","","null","","","null","17","","NaN","","","","","","","","","","","","","",""
"","response","","html-keyboard-response","118","344281","0.0-1.0-158.0-0.0","0","0","60944","","568","","","68","17","","","1","17","training","adjacent","GF","7","6","N.jpg","M.jpg","1","0","0","",""
"","feedback","","html-keyboard-response","119","345289","0.0-1.0-159.0-0.0","0","0","60944","","null","","","null","17","","","","","","","","","","","","","","","",""
"","time_out","","html-keyboard-response","120","347296","0.0-1.0-161.0-0.0","0","0","60944","","null","","","null","17","","","","","","","","","","","","","","","",""
"","ITI","","html-keyboard-response","121","348300","0.0-1.0-162.0","0","0","60944","","null","","","null","17","","","","","","","","","","","","","","","NaN",""
"","S1","","html-keyboard-response","122","348554","0.0-1.0-164.0","0","0","60944","","null","","","null","18","","","","","","","","","","","","","","","",""
"","ISI","","html-keyboard-response","123","348709","0.0-1.0-165.0","0","0","60944","","null","","","null","18","NaN","","","","","","","","","","","","","","",""
"","S2","","html-keyboard-response","124","348964","0.0-1.0-166.0","0","0","60944","","null","","","null","18","","NaN","","","","","","","","","","","","","",""
"","response","","html-keyboard-response","125","349538","0.0-1.0-167.0-0.0","0","0","60944","","570","","","75","18","","","1","18","training","adjacent","BC","2","3","Q.jpg","P.jpg","0","1","0","",""
"","feedback","","html-keyboard-response","126","350543","0.0-1.0-168.0-0.0","0","0","60944","","null","","","null","18","","","","","","","","","","","","","","","",""
"","time_out","","html-keyboard-response","127","352548","0.0-1.0-170.0-0.0","0","0","60944","","null","","","null","18","","","","","","","","","","","","","","","",""
"","ITI","","html-keyboard-response","128","353551","0.0-1.0-171.0","0","0","60944","","null","","","null","18","","","","","","","","","","","","","","","NaN",""
"","S1","","html-keyboard-response","129","353807","0.0-1.0-173.0","0","0","60944","","null","","","null","19","","","","","","","","","","","","","","","",""
"","ISI","","html-keyboard-response","130","353960","0.0-1.0-174.0","0","0","60944","","null","","","null","19","NaN","","","","","","","","","","","","","","",""
"","S2","","html-keyboard-response","131","354216","0.0-1.0-175.0","0","0","60944","","null","","","null","19","","NaN","","","","","","","","","","","","","",""
"","response","","html-keyboard-response","132","354623","0.0-1.0-176.0-0.0","0","0","60944","","403","","","68","19","","","1","19","training","adjacent","DC","4","3","O.jpg","P.jpg","1","0","0","",""
"","feedback","","html-keyboard-response","133","355643","0.0-1.0-177.0-0.0","0","0","60944","","null","","","null","19","","","","","","","","","","","","","","","",""
"","time_out","","html-keyboard-response","134","357647","0.0-1.0-179.0-0.0","0","0","60944","","null","","","null","19","","","","","","","","","","","","","","","",""
"","ITI","","html-keyboard-response","135","358651","0.0-1.0-180.0","0","0","60944","","null","","","null","19","","","","","","","","","","","","","","","NaN",""
"","S1","","html-keyboard-response","136","358905","0.0-1.0-182.0","0","0","60944","","null","","","null","20","","","","","","","","","","","","","","","",""
"","ISI","","html-keyboard-response","137","359059","0.0-1.0-183.0","0","0","60944","","null","","","null","20","NaN","","","","","","","","","","","","","","",""
"","S2","","html-keyboard-response","138","359314","0.0-1.0-184.0","0","0","60944","","null","","","null","20","","NaN","","","","","","","","","","","","","",""
"","response","","html-keyboard-response","139","359455","0.0-1.0-185.0-0.0","0","0","60944","","137","","","75","20","","","1","20","training","adjacent","FE","6","5","M.jpg","L.jpg","0","0","1","",""
"","feedback","","html-keyboard-response","140","360461","0.0-1.0-186.0-0.0","0","0","60944","","null","","","null","20","","","","","","","","","","","","","","","",""
"","ITI","","html-keyboard-response","141","361465","0.0-1.0-189.0","0","0","60944","","null","","","null","20","","","","","","","","","","","","","","","NaN",""
"","S1","","html-keyboard-response","142","361720","0.0-1.0-191.0","0","0","60944","","null","","","null","21","","","","","","","","","","","","","","","",""
"","ISI","","html-keyboard-response","143","361873","0.0-1.0-192.0","0","0","60944","","null","","","null","21","NaN","","","","","","","","","","","","","","",""
"","S2","","html-keyboard-response","144","362127","0.0-1.0-193.0","0","0","60944","","null","","","null","21","","NaN","","","","","","","","","","","","","",""
"","response","","html-keyboard-response","145","362801","0.0-1.0-194.0-0.0","0","0","60944","","671","","","68","21","","","1","21","training","adjacent","BC","2","3","Q.jpg","P.jpg","1","1","1","",""
"","feedback","","html-keyboard-response","146","363806","0.0-1.0-195.0-0.0","0","0","60944","","null","","","null","21","","","","","","","","","","","","","","","",""
"","ITI","","html-keyboard-response","147","364808","0.0-1.0-198.0","0","0","60944","","null","","","null","21","","","","","","","","","","","","","","","NaN",""
"","S1","","html-keyboard-response","148","365064","0.0-1.0-200.0","0","0","60944","","null","","","null","22","","","","","","","","","","","","","","","",""
"","ISI","","html-keyboard-response","149","365219","0.0-1.0-201.0","0","0","60944","","null","","","null","22","NaN","","","","","","","","","","","","","","",""
"","S2","","html-keyboard-response","150","365474","0.0-1.0-202.0","0","0","60944","","null","","","null","22","","NaN","","","","","","","","","","","","","",""
"","response","","html-keyboard-response","151","366195","0.0-1.0-203.0-0.0","0","0","60944","","718","","","68","22","","","1","22","training","adjacent","FG","6","7","M.jpg","N.jpg","1","1","1","",""
"","feedback","","html-keyboard-response","152","367200","0.0-1.0-204.0-0.0","0","0","60944","","null","","","null","22","","","","","","","","","","","","","","","",""
"","ITI","","html-keyboard-response","153","368204","0.0-1.0-207.0","0","0","60944","","null","","","null","22","","","","","","","","","","","","","","","NaN",""
"","S1","","html-keyboard-response","154","368458","0.0-1.0-209.0","0","0","60944","","null","","","null","23","","","","","","","","","","","","","","","",""
"","ISI","","html-keyboard-response","155","368615","0.0-1.0-210.0","0","0","60944","","null","","","null","23","NaN","","","","","","","","","","","","","","",""
"","S2","","html-keyboard-response","156","368869","0.0-1.0-211.0","0","0","60944","","null","","","null","23","","NaN","","","","","","","","","","","","","",""
"","response","","html-keyboard-response","157","369391","0.0-1.0-212.0-0.0","0","0","60944","","519","","","75","23","","","1","23","training","adjacent","DC","4","3","O.jpg","P.jpg","0","0","1","",""
"","feedback","","html-keyboard-response","158","370396","0.0-1.0-213.0-0.0","0","0","60944","","null","","","null","23","","","","","","","","","","","","","","","",""
"","ITI","","html-keyboard-response","159","371403","0.0-1.0-216.0","0","0","60944","","null","","","null","23","","","","","","","","","","","","","","","NaN",""
"","S1","","html-keyboard-response","160","371658","0.0-1.0-218.0","0","0","60944","","null","","","null","24","","","","","","","","","","","","","","","",""
"","ISI","","html-keyboard-response","161","371812","0.0-1.0-219.0","0","0","60944","","null","","","null","24","NaN","","","","","","","","","","","","","","",""
"","S2","","html-keyboard-response","162","372067","0.0-1.0-220.0","0","0","60944","","null","","","null","24","","NaN","","","","","","","","","","","","","",""
"","response","","html-keyboard-response","163","372275","0.0-1.0-221.0-0.0","0","0","60944","","204","","","75","24","","","1","24","training","adjacent","DE","4","5","O.jpg","L.jpg","0","1","0","",""
"","feedback","","html-keyboard-response","164","373280","0.0-1.0-222.0-0.0","0","0","60944","","null","","","null","24","","","","","","","","","","","","","","","",""
"","time_out","","html-keyboard-response","165","375285","0.0-1.0-224.0-0.0","0","0","60944","","null","","","null","24","","","","","","","","","","","","","","","",""
"","ITI","","html-keyboard-response","166","376290","0.0-1.0-225.0","0","0","60944","","null","","","null","24","","","","","","","","","","","","","","","NaN",""
"","S1","","html-keyboard-response","167","376545","0.0-1.0-227.0","0","0","60944","","null","","","null","25","","","","","","","","","","","","","","","",""
"","ISI","","html-keyboard-response","168","376700","0.0-1.0-228.0","0","0","60944","","null","","","null","25","NaN","","","","","","","","","","","","","","",""
"","S2","","html-keyboard-response","169","376955","0.0-1.0-229.0","0","0","60944","","null","","","null","25","","NaN","","","","","","","","","","","","","",""
"","response","","html-keyboard-response","170","377254","0.0-1.0-230.0-0.0","0","0","60944","","294","","","75","25","","","1","25","training","adjacent","BA","2","1","Q.jpg","R.jpg","0","0","1","",""
"","feedback","","html-keyboard-response","171","378258","0.0-1.0-231.0-0.0","0","0","60944","","null","","","null","25","","","","","","","","","","","","","","","",""
"","ITI","","html-keyboard-response","172","379264","0.0-1.0-234.0","0","0","60944","","null","","","null","25","","","","","","","","","","","","","","","NaN",""
"","S1","","html-keyboard-response","173","379518","0.0-1.0-236.0","0","0","60944","","null","","","null","26","","","","","","","","","","","","","","","",""
"","ISI","","html-keyboard-response","174","379673","0.0-1.0-237.0","0","0","60944","","null","","","null","26","NaN","","","","","","","","","","","","","","",""
"","S2","","html-keyboard-response","175","379928","0.0-1.0-238.0","0","0","60944","","null","","","null","26","","NaN","","","","","","","","","","","","","",""
"","response","","html-keyboard-response","176","380250","0.0-1.0-239.0-0.0","0","0","60944","","320","","","75","26","","","1","26","training","adjacent","ED","5","4","L.jpg","O.jpg","0","0","1","",""
"","feedback","","html-keyboard-response","177","381255","0.0-1.0-240.0-0.0","0","0","60944","","null","","","null","26","","","","","","","","","","","","","","","",""
"","ITI","","html-keyboard-response","178","382260","0.0-1.0-243.0","0","0","60944","","null","","","null","26","","","","","","","","","","","","","","","NaN",""
"","S1","","html-keyboard-response","179","382515","0.0-1.0-245.0","0","0","60944","","null","","","null","27","","","","","","","","","","","","","","","",""
"","ISI","","html-keyboard-response","180","382669","0.0-1.0-246.0","0","0","60944","","null","","","null","27","NaN","","","","","","","","","","","","","","",""
"","S2","","html-keyboard-response","181","382936","0.0-1.0-247.0","0","0","60944","","null","","","null","27","","NaN","","","","","","","","","","","","","",""
"","response","","html-keyboard-response","182","383360","0.0-1.0-248.0-0.0","0","0","60944","","420","","","68","27","","","1","27","training","adjacent","DE","4","5","O.jpg","L.jpg","1","1","1","",""
"","feedback","","html-keyboard-response","183","384365","0.0-1.0-249.0-0.0","0","0","60944","","null","","","null","27","","","","","","","","","","","","","","","",""
"","ITI","","html-keyboard-response","184","385370","0.0-1.0-252.0","0","0","60944","","null","","","null","27","","","","","","","","","","","","","","","NaN",""
"","S1","","html-keyboard-response","185","385625","0.0-1.0-254.0","0","0","60944","","null","","","null","28","","","","","","","","","","","","","","","",""
"","ISI","","html-keyboard-response","186","385779","0.0-1.0-255.0","0","0","60944","","null","","","null","28","NaN","","","","","","","","","","","","","","",""
"","S2","","html-keyboard-response","187","386035","0.0-1.0-256.0","0","0","60944","","null","","","null","28","","NaN","","","","","","","","","","","","","",""
"","response","","html-keyboard-response","188","386442","0.0-1.0-257.0-0.0","0","0","60944","","403","","","75","28","","","1","28","training","adjacent","CB","3","2","P.jpg","Q.jpg","0","0","1","",""
"","feedback","","html-keyboard-response","189","387447","0.0-1.0-258.0-0.0","0","0","60944","","null","","","null","28","","","","","","","","","","","","","","","",""
"","ITI","","html-keyboard-response","190","388452","0.0-1.0-261.0","0","0","60944","","null","","","null","28","","","","","","","","","","","","","","","NaN",""
"","S1","","html-keyboard-response","191","388706","0.0-1.0-263.0","0","0","60944","","null","","","null","29","","","","","","","","","","","","","","","",""
"","ISI","","html-keyboard-response","192","388861","0.0-1.0-264.0","0","0","60944","","null","","","null","29","NaN","","","","","","","","","","","","","","",""
"","S2","","html-keyboard-response","193","389114","0.0-1.0-265.0","0","0","60944","","null","","","null","29","","NaN","","","","","","","","","","","","","",""
"","response","","html-keyboard-response","194","389494","0.0-1.0-266.0-0.0","0","0","60944","","377","","","75","29","","","1","29","training","adjacent","CB","3","2","P.jpg","Q.jpg","0","0","1","",""
"","feedback","","html-keyboard-response","195","390497","0.0-1.0-267.0-0.0","0","0","60944","","null","","","null","29","","","","","","","","","","","","","","","",""
"","ITI","","html-keyboard-response","196","391502","0.0-1.0-270.0","0","0","60944","","null","","","null","29","","","","","","","","","","","","","","","NaN",""
"","S1","","html-keyboard-response","197","391756","0.0-1.0-272.0","0","0","60944","","null","","","null","30","","","","","","","","","","","","","","","",""
"","ISI","","html-keyboard-response","198","391909","0.0-1.0-273.0","0","0","60944","","null","","","null","30","NaN","","","","","","","","","","","","","","",""
"","S2","","html-keyboard-response","199","392176","0.0-1.0-274.0","0","0","60944","","null","","","null","30","","NaN","","","","","","","","","","","","","",""
"","response","","html-keyboard-response","200","392542","0.0-1.0-275.0-0.0","0","0","60944","","362","","","75","30","","","1","30","training","adjacent","CD","3","4","P.jpg","O.jpg","0","1","0","",""
"","feedback","","html-keyboard-response","201","393547","0.0-1.0-276.0-0.0","0","0","60944","","null","","","null","30","","","","","","","","","","","","","","","",""
"","time_out","","html-keyboard-response","202","395552","0.0-1.0-278.0-0.0","0","0","60944","","null","","","null","30","","","","","","","","","","","","","","","",""
"","ITI","","html-keyboard-response","203","396557","0.0-1.0-279.0","0","0","60944","","null","","","null","30","","","","","","","","","","","","","","","NaN",""
"","S1","","html-keyboard-response","204","396812","0.0-1.0-281.0","0","0","60944","","null","","","null","31","","","","","","","","","","","","","","","",""
"","ISI","","html-keyboard-response","205","396966","0.0-1.0-282.0","0","0","60944","","null","","","null","31","NaN","","","","","","","","","","","","","","",""
"","S2","","html-keyboard-response","206","397220","0.0-1.0-283.0","0","0","60944","","null","","","null","31","","NaN","","","","","","","","","","","","","",""
"","response","","html-keyboard-response","207","397622","0.0-1.0-284.0-0.0","0","0","60944","","399","","","68","31","","","1","31","training","adjacent","EF","5","6","L.jpg","M.jpg","1","1","1","",""
"","feedback","","html-keyboard-response","208","398628","0.0-1.0-285.0-0.0","0","0","60944","","null","","","null","31","","","","","","","","","","","","","","","",""
"","ITI","","html-keyboard-response","209","399632","0.0-1.0-288.0","0","0","60944","","null","","","null","31","","","","","","","","","","","","","","","NaN",""
"","S1","","html-keyboard-response","210","399885","0.0-1.0-290.0","0","0","60944","","null","","","null","32","","","","","","","","","","","","","","","",""
"","ISI","","html-keyboard-response","211","400038","0.0-1.0-291.0","0","0","60944","","null","","","null","32","NaN","","","","","","","","","","","","","","",""
"","S2","","html-keyboard-response","212","400293","0.0-1.0-292.0","0","0","60944","","null","","","null","32","","NaN","","","","","","","","","","","","","",""
"","response","","html-keyboard-response","213","400707","0.0-1.0-293.0-0.0","0","0","60944","","412","","","68","32","","","1","32","training","adjacent","AB","1","2","R.jpg","Q.jpg","1","1","1","",""
"","feedback","","html-keyboard-response","214","401715","0.0-1.0-294.0-0.0","0","0","60944","","null","","","null","32","","","","","","","","","","","","","","","",""
"","ITI","","html-keyboard-response","215","402720","0.0-1.0-297.0","0","0","60944","","null","","","null","32","","","","","","","","","","","","","","","NaN",""
"","S1","","html-keyboard-response","216","402974","0.0-1.0-299.0","0","0","60944","","null","","","null","33","","","","","","","","","","","","","","","",""
"","ISI","","html-keyboard-response","217","403128","0.0-1.0-300.0","0","0","60944","","null","","","null","33","NaN","","","","","","","","","","","","","","",""
"","S2","","html-keyboard-response","218","403383","0.0-1.0-301.0","0","0","60944","","null","","","null","33","","NaN","","","","","","","","","","","","","",""
"","response","","html-keyboard-response","219","403784","0.0-1.0-302.0-0.0","0","0","60944","","397","","","75","33","","","1","33","training","adjacent","CD","3","4","P.jpg","O.jpg","0","1","0","",""
"","feedback","","html-keyboard-response","220","404789","0.0-1.0-303.0-0.0","0","0","60944","","null","","","null","33","","","","","","","","","","","","","","","",""
"","time_out","","html-keyboard-response","221","406795","0.0-1.0-305.0-0.0","0","0","60944","","null","","","null","33","","","","","","","","","","","","","","","",""
"","ITI","","html-keyboard-response","222","407801","0.0-1.0-306.0","0","0","60944","","null","","","null","33","","","","","","","","","","","","","","","NaN",""
"","S1","","html-keyboard-response","223","408055","0.0-1.0-308.0","0","0","60944","","null","","","null","34","","","","","","","","","","","","","","","",""
"","ISI","","html-keyboard-response","224","408209","0.0-1.0-309.0","0","0","60944","","null","","","null","34","NaN","","","","","","","","","","","","","","",""
"","S2","","html-keyboard-response","225","408464","0.0-1.0-310.0","0","0","60944","","null","","","null","34","","NaN","","","","","","","","","","","","","",""
"","response","","html-keyboard-response","226","408841","0.0-1.0-311.0-0.0","0","0","60944","","372","","","75","34","","","1","34","training","adjacent","FE","6","5","M.jpg","L.jpg","0","0","1","",""
"","feedback","","html-keyboard-response","227","409847","0.0-1.0-312.0-0.0","0","0","60944","","null","","","null","34","","","","","","","","","","","","","","","",""
"","ITI","","html-keyboard-response","228","410853","0.0-1.0-315.0","0","0","60944","","null","","","null","34","","","","","","","","","","","","","","","NaN",""
"","S1","","html-keyboard-response","229","411108","0.0-1.0-317.0","0","0","60944","","null","","","null","35","","","","","","","","","","","","","","","",""
"","ISI","","html-keyboard-response","230","411263","0.0-1.0-318.0","0","0","60944","","null","","","null","35","NaN","","","","","","","","","","","","","","",""
"","S2","","html-keyboard-response","231","411517","0.0-1.0-319.0","0","0","60944","","null","","","null","35","","NaN","","","","","","","","","","","","","",""
"","response","","html-keyboard-response","232","411883","0.0-1.0-320.0-0.0","0","0","60944","","363","","","75","35","","","1","35","training","adjacent","DE","4","5","O.jpg","L.jpg","0","1","0","",""
"","feedback","","html-keyboard-response","233","412886","0.0-1.0-321.0-0.0","0","0","60944","","null","","","null","35","","","","","","","","","","","","","","","",""
"","time_out","","html-keyboard-response","234","414889","0.0-1.0-323.0-0.0","0","0","60944","","null","","","null","35","","","","","","","","","","","","","","","",""
"","ITI","","html-keyboard-response","235","415893","0.0-1.0-324.0","0","0","60944","","null","","","null","35","","","","","","","","","","","","","","","NaN",""
"","S1","","html-keyboard-response","236","416147","0.0-1.0-326.0","0","0","60944","","null","","","null","36","","","","","","","","","","","","","","","",""
"","ISI","","html-keyboard-response","237","416301","0.0-1.0-327.0","0","0","60944","","null","","","null","36","NaN","","","","","","","","","","","","","","",""
"","S2","","html-keyboard-response","238","416557","0.0-1.0-328.0","0","0","60944","","null","","","null","36","","NaN","","","","","","","","","","","","","",""
"","response","","html-keyboard-response","239","416820","0.0-1.0-329.0-0.0","0","0","60944","","258","","","68","36","","","1","36","training","adjacent","CD","3","4","P.jpg","O.jpg","1","1","1","",""
"","feedback","","html-keyboard-response","240","417826","0.0-1.0-330.0-0.0","0","0","60944","","null","","","null","36","","","","","","","","","","","","","","","",""
"","ITI","","html-keyboard-response","241","418831","0.0-1.0-333.0","0","0","60944","","null","","","null","36","","","","","","","","","","","","","","","NaN",""
"","S1","","html-keyboard-response","242","419086","0.0-1.0-335.0","0","0","60944","","null","","","null","37","","","","","","","","","","","","","","","",""
"","ISI","","html-keyboard-response","243","419241","0.0-1.0-336.0","0","0","60944","","null","","","null","37","NaN","","","","","","","","","","","","","","",""
"","S2","","html-keyboard-response","244","419495","0.0-1.0-337.0","0","0","60944","","null","","","null","37","","NaN","","","","","","","","","","","","","",""
"","response","","html-keyboard-response","245","419838","0.0-1.0-338.0-0.0","0","0","60944","","341","","","68","37","","","1","37","training","adjacent","AB","1","2","R.jpg","Q.jpg","1","1","1","",""
"","feedback","","html-keyboard-response","246","420845","0.0-1.0-339.0-0.0","0","0","60944","","null","","","null","37","","","","","","","","","","","","","","","",""
"","ITI","","html-keyboard-response","247","421855","0.0-1.0-342.0","0","0","60944","","null","","","null","37","","","","","","","","","","","","","","","NaN",""
"","S1","","html-keyboard-response","248","422110","0.0-1.0-344.0","0","0","60944","","null","","","null","38","","","","","","","","","","","","","","","",""
"","ISI","","html-keyboard-response","249","422263","0.0-1.0-345.0","0","0","60944","","null","","","null","38","NaN","","","","","","","","","","","","","","",""
"","S2","","html-keyboard-response","250","422519","0.0-1.0-346.0","0","0","60944","","null","","","null","38","","NaN","","","","","","","","","","","","","",""
"","response","","html-keyboard-response","251","422945","0.0-1.0-347.0-0.0","0","0","60944","","422","","","75","38","","","1","38","training","adjacent","DC","4","3","O.jpg","P.jpg","0","0","1","",""
"","feedback","","html-keyboard-response","252","423949","0.0-1.0-348.0-0.0","0","0","60944","","null","","","null","38","","","","","","","","","","","","","","","",""
"","ITI","","html-keyboard-response","253","424952","0.0-1.0-351.0","0","0","60944","","null","","","null","38","","","","","","","","","","","","","","","NaN",""
"","S1","","html-keyboard-response","254","425208","0.0-1.0-353.0","0","0","60944","","null","","","null","39","","","","","","","","","","","","","","","",""
"","ISI","","html-keyboard-response","255","425361","0.0-1.0-354.0","0","0","60944","","null","","","null","39","NaN","","","","","","","","","","","","","","",""
"","S2","","html-keyboard-response","256","425617","0.0-1.0-355.0","0","0","60944","","null","","","null","39","","NaN","","","","","","","","","","","","","",""
"","response","","html-keyboard-response","257","425831","0.0-1.0-356.0-0.0","0","0","60944","","208","","","75","39","","","1","39","training","adjacent","GF","7","6","N.jpg","M.jpg","0","0","1","",""
"","feedback","","html-keyboard-response","258","426837","0.0-1.0-357.0-0.0","0","0","60944","","null","","","null","39","","","","","","","","","","","","","","","",""
"","ITI","","html-keyboard-response","259","427843","0.0-1.0-360.0","0","0","60944","","null","","","null","39","","","","","","","","","","","","","","","NaN",""
"","S1","","html-keyboard-response","260","428098","0.0-1.0-362.0","0","0","60944","","null","","","null","40","","","","","","","","","","","","","","","",""
"","ISI","","html-keyboard-response","261","428252","0.0-1.0-363.0","0","0","60944","","null","","","null","40","NaN","","","","","","","","","","","","","","",""
"","S2","","html-keyboard-response","262","428507","0.0-1.0-364.0","0","0","60944","","null","","","null","40","","NaN","","","","","","","","","","","","","",""
"","response","","html-keyboard-response","263","428819","0.0-1.0-365.0-0.0","0","0","60944","","308","","","75","40","","","1","40","training","adjacent","EF","5","6","L.jpg","M.jpg","0","1","0","",""
"","feedback","","html-keyboard-response","264","429824","0.0-1.0-366.0-0.0","0","0","60944","","null","","","null","40","","","","","","","","","","","","","","","",""
"","time_out","","html-keyboard-response","265","431829","0.0-1.0-368.0-0.0","0","0","60944","","null","","","null","40","","","","","","","","","","","","","","","",""
"","ITI","","html-keyboard-response","266","432835","0.0-1.0-369.0","0","0","60944","","null","","","null","40","","","","","","","","","","","","","","","NaN",""
"","S1","","html-keyboard-response","267","433090","0.0-1.0-371.0","0","0","60944","","null","","","null","41","","","","","","","","","","","","","","","",""
"","ISI","","html-keyboard-response","268","433246","0.0-1.0-372.0","0","0","60944","","null","","","null","41","NaN","","","","","","","","","","","","","","",""
"","S2","","html-keyboard-response","269","433500","0.0-1.0-373.0","0","0","60944","","null","","","null","41","","NaN","","","","","","","","","","","","","",""
"","response","","html-keyboard-response","270","433906","0.0-1.0-374.0-0.0","0","0","60944","","403","","","68","41","","","1","41","training","adjacent","ED","5","4","L.jpg","O.jpg","1","0","0","",""
"","feedback","","html-keyboard-response","271","434913","0.0-1.0-375.0-0.0","0","0","60944","","null","","","null","41","","","","","","","","","","","","","","","",""
"","time_out","","html-keyboard-response","272","436917","0.0-1.0-377.0-0.0","0","0","60944","","null","","","null","41","","","","","","","","","","","","","","","",""
"","ITI","","html-keyboard-response","273","437921","0.0-1.0-378.0","0","0","60944","","null","","","null","41","","","","","","","","","","","","","","","NaN",""
"","S1","","html-keyboard-response","274","438176","0.0-1.0-380.0","0","0","60944","","null","","","null","42","","","","","","","","","","","","","","","",""
"","ISI","","html-keyboard-response","275","438329","0.0-1.0-381.0","0","0","60944","","null","","","null","42","NaN","","","","","","","","","","","","","","",""
"","S2","","html-keyboard-response","276","438584","0.0-1.0-382.0","0","0","60944","","null","","","null","42","","NaN","","","","","","","","","","","","","",""
"","response","","html-keyboard-response","277","438714","0.0-1.0-383.0-0.0","0","0","60944","","127","","","75","42","","","1","42","training","adjacent","BA","2","1","Q.jpg","R.jpg","0","0","1","",""
"","feedback","","html-keyboard-response","278","439720","0.0-1.0-384.0-0.0","0","0","60944","","null","","","null","42","","","","","","","","","","","","","","","",""
"","ITI","","html-keyboard-response","279","440724","0.0-1.0-387.0","0","0","60944","","null","","","null","42","","","","","","","","","","","","","","","NaN",""
"","S1","","html-keyboard-response","280","440977","0.0-1.0-389.0","0","0","60944","","null","","","null","43","","","","","","","","","","","","","","","",""
"","ISI","","html-keyboard-response","281","441132","0.0-1.0-390.0","0","0","60944","","null","","","null","43","NaN","","","","","","","","","","","","","","",""
"","S2","","html-keyboard-response","282","441387","0.0-1.0-391.0","0","0","60944","","null","","","null","43","","NaN","","","","","","","","","","","","","",""
"","response","","html-keyboard-response","283","441660","0.0-1.0-392.0-0.0","0","0","60944","","268","","","75","43","","","1","43","training","adjacent","CB","3","2","P.jpg","Q.jpg","0","0","1","",""
"","feedback","","html-keyboard-response","284","442666","0.0-1.0-393.0-0.0","0","0","60944","","null","","","null","43","","","","","","","","","","","","","","","",""
"","ITI","","html-keyboard-response","285","443671","0.0-1.0-396.0","0","0","60944","","null","","","null","43","","","","","","","","","","","","","","","NaN",""
"","S1","","html-keyboard-response","286","443926","0.0-1.0-398.0","0","0","60944","","null","","","null","44","","","","","","","","","","","","","","","",""
"","ISI","","html-keyboard-response","287","444080","0.0-1.0-399.0","0","0","60944","","null","","","null","44","NaN","","","","","","","","","","","","","","",""
"","S2","","html-keyboard-response","288","444335","0.0-1.0-400.0","0","0","60944","","null","","","null","44","","NaN","","","","","","","","","","","","","",""
"","response","","html-keyboard-response","289","444513","0.0-1.0-401.0-0.0","0","0","60944","","174","","","75","44","","","1","44","training","adjacent","BA","2","1","Q.jpg","R.jpg","0","0","1","",""
"","feedback","","html-keyboard-response","290","445519","0.0-1.0-402.0-0.0","0","0","60944","","null","","","null","44","","","","","","","","","","","","","","","",""
"","ITI","","html-keyboard-response","291","446524","0.0-1.0-405.0","0","0","60944","","null","","","null","44","","","","","","","","","","","","","","","NaN",""
"","S1","","html-keyboard-response","292","446779","0.0-1.0-407.0","0","0","60944","","null","","","null","45","","","","","","","","","","","","","","","",""
"","ISI","","html-keyboard-response","293","446932","0.0-1.0-408.0","0","0","60944","","null","","","null","45","NaN","","","","","","","","","","","","","","",""
"","S2","","html-keyboard-response","294","447186","0.0-1.0-409.0","0","0","60944","","null","","","null","45","","NaN","","","","","","","","","","","","","",""
"","response","","html-keyboard-response","295","447490","0.0-1.0-410.0-0.0","0","0","60944","","301","","","75","45","","","1","45","training","adjacent","BC","2","3","Q.jpg","P.jpg","0","1","0","",""
"","feedback","","html-keyboard-response","296","448495","0.0-1.0-411.0-0.0","0","0","60944","","null","","","null","45","","","","","","","","","","","","","","","",""
"","time_out","","html-keyboard-response","297","450499","0.0-1.0-413.0-0.0","0","0","60944","","null","","","null","45","","","","","","","","","","","","","","","",""
"","ITI","","html-keyboard-response","298","451503","0.0-1.0-414.0","0","0","60944","","null","","","null","45","","","","","","","","","","","","","","","NaN",""
"","S1","","html-keyboard-response","299","451757","0.0-1.0-416.0","0","0","60944","","null","","","null","46","","","","","","","","","","","","","","","",""
"","ISI","","html-keyboard-response","300","451910","0.0-1.0-417.0","0","0","60944","","null","","","null","46","NaN","","","","","","","","","","","","","","",""
"","S2","","html-keyboard-response","301","452165","0.0-1.0-418.0","0","0","60944","","null","","","null","46","","NaN","","","","","","","","","","","","","",""
"","response","","html-keyboard-response","302","452309","0.0-1.0-419.0-0.0","0","0","60944","","139","","","75","46","","","1","46","training","adjacent","BC","2","3","Q.jpg","P.jpg","0","1","0","",""
"","feedback","","html-keyboard-response","303","453315","0.0-1.0-420.0-0.0","0","0","60944","","null","","","null","46","","","","","","","","","","","","","","","",""
"","time_out","","html-keyboard-response","304","455320","0.0-1.0-422.0-0.0","0","0","60944","","null","","","null","46","","","","","","","","","","","","","","","",""
"","ITI","","html-keyboard-response","305","456325","0.0-1.0-423.0","0","0","60944","","null","","","null","46","","","","","","","","","","","","","","","NaN",""
"","S1","","html-keyboard-response","306","456580","0.0-1.0-425.0","0","0","60944","","null","","","null","47","","","","","","","","","","","","","","","",""
"","ISI","","html-keyboard-response","307","456735","0.0-1.0-426.0","0","0","60944","","null","","","null","47","NaN","","","","","","","","","","","","","","",""
"","S2","","html-keyboard-response","308","456989","0.0-1.0-427.0","0","0","60944","","null","","","null","47","","NaN","","","","","","","","","","","","","",""
"","response","","html-keyboard-response","309","457175","0.0-1.0-428.0-0.0","0","0","60944","","182","","","68","47","","","1","47","training","adjacent","GF","7","6","N.jpg","M.jpg","1","0","0","",""
"","feedback","","html-keyboard-response","310","458180","0.0-1.0-429.0-0.0","0","0","60944","","null","","","null","47","","","","","","","","","","","","","","","",""
"","time_out","","html-keyboard-response","311","460184","0.0-1.0-431.0-0.0","0","0","60944","","null","","","null","47","","","","","","","","","","","","","","","",""
"","ITI","","html-keyboard-response","312","461189","0.0-1.0-432.0","0","0","60944","","null","","","null","47","","","","","","","","","","","","","","","NaN",""
"","block_over","","html-keyboard-response","313","467405","0.0-1.0-433.0-0.0","0","0","60944","","6156","","","32","47","","","","","","","","","","","","","","","",""
"","S1","","html-keyboard-response","314","467660","0.0-1.0-434.0","0","0","60944","","null","","","null","48","","","","","","","","","","","","","","","",""
"","ISI","","html-keyboard-response","315","467814","0.0-1.0-435.0","0","0","60944","","null","","","null","48","NaN","","","","","","","","","","","","","","",""
"","S2","","html-keyboard-response","316","468069","0.0-1.0-436.0","0","0","60944","","null","","","null","48","","NaN","","","","","","","","","","","","","",""
"","response","","html-keyboard-response","317","468609","0.0-1.0-437.0-0.0","0","0","60944","","537","","","68","48","","","2","48","training","adjacent","FG","6","7","M.jpg","N.jpg","1","1","1","",""
"","feedback","","html-keyboard-response","318","469614","0.0-1.0-438.0-0.0","0","0","60944","","null","","","null","48","","","","","","","","","","","","","","","",""
"","ITI","","html-keyboard-response","319","470619","0.0-1.0-441.0","0","0","60944","","null","","","null","48","","","","","","","","","","","","","","","NaN",""
"","S1","","html-keyboard-response","320","470873","0.0-1.0-443.0","0","0","60944","","null","","","null","49","","","","","","","","","","","","","","","",""
"","ISI","","html-keyboard-response","321","471026","0.0-1.0-444.0","0","0","60944","","null","","","null","49","NaN","","","","","","","","","","","","","","",""
"","S2","","html-keyboard-response","322","471281","0.0-1.0-445.0","0","0","60944","","null","","","null","49","","NaN","","","","","","","","","","","","","",""
"","response","","html-keyboard-response","323","471344","0.0-1.0-446.0-0.0","0","0","60944","","60","","","75","49","","","2","49","training","adjacent","GF","7","6","N.jpg","M.jpg","0","0","1","",""
"","feedback","","html-keyboard-response","324","472349","0.0-1.0-447.0-0.0","0","0","60944","","null","","","null","49","","","","","","","","","","","","","","","",""
"","ITI","","html-keyboard-response","325","473354","0.0-1.0-450.0","0","0","60944","","null","","","null","49","","","","","","","","","","","","","","","NaN",""
"","S1","","html-keyboard-response","326","473609","0.0-1.0-452.0","0","0","60944","","null","","","null","50","","","","","","","","","","","","","","","",""
"","ISI","","html-keyboard-response","327","473763","0.0-1.0-453.0","0","0","60944","","null","","","null","50","NaN","","","","","","","","","","","","","","",""
"","S2","","html-keyboard-response","328","474018","0.0-1.0-454.0","0","0","60944","","null","","","null","50","","NaN","","","","","","","","","","","","","",""
"","response","","html-keyboard-response","329","474066","0.0-1.0-455.0-0.0","0","0","60944","","44","","","75","50","","","2","50","training","adjacent","CB","3","2","P.jpg","Q.jpg","0","0","1","",""
"","feedback","","html-keyboard-response","330","475070","0.0-1.0-456.0-0.0","0","0","60944","","null","","","null","50","","","","","","","","","","","","","","","",""
"","ITI","","html-keyboard-response","331","476075","0.0-1.0-459.0","0","0","60944","","null","","","null","50","","","","","","","","","","","","","","","NaN",""
"","S1","","html-keyboard-response","332","476330","0.0-1.0-461.0","0","0","60944","","null","","","null","51","","","","","","","","","","","","","","","",""
"","ISI","","html-keyboard-response","333","476485","0.0-1.0-462.0","0","0","60944","","null","","","null","51","NaN","","","","","","","","","","","","","","",""
"","S2","","html-keyboard-response","334","476741","0.0-1.0-463.0","0","0","60944","","null","","","null","51","","NaN","","","","","","","","","","","","","",""
"","response","","html-keyboard-response","335","476894","0.0-1.0-464.0-0.0","0","0","60944","","149","","","75","51","","","2","51","training","adjacent","BC","2","3","Q.jpg","P.jpg","0","1","0","",""
"","feedback","","html-keyboard-response","336","477898","0.0-1.0-465.0-0.0","0","0","60944","","null","","","null","51","","","","","","","","","","","","","","","",""
"","time_out","","html-keyboard-response","337","479901","0.0-1.0-467.0-0.0","0","0","60944","","null","","","null","51","","","","","","","","","","","","","","","",""
"","ITI","","html-keyboard-response","338","480905","0.0-1.0-468.0","0","0","60944","","null","","","null","51","","","","","","","","","","","","","","","NaN",""
"","S1","","html-keyboard-response","339","481159","0.0-1.0-470.0","0","0","60944","","null","","","null","52","","","","","","","","","","","","","","","",""
"","ISI","","html-keyboard-response","340","481312","0.0-1.0-471.0","0","0","60944","","null","","","null","52","NaN","","","","","","","","","","","","","","",""
"","S2","","html-keyboard-response","341","481566","0.0-1.0-472.0","0","0","60944","","null","","","null","52","","NaN","","","","","","","","","","","","","",""
"","response","","html-keyboard-response","342","481613","0.0-1.0-473.0-0.0","0","0","60944","","44","","","75","52","","","2","52","training","adjacent","FE","6","5","M.jpg","L.jpg","0","0","1","",""
"","feedback","","html-keyboard-response","343","482618","0.0-1.0-474.0-0.0","0","0","60944","","null","","","null","52","","","","","","","","","","","","","","","",""
"","ITI","","html-keyboard-response","344","483623","0.0-1.0-477.0","0","0","60944","","null","","","null","52","","","","","","","","","","","","","","","NaN",""
"","S1","","html-keyboard-response","345","483878","0.0-1.0-479.0","0","0","60944","","null","","","null","53","","","","","","","","","","","","","","","",""
"","ISI","","html-keyboard-response","346","484033","0.0-1.0-480.0","0","0","60944","","null","","","null","53","NaN","","","","","","","","","","","","","","",""
"","S2","","html-keyboard-response","347","484287","0.0-1.0-481.0","0","0","60944","","null","","","null","53","","NaN","","","","","","","","","","","","","",""
"","response","","html-keyboard-response","348","484377","0.0-1.0-482.0-0.0","0","0","60944","","86","","","75","53","","","2","53","training","adjacent","ED","5","4","L.jpg","O.jpg","0","0","1","",""
"","feedback","","html-keyboard-response","349","485382","0.0-1.0-483.0-0.0","0","0","60944","","null","","","null","53","","","","","","","","","","","","","","","",""
"","ITI","","html-keyboard-response","350","486387","0.0-1.0-486.0","0","0","60944","","null","","","null","53","","","","","","","","","","","","","","","NaN",""
"","S1","","html-keyboard-response","351","486652","0.0-1.0-488.0","0","0","60944","","null","","","null","54","","","","","","","","","","","","","","","",""
"","ISI","","html-keyboard-response","352","486805","0.0-1.0-489.0","0","0","60944","","null","","","null","54","NaN","","","","","","","","","","","","","","",""
"","S2","","html-keyboard-response","353","487033","0.0-1.0-490.0","0","0","60944","","224","","","75","54","","k","2","54","training","adjacent","DE","4","5","O.jpg","L.jpg","0","1","0","",""
"","feedback","","html-keyboard-response","354","488040","0.0-1.0-492.0-0.0","0","0","60944","","null","","","null","54","","","","","","","","","","","","","","","",""
"","time_out","","html-keyboard-response","355","490045","0.0-1.0-494.0-0.0","0","0","60944","","null","","","null","54","","","","","","","","","","","","","","","",""
"","ITI","","html-keyboard-response","356","491049","0.0-1.0-495.0","0","0","60944","","null","","","null","54","","","","","","","","","","","","","","","NaN",""
"","S1","","html-keyboard-response","357","491304","0.0-1.0-497.0","0","0","60944","","null","","","null","55","","","","","","","","","","","","","","","",""
"","ISI","","html-keyboard-response","358","491458","0.0-1.0-498.0","0","0","60944","","null","","","null","55","NaN","","","","","","","","","","","","","","",""
"","S2","","html-keyboard-response","359","491713","0.0-1.0-499.0","0","0","60944","","null","","","null","55","","NaN","","","","","","","","","","","","","",""
"","response","","html-keyboard-response","360","491791","0.0-1.0-500.0-0.0","0","0","60944","","74","","","68","55","","","2","55","training","adjacent","DE","4","5","O.jpg","L.jpg","1","1","1","",""
"","feedback","","html-keyboard-response","361","492797","0.0-1.0-501.0-0.0","0","0","60944","","null","","","null","55","","","","","","","","","","","","","","","",""
"","ITI","","html-keyboard-response","362","493802","0.0-1.0-504.0","0","0","60944","","null","","","null","55","","","","","","","","","","","","","","","NaN",""
"","S1","","html-keyboard-response","363","494056","0.0-1.0-506.0","0","0","60944","","null","","","null","56","","","","","","","","","","","","","","","",""
"","ISI","","html-keyboard-response","364","494210","0.0-1.0-507.0","0","0","60944","","null","","","null","56","NaN","","","","","","","","","","","","","","",""
"","S2","","html-keyboard-response","365","494432","0.0-1.0-508.0","0","0","60944","","218","","","68","56","","d","2","56","training","adjacent","FE","6","5","M.jpg","L.jpg","1","0","0","",""
"","feedback","","html-keyboard-response","366","495438","0.0-1.0-510.0-0.0","0","0","60944","","null","","","null","56","","","","","","","","","","","","","","","",""
"","time_out","","html-keyboard-response","367","497443","0.0-1.0-512.0-0.0","0","0","60944","","null","","","null","56","","","","","","","","","","","","","","","",""
"","ITI","","html-keyboard-response","368","498447","0.0-1.0-513.0","0","0","60944","","null","","","null","56","","","","","","","","","","","","","","","NaN",""
"","S1","","html-keyboard-response","369","498715","0.0-1.0-515.0","0","0","60944","","null","","","null","57","","","","","","","","","","","","","","","",""
"","ISI","","html-keyboard-response","370","498869","0.0-1.0-516.0","0","0","60944","","null","","","null","57","NaN","","","","","","","","","","","","","","",""
"","S2","","html-keyboard-response","371","499037","0.0-1.0-517.0","0","0","60944","","163","","","68","57","","d","2","57","training","adjacent","CB","3","2","P.jpg","Q.jpg","1","0","0","",""
"","feedback","","html-keyboard-response","372","500043","0.0-1.0-519.0-0.0","0","0","60944","","null","","","null","57","","","","","","","","","","","","","","","",""
"","time_out","","html-keyboard-response","373","502047","0.0-1.0-521.0-0.0","0","0","60944","","null","","","null","57","","","","","","","","","","","","","","","",""
"","ITI","","html-keyboard-response","374","503051","0.0-1.0-522.0","0","0","60944","","null","","","null","57","","","","","","","","","","","","","","","NaN",""
"","S1","","html-keyboard-response","375","503305","0.0-1.0-524.0","0","0","60944","","null","","","null","58","","","","","","","","","","","","","","","",""
"","ISI","","html-keyboard-response","376","503461","0.0-1.0-525.0","0","0","60944","","null","","","null","58","NaN","","","","","","","","","","","","","","",""
"","S2","","html-keyboard-response","377","503716","0.0-1.0-526.0","0","0","60944","","null","","","null","58","","NaN","","","","","","","","","","","","","",""
"","response","","html-keyboard-response","378","503815","0.0-1.0-527.0-0.0","0","0","60944","","96","","","75","58","","","2","58","training","adjacent","ED","5","4","L.jpg","O.jpg","0","0","1","",""
"","feedback","","html-keyboard-response","379","504821","0.0-1.0-528.0-0.0","0","0","60944","","null","","","null","58","","","","","","","","","","","","","","","",""
"","ITI","","html-keyboard-response","380","505826","0.0-1.0-531.0","0","0","60944","","null","","","null","58","","","","","","","","","","","","","","","NaN",""
"","S1","","html-keyboard-response","381","506082","0.0-1.0-533.0","0","0","60944","","null","","","null","59","","","","","","","","","","","","","","","",""
"","ISI","","html-keyboard-response","382","506236","0.0-1.0-534.0","0","0","60944","","null","","","null","59","NaN","","","","","","","","","","","","","","",""
"","S2","","html-keyboard-response","383","506491","0.0-1.0-535.0","0","0","60944","","null","","","null","59","","NaN","","","","","","","","","","","","","",""
"","response","","html-keyboard-response","384","506674","0.0-1.0-536.0-0.0","0","0","60944","","179","","","68","59","","","2","59","training","adjacent","FG","6","7","M.jpg","N.jpg","1","1","1","",""
"","feedback","","html-keyboard-response","385","507681","0.0-1.0-537.0-0.0","0","0","60944","","null","","","null","59","","","","","","","","","","","","","","","",""
"","ITI","","html-keyboard-response","386","508687","0.0-1.0-540.0","0","0","60944","","null","","","null","59","","","","","","","","","","","","","","","NaN",""
"","S1","","html-keyboard-response","387","508942","0.0-1.0-542.0","0","0","60944","","null","","","null","60","","","","","","","","","","","","","","","",""
"","ISI","","html-keyboard-response","388","509098","0.0-1.0-543.0","0","0","60944","","null","","","null","60","NaN","","","","","","","","","","","","","","",""
"","S2","","html-keyboard-response","389","509250","0.0-1.0-544.0","0","0","60944","","149","","","68","60","","d","2","60","training","adjacent","EF","5","6","L.jpg","M.jpg","1","1","1","",""
"","feedback","","html-keyboard-response","390","510255","0.0-1.0-546.0-0.0","0","0","60944","","null","","","null","60","","","","","","","","","","","","","","","",""
"","ITI","","html-keyboard-response","391","511260","0.0-1.0-549.0","0","0","60944","","null","","","null","60","","","","","","","","","","","","","","","NaN",""
"","S1","","html-keyboard-response","392","511515","0.0-1.0-551.0","0","0","60944","","null","","","null","61","","","","","","","","","","","","","","","",""
"","ISI","","html-keyboard-response","393","511669","0.0-1.0-552.0","0","0","60944","","null","","","null","61","NaN","","","","","","","","","","","","","","",""
"","S2","","html-keyboard-response","394","511924","0.0-1.0-553.0","0","0","60944","","null","","","null","61","","NaN","","","","","","","","","","","","","",""
"","response","","html-keyboard-response","395","511970","0.0-1.0-554.0-0.0","0","0","60944","","42","","","68","61","","","2","61","training","adjacent","ED","5","4","L.jpg","O.jpg","1","0","0","",""
"","feedback","","html-keyboard-response","396","512975","0.0-1.0-555.0-0.0","0","0","60944","","null","","","null","61","","","","","","","","","","","","","","","",""
"","time_out","","html-keyboard-response","397","514980","0.0-1.0-557.0-0.0","0","0","60944","","null","","","null","61","","","","","","","","","","","","","","","",""
"","ITI","","html-keyboard-response","398","515985","0.0-1.0-558.0","0","0","60944","","null","","","null","61","","","","","","","","","","","","","","","NaN",""
"","S1","","html-keyboard-response","399","516241","0.0-1.0-560.0","0","0","60944","","null","","","null","62","","","","","","","","","","","","","","","",""
"","ISI","","html-keyboard-response","400","516395","0.0-1.0-561.0","0","0","60944","","null","","","null","62","NaN","","","","","","","","","","","","","","",""
"","S2","","html-keyboard-response","401","516651","0.0-1.0-562.0","0","0","60944","","null","","","null","62","","NaN","","","","","","","","","","","","","",""
"","response","","html-keyboard-response","402","516680","0.0-1.0-563.0-0.0","0","0","60944","","25","","","68","62","","","2","62","training","adjacent","BA","2","1","Q.jpg","R.jpg","1","0","0","",""
"","feedback","","html-keyboard-response","403","517685","0.0-1.0-564.0-0.0","0","0","60944","","null","","","null","62","","","","","","","","","","","","","","","",""
"","time_out","","html-keyboard-response","404","519690","0.0-1.0-566.0-0.0","0","0","60944","","null","","","null","62","","","","","","","","","","","","","","","",""
"","ITI","","html-keyboard-response","405","520694","0.0-1.0-567.0","0","0","60944","","null","","","null","62","","","","","","","","","","","","","","","NaN",""
"","S1","","html-keyboard-response","406","520949","0.0-1.0-569.0","0","0","60944","","null","","","null","63","","","","","","","","","","","","","","","",""
"","ISI","","html-keyboard-response","407","521101","0.0-1.0-570.0","0","0","60944","","null","","","null","63","NaN","","","","","","","","","","","","","","",""
"","S2","","html-keyboard-response","408","521288","0.0-1.0-571.0","0","0","60944","","183","","","75","63","","k","2","63","training","adjacent","CB","3","2","P.jpg","Q.jpg","0","0","1","",""
"","feedback","","html-keyboard-response","409","522294","0.0-1.0-573.0-0.0","0","0","60944","","null","","","null","63","","","","","","","","","","","","","","","",""
"","ITI","","html-keyboard-response","410","523299","0.0-1.0-576.0","0","0","60944","","null","","","null","63","","","","","","","","","","","","","","","NaN",""
"","S1","","html-keyboard-response","411","523553","0.0-1.0-578.0","0","0","60944","","null","","","null","64","","","","","","","","","","","","","","","",""
"","ISI","","html-keyboard-response","412","523715","0.0-1.0-579.0","0","0","60944","","null","","","null","64","NaN","","","","","","","","","","","","","","",""
"","S2","","html-keyboard-response","413","523970","0.0-1.0-580.0","0","0","60944","","null","","","null","64","","NaN","","","","","","","","","","","","","",""
"","response","","html-keyboard-response","414","523990","0.0-1.0-581.0-0.0","0","0","60944","","17","","","75","64","","","2","64","training","adjacent","DE","4","5","O.jpg","L.jpg","0","1","0","",""
"","feedback","","html-keyboard-response","415","524995","0.0-1.0-582.0-0.0","0","0","60944","","null","","","null","64","","","","","","","","","","","","","","","",""
"","time_out","","html-keyboard-response","416","526999","0.0-1.0-584.0-0.0","0","0","60944","","null","","","null","64","","","","","","","","","","","","","","","",""
"","ITI","","html-keyboard-response","417","528004","0.0-1.0-585.0","0","0","60944","","null","","","null","64","","","","","","","","","","","","","","","NaN",""
"","S1","","html-keyboard-response","418","528260","0.0-1.0-587.0","0","0","60944","","null","","","null","65","","","","","","","","","","","","","","","",""
"","ISI","","html-keyboard-response","419","528415","0.0-1.0-588.0","0","0","60944","","null","","","null","65","NaN","","","","","","","","","","","","","","",""
"","S2","","html-keyboard-response","420","528664","0.0-1.0-589.0","0","0","60944","","246","","","68","65","","d","2","65","training","adjacent","CD","3","4","P.jpg","O.jpg","1","1","1","",""
"","feedback","","html-keyboard-response","421","529668","0.0-1.0-591.0-0.0","0","0","60944","","null","","","null","65","","","","","","","","","","","","","","","",""
"","ITI","","html-keyboard-response","422","530673","0.0-1.0-594.0","0","0","60944","","null","","","null","65","","","","","","","","","","","","","","","NaN",""
"","S1","","html-keyboard-response","423","530930","0.0-1.0-596.0","0","0","60944","","null","","","null","66","","","","","","","","","","","","","","","",""
"","ISI","","html-keyboard-response","424","531085","0.0-1.0-597.0","0","0","60944","","null","","","null","66","NaN","","","","","","","","","","","","","","",""
"","S2","","html-keyboard-response","425","531313","0.0-1.0-598.0","0","0","60944","","225","","","75","66","","k","2","66","training","adjacent","FG","6","7","M.jpg","N.jpg","0","1","0","",""
"","feedback","","html-keyboard-response","426","532317","0.0-1.0-600.0-0.0","0","0","60944","","null","","","null","66","","","","","","","","","","","","","","","",""
"","time_out","","html-keyboard-response","427","534321","0.0-1.0-602.0-0.0","0","0","60944","","null","","","null","66","","","","","","","","","","","","","","","",""
"","ITI","","html-keyboard-response","428","535325","0.0-1.0-603.0","0","0","60944","","null","","","null","66","","","","","","","","","","","","","","","NaN",""
"","S1","","html-keyboard-response","429","535580","0.0-1.0-605.0","0","0","60944","","null","","","null","67","","","","","","","","","","","","","","","",""
"","ISI","","html-keyboard-response","430","535734","0.0-1.0-606.0","0","0","60944","","null","","","null","67","NaN","","","","","","","","","","","","","","",""
"","S2","","html-keyboard-response","431","535989","0.0-1.0-607.0","0","0","60944","","null","","","null","67","","NaN","","","","","","","","","","","","","",""
"","response","","html-keyboard-response","432","536027","0.0-1.0-608.0-0.0","0","0","60944","","35","","","68","67","","","2","67","training","adjacent","DC","4","3","O.jpg","P.jpg","1","0","0","",""
"","feedback","","html-keyboard-response","433","537033","0.0-1.0-609.0-0.0","0","0","60944","","null","","","null","67","","","","","","","","","","","","","","","",""
"","time_out","","html-keyboard-response","434","539038","0.0-1.0-611.0-0.0","0","0","60944","","null","","","null","67","","","","","","","","","","","","","","","",""
"","ITI","","html-keyboard-response","435","540042","0.0-1.0-612.0","0","0","60944","","null","","","null","67","","","","","","","","","","","","","","","NaN",""
"","S1","","html-keyboard-response","436","540297","0.0-1.0-614.0","0","0","60944","","null","","","null","68","","","","","","","","","","","","","","","",""
"","ISI","","html-keyboard-response","437","540451","0.0-1.0-615.0","0","0","60944","","null","","","null","68","NaN","","","","","","","","","","","","","","",""
"","S2","","html-keyboard-response","438","540569","0.0-1.0-616.0","0","0","60944","","112","","","75","68","","k","2","68","training","adjacent","CD","3","4","P.jpg","O.jpg","0","1","0","",""
"","feedback","","html-keyboard-response","439","541576","0.0-1.0-618.0-0.0","0","0","60944","","null","","","null","68","","","","","","","","","","","","","","","",""
"","time_out","","html-keyboard-response","440","543580","0.0-1.0-620.0-0.0","0","0","60944","","null","","","null","68","","","","","","","","","","","","","","","",""
"","ITI","","html-keyboard-response","441","544585","0.0-1.0-621.0","0","0","60944","","null","","","null","68","","","","","","","","","","","","","","","NaN",""
"","S1","","html-keyboard-response","442","544840","0.0-1.0-623.0","0","0","60944","","null","","","null","69","","","","","","","","","","","","","","","",""
"","ISI","","html-keyboard-response","443","544994","0.0-1.0-624.0","0","0","60944","","null","","","null","69","NaN","","","","","","","","","","","","","","",""
"","S2","","html-keyboard-response","444","545107","0.0-1.0-625.0","0","0","60944","","109","","","68","69","","d","2","69","training","adjacent","CD","3","4","P.jpg","O.jpg","1","1","1","",""
"","feedback","","html-keyboard-response","445","546113","0.0-1.0-627.0-0.0","0","0","60944","","null","","","null","69","","","","","","","","","","","","","","","",""
"","ITI","","html-keyboard-response","446","547118","0.0-1.0-630.0","0","0","60944","","null","","","null","69","","","","","","","","","","","","","","","NaN",""
"","S1","","html-keyboard-response","447","547382","0.0-1.0-632.0","0","0","60944","","null","","","null","70","","","","","","","","","","","","","","","",""
"","ISI","","html-keyboard-response","448","547536","0.0-1.0-633.0","0","0","60944","","null","","","null","70","NaN","","","","","","","","","","","","","","",""
"","S2","","html-keyboard-response","449","547764","0.0-1.0-634.0","0","0","60944","","224","","","75","70","","k","2","70","training","adjacent","BC","2","3","Q.jpg","P.jpg","0","1","0","",""
"","feedback","","html-keyboard-response","450","548770","0.0-1.0-636.0-0.0","0","0","60944","","null","","","null","70","","","","","","","","","","","","","","","",""
"","time_out","","html-keyboard-response","451","550774","0.0-1.0-638.0-0.0","0","0","60944","","null","","","null","70","","","","","","","","","","","","","","","",""
"","ITI","","html-keyboard-response","452","551779","0.0-1.0-639.0","0","0","60944","","null","","","null","70","","","","","","","","","","","","","","","NaN",""
"","S1","","html-keyboard-response","453","552034","0.0-1.0-641.0","0","0","60944","","null","","","null","71","","","","","","","","","","","","","","","",""
"","ISI","","html-keyboard-response","454","552189","0.0-1.0-642.0","0","0","60944","","null","","","null","71","NaN","","","","","","","","","","","","","","",""
"","S2","","html-keyboard-response","455","552431","0.0-1.0-643.0","0","0","60944","","238","","","68","71","","d","2","71","training","adjacent","DC","4","3","O.jpg","P.jpg","1","0","0","",""
"","feedback","","html-keyboard-response","456","553436","0.0-1.0-645.0-0.0","0","0","60944","","null","","","null","71","","","","","","","","","","","","","","","",""
"","time_out","","html-keyboard-response","457","555441","0.0-1.0-647.0-0.0","0","0","60944","","null","","","null","71","","","","","","","","","","","","","","","",""
"","ITI","","html-keyboard-response","458","556445","0.0-1.0-648.0","0","0","60944","","null","","","null","71","","","","","","","","","","","","","","","NaN",""
"","S1","","html-keyboard-response","459","556700","0.0-1.0-650.0","0","0","60944","","null","","","null","72","","","","","","","","","","","","","","","",""
"","ISI","","html-keyboard-response","460","556857","0.0-1.0-651.0","0","0","60944","","null","","","null","72","NaN","","","","","","","","","","","","","","",""
"","S2","","html-keyboard-response","461","557113","0.0-1.0-652.0","0","0","60944","","null","","","null","72","","NaN","","","","","","","","","","","","","",""
"","response","","html-keyboard-response","462","557240","0.0-1.0-653.0-0.0","0","0","60944","","124","","","68","72","","","2","72","training","adjacent","DC","4","3","O.jpg","P.jpg","1","0","0","",""
"","feedback","","html-keyboard-response","463","558245","0.0-1.0-654.0-0.0","0","0","60944","","null","","","null","72","","","","","","","","","","","","","","","",""
"","time_out","","html-keyboard-response","464","560250","0.0-1.0-656.0-0.0","0","0","60944","","null","","","null","72","","","","","","","","","","","","","","","",""
"","ITI","","html-keyboard-response","465","561254","0.0-1.0-657.0","0","0","60944","","null","","","null","72","","","","","","","","","","","","","","","NaN",""
"","S1","","html-keyboard-response","466","561509","0.0-1.0-659.0","0","0","60944","","null","","","null","73","","","","","","","","","","","","","","","",""
"","ISI","","html-keyboard-response","467","561670","0.0-1.0-660.0","0","0","60944","","null","","","null","73","NaN","","","","","","","","","","","","","","",""
"","S2","","html-keyboard-response","468","561918","0.0-1.0-661.0","0","0","60944","","244","","","75","73","","k","2","73","training","adjacent","AB","1","2","R.jpg","Q.jpg","0","1","0","",""
"","feedback","","html-keyboard-response","469","562924","0.0-1.0-663.0-0.0","0","0","60944","","null","","","null","73","","","","","","","","","","","","","","","",""
"","time_out","","html-keyboard-response","470","564928","0.0-1.0-665.0-0.0","0","0","60944","","null","","","null","73","","","","","","","","","","","","","","","",""
"","ITI","","html-keyboard-response","471","565934","0.0-1.0-666.0","0","0","60944","","null","","","null","73","","","","","","","","","","","","","","","NaN",""
"","S1","","html-keyboard-response","472","566188","0.0-1.0-668.0","0","0","60944","","null","","","null","74","","","","","","","","","","","","","","","",""
"","ISI","","html-keyboard-response","473","566343","0.0-1.0-669.0","0","0","60944","","null","","","null","74","NaN","","","","","","","","","","","","","","",""
"","S2","","html-keyboard-response","474","566598","0.0-1.0-670.0","0","0","60944","","null","","","null","74","","NaN","","","","","","","","","","","","","",""
"","response","","html-keyboard-response","475","566668","0.0-1.0-671.0-0.0","0","0","60944","","66","","","68","74","","","2","74","training","adjacent","ED","5","4","L.jpg","O.jpg","1","0","0","",""
"","feedback","","html-keyboard-response","476","567673","0.0-1.0-672.0-0.0","0","0","60944","","null","","","null","74","","","","","","","","","","","","","","","",""
"","time_out","","html-keyboard-response","477","569676","0.0-1.0-674.0-0.0","0","0","60944","","null","","","null","74","","","","","","","","","","","","","","","",""
"","ITI","","html-keyboard-response","478","570681","0.0-1.0-675.0","0","0","60944","","null","","","null","74","","","","","","","","","","","","","","","NaN",""
"","S1","","html-keyboard-response","479","570937","0.0-1.0-677.0","0","0","60944","","null","","","null","75","","","","","","","","","","","","","","","",""
"","ISI","","html-keyboard-response","480","571094","0.0-1.0-678.0","0","0","60944","","null","","","null","75","NaN","","","","","","","","","","","","","","",""
"","S2","","html-keyboard-response","481","571349","0.0-1.0-679.0","0","0","60944","","null","","","null","75","","NaN","","","","","","","","","","","","","",""
"","response","","html-keyboard-response","482","571443","0.0-1.0-680.0-0.0","0","0","60944","","91","","","68","75","","","2","75","training","adjacent","FE","6","5","M.jpg","L.jpg","1","0","0","",""
"","feedback","","html-keyboard-response","483","572449","0.0-1.0-681.0-0.0","0","0","60944","","null","","","null","75","","","","","","","","","","","","","","","",""
"","time_out","","html-keyboard-response","484","574457","0.0-1.0-683.0-0.0","0","0","60944","","null","","","null","75","","","","","","","","","","","","","","","",""
"","ITI","","html-keyboard-response","485","575462","0.0-1.0-684.0","0","0","60944","","null","","","null","75","","","","","","","","","","","","","","","NaN",""
"","S1","","html-keyboard-response","486","575717","0.0-1.0-686.0","0","0","60944","","null","","","null","76","","","","","","","","","","","","","","","",""
"","ISI","","html-keyboard-response","487","575871","0.0-1.0-687.0","0","0","60944","","null","","","null","76","NaN","","","","","","","","","","","","","","",""
"","S2","","html-keyboard-response","488","576126","0.0-1.0-688.0","0","0","60944","","null","","","null","76","","NaN","","","","","","","","","","","","","",""
"","response","","html-keyboard-response","489","576191","0.0-1.0-689.0-0.0","0","0","60944","","61","","","75","76","","","2","76","training","adjacent","GF","7","6","N.jpg","M.jpg","0","0","1","",""
"","feedback","","html-keyboard-response","490","577196","0.0-1.0-690.0-0.0","0","0","60944","","null","","","null","76","","","","","","","","","","","","","","","",""
"","ITI","","html-keyboard-response","491","578202","0.0-1.0-693.0","0","0","60944","","null","","","null","76","","","","","","","","","","","","","","","NaN",""
"","S1","","html-keyboard-response","492","578456","0.0-1.0-695.0","0","0","60944","","null","","","null","77","","","","","","","","","","","","","","","",""
"","ISI","","html-keyboard-response","493","578611","0.0-1.0-696.0","0","0","60944","","null","","","null","77","NaN","","","","","","","","","","","","","","",""
"","S2","","html-keyboard-response","494","578865","0.0-1.0-697.0","0","0","60944","","null","","","null","77","","NaN","","","","","","","","","","","","","",""
"","response","","html-keyboard-response","495","579040","0.0-1.0-698.0-0.0","0","0","60944","","171","","","68","77","","","2","77","training","adjacent","BC","2","3","Q.jpg","P.jpg","1","1","1","",""
"","feedback","","html-keyboard-response","496","580045","0.0-1.0-699.0-0.0","0","0","60944","","null","","","null","77","","","","","","","","","","","","","","","",""
"","ITI","","html-keyboard-response","497","581050","0.0-1.0-702.0","0","0","60944","","null","","","null","77","","","","","","","","","","","","","","","NaN",""
"","S1","","html-keyboard-response","498","581305","0.0-1.0-704.0","0","0","60944","","null","","","null","78","","","","","","","","","","","","","","","",""
"","ISI","","html-keyboard-response","499","581459","0.0-1.0-705.0","0","0","60944","","null","","","null","78","NaN","","","","","","","","","","","","","","",""
"","S2","","html-keyboard-response","500","581714","0.0-1.0-706.0","0","0","60944","","null","","","null","78","","NaN","","","","","","","","","","","","","",""
"","response","","html-keyboard-response","501","581839","0.0-1.0-707.0-0.0","0","0","60944","","121","","","68","78","","","2","78","training","adjacent","BA","2","1","Q.jpg","R.jpg","1","0","0","",""
"","feedback","","html-keyboard-response","502","582845","0.0-1.0-708.0-0.0","0","0","60944","","null","","","null","78","","","","","","","","","","","","","","","",""
"","time_out","","html-keyboard-response","503","584852","0.0-1.0-710.0-0.0","0","0","60944","","null","","","null","78","","","","","","","","","","","","","","","",""
"","ITI","","html-keyboard-response","504","585857","0.0-1.0-711.0","0","0","60944","","null","","","null","78","","","","","","","","","","","","","","","NaN",""
"","S1","","html-keyboard-response","505","586112","0.0-1.0-713.0","0","0","60944","","null","","","null","79","","","","","","","","","","","","","","","",""
"","ISI","","html-keyboard-response","506","586266","0.0-1.0-714.0","0","0","60944","","null","","","null","79","NaN","","","","","","","","","","","","","","",""
"","S2","","html-keyboard-response","507","586522","0.0-1.0-715.0","0","0","60944","","null","","","null","79","","NaN","","","","","","","","","","","","","",""
"","response","","html-keyboard-response","508","586591","0.0-1.0-716.0-0.0","0","0","60944","","65","","","75","79","","","2","79","training","adjacent","EF","5","6","L.jpg","M.jpg","0","1","0","",""
"","feedback","","html-keyboard-response","509","587596","0.0-1.0-717.0-0.0","0","0","60944","","null","","","null","79","","","","","","","","","","","","","","","",""
"","time_out","","html-keyboard-response","510","589601","0.0-1.0-719.0-0.0","0","0","60944","","null","","","null","79","","","","","","","","","","","","","","","",""
"","ITI","","html-keyboard-response","511","590605","0.0-1.0-720.0","0","0","60944","","null","","","null","79","","","","","","","","","","","","","","","NaN",""
"","S1","","html-keyboard-response","512","590862","0.0-1.0-722.0","0","0","60944","","null","","","null","80","","","","","","","","","","","","","","","",""
"","ISI","","html-keyboard-response","513","591015","0.0-1.0-723.0","0","0","60944","","null","","","null","80","NaN","","","","","","","","","","","","","","",""
"","S2","","html-keyboard-response","514","591271","0.0-1.0-724.0","0","0","60944","","null","","","null","80","","NaN","","","","","","","","","","","","","",""
"","response","","html-keyboard-response","515","591391","0.0-1.0-725.0-0.0","0","0","60944","","116","","","68","80","","","2","80","training","adjacent","GF","7","6","N.jpg","M.jpg","1","0","0","",""
"","feedback","","html-keyboard-response","516","592395","0.0-1.0-726.0-0.0","0","0","60944","","null","","","null","80","","","","","","","","","","","","","","","",""
"","time_out","","html-keyboard-response","517","594399","0.0-1.0-728.0-0.0","0","0","60944","","null","","","null","80","","","","","","","","","","","","","","","",""
"","ITI","","html-keyboard-response","518","595404","0.0-1.0-729.0","0","0","60944","","null","","","null","80","","","","","","","","","","","","","","","NaN",""
"","S1","","html-keyboard-response","519","595659","0.0-1.0-731.0","0","0","60944","","null","","","null","81","","","","","","","","","","","","","","","",""
"","ISI","","html-keyboard-response","520","595816","0.0-1.0-732.0","0","0","60944","","null","","","null","81","NaN","","","","","","","","","","","","","","",""
"","S2","","html-keyboard-response","521","596072","0.0-1.0-733.0","0","0","60944","","null","","","null","81","","NaN","","","","","","","","","","","","","",""
"","response","","html-keyboard-response","522","596075","0.0-1.0-734.0-0.0","0","0","60944","","0","","","75","81","","","2","81","training","adjacent","GF","7","6","N.jpg","M.jpg","0","0","1","",""
"","feedback","","html-keyboard-response","523","597079","0.0-1.0-735.0-0.0","0","0","60944","","null","","","null","81","","","","","","","","","","","","","","","",""
"","ITI","","html-keyboard-response","524","598085","0.0-1.0-738.0","0","0","60944","","null","","","null","81","","","","","","","","","","","","","","","NaN",""
"","S1","","html-keyboard-response","525","598340","0.0-1.0-740.0","0","0","60944","","null","","","null","82","","","","","","","","","","","","","","","",""
"","ISI","","html-keyboard-response","526","598495","0.0-1.0-741.0","0","0","60944","","null","","","null","82","NaN","","","","","","","","","","","","","","",""
"","S2","","html-keyboard-response","527","598750","0.0-1.0-742.0","0","0","60944","","null","","","null","82","","NaN","","","","","","","","","","","","","",""
"","response","","html-keyboard-response","528","599203","0.0-1.0-743.0-0.0","0","0","60944","","449","","","68","82","","","2","82","training","adjacent","BC","2","3","Q.jpg","P.jpg","1","1","1","",""
"","feedback","","html-keyboard-response","529","600210","0.0-1.0-744.0-0.0","0","0","60944","","null","","","null","82","","","","","","","","","","","","","","","",""
"","ITI","","html-keyboard-response","530","601215","0.0-1.0-747.0","0","0","60944","","null","","","null","82","","","","","","","","","","","","","","","NaN",""
"","S1","","html-keyboard-response","531","601471","0.0-1.0-749.0","0","0","60944","","null","","","null","83","","","","","","","","","","","","","","","",""
"","ISI","","html-keyboard-response","532","601626","0.0-1.0-750.0","0","0","60944","","null","","","null","83","NaN","","","","","","","","","","","","","","",""
"","S2","","html-keyboard-response","533","601880","0.0-1.0-751.0","0","0","60944","","null","","","null","83","","NaN","","","","","","","","","","","","","",""
"","response","","html-keyboard-response","534","602063","0.0-1.0-752.0-0.0","0","0","60944","","179","","","68","83","","","2","83","training","adjacent","AB","1","2","R.jpg","Q.jpg","1","1","1","",""
"","feedback","","html-keyboard-response","535","603069","0.0-1.0-753.0-0.0","0","0","60944","","null","","","null","83","","","","","","","","","","","","","","","",""
"","ITI","","html-keyboard-response","536","604073","0.0-1.0-756.0","0","0","60944","","null","","","null","83","","","","","","","","","","","","","","","NaN",""
"","S1","","html-keyboard-response","537","604327","0.0-1.0-758.0","0","0","60944","","null","","","null","84","","","","","","","","","","","","","","","",""
"","ISI","","html-keyboard-response","538","604482","0.0-1.0-759.0","0","0","60944","","null","","","null","84","NaN","","","","","","","","","","","","","","",""
"","S2","","html-keyboard-response","539","604736","0.0-1.0-760.0","0","0","60944","","null","","","null","84","","NaN","","","","","","","","","","","","","",""
"","response","","html-keyboard-response","540","604848","0.0-1.0-761.0-0.0","0","0","60944","","108","","","75","84","","","2","84","training","adjacent","DE","4","5","O.jpg","L.jpg","0","1","0","",""
"","feedback","","html-keyboard-response","541","605856","0.0-1.0-762.0-0.0","0","0","60944","","null","","","null","84","","","","","","","","","","","","","","","",""
"","time_out","","html-keyboard-response","542","607861","0.0-1.0-764.0-0.0","0","0","60944","","null","","","null","84","","","","","","","","","","","","","","","",""
"","ITI","","html-keyboard-response","543","608868","0.0-1.0-765.0","0","0","60944","","null","","","null","84","","","","","","","","","","","","","","","NaN",""
"","S1","","html-keyboard-response","544","609122","0.0-1.0-767.0","0","0","60944","","null","","","null","85","","","","","","","","","","","","","","","",""
"","ISI","","html-keyboard-response","545","609277","0.0-1.0-768.0","0","0","60944","","null","","","null","85","NaN","","","","","","","","","","","","","","",""
"","S2","","html-keyboard-response","546","609532","0.0-1.0-769.0","0","0","60944","","null","","","null","85","","NaN","","","","","","","","","","","","","",""
"","response","","html-keyboard-response","547","609555","0.0-1.0-770.0-0.0","0","0","60944","","19","","","68","85","","","2","85","training","adjacent","AB","1","2","R.jpg","Q.jpg","1","1","1","",""
"","feedback","","html-keyboard-response","548","610561","0.0-1.0-771.0-0.0","0","0","60944","","null","","","null","85","","","","","","","","","","","","","","","",""
"","ITI","","html-keyboard-response","549","611567","0.0-1.0-774.0","0","0","60944","","null","","","null","85","","","","","","","","","","","","","","","NaN",""
"","S1","","html-keyboard-response","550","611823","0.0-1.0-776.0","0","0","60944","","null","","","null","86","","","","","","","","","","","","","","","",""
"","ISI","","html-keyboard-response","551","611978","0.0-1.0-777.0","0","0","60944","","null","","","null","86","NaN","","","","","","","","","","","","","","",""
"","S2","","html-keyboard-response","552","612244","0.0-1.0-778.0","0","0","60944","","null","","","null","86","","NaN","","","","","","","","","","","","","",""
"","response","","html-keyboard-response","553","612370","0.0-1.0-779.0-0.0","0","0","60944","","122","","","68","86","","","2","86","training","adjacent","CB","3","2","P.jpg","Q.jpg","1","0","0","",""
"","feedback","","html-keyboard-response","554","613375","0.0-1.0-780.0-0.0","0","0","60944","","null","","","null","86","","","","","","","","","","","","","","","",""
"","time_out","","html-keyboard-response","555","615381","0.0-1.0-782.0-0.0","0","0","60944","","null","","","null","86","","","","","","","","","","","","","","","",""
"","ITI","","html-keyboard-response","556","616385","0.0-1.0-783.0","0","0","60944","","null","","","null","86","","","","","","","","","","","","","","","NaN",""
"","S1","","html-keyboard-response","557","616639","0.0-1.0-785.0","0","0","60944","","null","","","null","87","","","","","","","","","","","","","","","",""
"","ISI","","html-keyboard-response","558","616793","0.0-1.0-786.0","0","0","60944","","null","","","null","87","NaN","","","","","","","","","","","","","","",""
"","S2","","html-keyboard-response","559","616980","0.0-1.0-787.0","0","0","60944","","183","","","75","87","","k","2","87","training","adjacent","BA","2","1","Q.jpg","R.jpg","0","0","1","",""
"","feedback","","html-keyboard-response","560","617986","0.0-1.0-789.0-0.0","0","0","60944","","null","","","null","87","","","","","","","","","","","","","","","",""
"","ITI","","html-keyboard-response","561","618990","0.0-1.0-792.0","0","0","60944","","null","","","null","87","","","","","","","","","","","","","","","NaN",""
"","S1","","html-keyboard-response","562","619245","0.0-1.0-794.0","0","0","60944","","null","","","null","88","","","","","","","","","","","","","","","",""
"","ISI","","html-keyboard-response","563","619399","0.0-1.0-795.0","0","0","60944","","null","","","null","88","NaN","","","","","","","","","","","","","","",""
"","S2","","html-keyboard-response","564","619655","0.0-1.0-796.0","0","0","60944","","null","","","null","88","","NaN","","","","","","","","","","","","","",""
"","response","","html-keyboard-response","565","619823","0.0-1.0-797.0-0.0","0","0","60944","","163","","","68","88","","","2","88","training","adjacent","DC","4","3","O.jpg","P.jpg","1","0","0","",""
"","feedback","","html-keyboard-response","566","620829","0.0-1.0-798.0-0.0","0","0","60944","","null","","","null","88","","","","","","","","","","","","","","","",""
"","time_out","","html-keyboard-response","567","622836","0.0-1.0-800.0-0.0","0","0","60944","","null","","","null","88","","","","","","","","","","","","","","","",""
"","ITI","","html-keyboard-response","568","623843","0.0-1.0-801.0","0","0","60944","","null","","","null","88","","","","","","","","","","","","","","","NaN",""
"","S1","","html-keyboard-response","569","624098","0.0-1.0-803.0","0","0","60944","","null","","","null","89","","","","","","","","","","","","","","","",""
"","ISI","","html-keyboard-response","570","624253","0.0-1.0-804.0","0","0","60944","","null","","","null","89","NaN","","","","","","","","","","","","","","",""
"","S2","","html-keyboard-response","571","624449","0.0-1.0-805.0","0","0","60944","","192","","","75","89","","k","2","89","training","adjacent","EF","5","6","L.jpg","M.jpg","0","1","0","",""
"","feedback","","html-keyboard-response","572","625455","0.0-1.0-807.0-0.0","0","0","60944","","null","","","null","89","","","","","","","","","","","","","","","",""
"","time_out","","html-keyboard-response","573","627459","0.0-1.0-809.0-0.0","0","0","60944","","null","","","null","89","","","","","","","","","","","","","","","",""
"","ITI","","html-keyboard-response","574","628464","0.0-1.0-810.0","0","0","60944","","null","","","null","89","","","","","","","","","","","","","","","NaN",""
"","S1","","html-keyboard-response","575","628718","0.0-1.0-812.0","0","0","60944","","null","","","null","90","","","","","","","","","","","","","","","",""
"","ISI","","html-keyboard-response","576","628874","0.0-1.0-813.0","0","0","60944","","null","","","null","90","NaN","","","","","","","","","","","","","","",""
"","S2","","html-keyboard-response","577","628987","0.0-1.0-814.0","0","0","60944","","109","","","75","90","","k","2","90","training","adjacent","BA","2","1","Q.jpg","R.jpg","0","0","1","",""
"","feedback","","html-keyboard-response","578","629993","0.0-1.0-816.0-0.0","0","0","60944","","null","","","null","90","","","","","","","","","","","","","","","",""
"","ITI","","html-keyboard-response","579","630998","0.0-1.0-819.0","0","0","60944","","null","","","null","90","","","","","","","","","","","","","","","NaN",""
"","S1","","html-keyboard-response","580","631259","0.0-1.0-821.0","0","0","60944","","null","","","null","91","","","","","","","","","","","","","","","",""
