"success","ttype","start_time","trial_type","trial_index","time_elapsed","internal_node_id","warning","missed_checkup","PID","view_history","rt","responses","repeat_instructions","key_press","index","keypress_isi","keypress_S2","block","trial_num","phase","group_type","pair_type","S1_stim","S2_stim","S1_img","S2_img","S1_chosen","S1_higher","accuracy","keypress_iti","total_bonus_tally"
"true","full_screen","d04132023hr1413","fullscreen","0","27064","0.0-0.0","0","0","36695","","","","","","","","","","","","","","","","","","","","","",""
"","instructions","","instructions","1","87221","0.0-1.0-0.0-0.0","0","0","36695","[{""page_index"":0,""viewing_time"":6234},{""page_index"":1,""viewing_time"":33650},{""page_index"":2,""viewing_time"":17500},{""page_index"":3,""viewing_time"":2767}]","60152","","","","","","","","","","","","","","","","","","","",""
"","comprehension_check","","survey-multi-choice","2","115238","0.0-1.0-0.0-1.0","0","0","36695","","28008","{""Q0"":""True"",""Q1"":""D"",""Q2"":""Once the second image appears and while the screen 'MAKE A CHOICE' is shown"",""Q3"":""Green mark"",""Q4"":""either D or K""}","1","","","","","","","","","","","","","","","","","",""
"","missed_instruction_checkup","","html-keyboard-response","3","117851","0.0-1.0-0.0-2.0-0.0","0","1","36695","","2607","","","32","","","","","","","","","","","","","","","","",""
"","instructions","","instructions","4","133720","0.0-1.0-0.1-0.1","0","0","36695","[{""page_index"":0,""viewing_time"":2197},{""page_index"":1,""viewing_time"":10316},{""page_index"":2,""viewing_time"":1867},{""page_index"":3,""viewing_time"":1484}]","15864","","","","","","","","","","","","","","","","","","","",""
"","comprehension_check","","survey-multi-choice","5","150137","0.0-1.0-0.1-1.1","0","0","36695","","16410","{""Q0"":""True"",""Q1"":""D"",""Q2"":""Once the second image appears and while the screen 'MAKE A CHOICE' is shown"",""Q3"":""Green mark"",""Q4"":""either D or K""}","1","","","","","","","","","","","","","","","","","",""
"","missed_instruction_checkup","","html-keyboard-response","6","152112","0.0-1.0-0.1-2.1-0.1","0","1","36695","","1968","","","32","","","","","","","","","","","","","","","","",""
"","instructions","","instructions","7","167853","0.0-1.0-0.2-0.2","0","0","36695","[{""page_index"":0,""viewing_time"":3654},{""page_index"":1,""viewing_time"":5517},{""page_index"":2,""viewing_time"":4917},{""page_index"":3,""viewing_time"":1649}]","15737","","","","","","","","","","","","","","","","","","","",""
"","comprehension_check","","survey-multi-choice","8","196787","0.0-1.0-0.2-1.2","0","0","36695","","28927","{""Q0"":""True"",""Q1"":""D"",""Q2"":""Only when the screen 'MAKE A CHOICE' is shown"",""Q3"":""Green mark"",""Q4"":""either D or K""}","1","","","","","","","","","","","","","","","","","",""
"","missed_instruction_checkup","","html-keyboard-response","9","198916","0.0-1.0-0.2-2.2-0.2","0","1","36695","","2123","","","32","","","","","","","","","","","","","","","","",""
"","instructions","","instructions","10","300787","0.0-1.0-0.3-0.3","0","0","36695","[{""page_index"":0,""viewing_time"":1499},{""page_index"":1,""viewing_time"":11017},{""page_index"":2,""viewing_time"":87633},{""page_index"":3,""viewing_time"":1717}]","101866","","","","","","","","","","","","","","","","","","","",""
"","comprehension_check","","survey-multi-choice","11","310922","0.0-1.0-0.3-1.3","0","0","36695","","10127","{""Q0"":""True"",""Q1"":""K"",""Q2"":""Once the second image appears and while the screen 'MAKE A CHOICE' is shown"",""Q3"":""Green mark"",""Q4"":""either D or K""}","0","","","","","","","","","","","","","","","","","",""
"","start_exp","","html-keyboard-response","12","312627","0.0-1.0-1.0","0","0","36695","","1700","","","32","","","","","","","","","","","","","","","","",""
"","S1","","html-keyboard-response","13","312889","0.0-1.0-2.0","0","0","36695","","null","","","null","0","","","","","","","","","","","","","","","",""
"","ISI","","html-keyboard-response","14","313899","0.0-1.0-3.0","0","0","36695","","null","","","null","0","NaN","","","","","","","","","","","","","","",""
"","S2","","html-keyboard-response","15","314164","0.0-1.0-4.0","0","0","36695","","null","","","null","0","","NaN","","","","","","","","","","","","","",""
"","response","","html-keyboard-response","16","315369","0.0-1.0-5.0-0.0","0","0","36695","","1199","","","75","0","","","1","0","training","adjacent","CB","3","2","O.jpg","M.jpg","1","0","0","",""
"","feedback","","html-keyboard-response","17","316377","0.0-1.0-6.0-0.0","0","0","36695","","null","","","null","0","","","","","","","","","","","","","","","",""
"","time_out","","html-keyboard-response","18","318393","0.0-1.0-8.0-0.0","0","0","36695","","null","","","null","0","","","","","","","","","","","","","","","",""
"","ITI","","html-keyboard-response","19","319401","0.0-1.0-9.0","0","0","36695","","null","","","null","0","","","","","","","","","","","","","","","NaN",""
"","S1","","html-keyboard-response","20","319668","0.0-1.0-11.0","0","0","36695","","null","","","null","1","","","","","","","","","","","","","","","",""
"","ISI","","html-keyboard-response","21","320681","0.0-1.0-12.0","0","0","36695","","null","","","null","1","NaN","","","","","","","","","","","","","","",""
"","S2","","html-keyboard-response","22","320948","0.0-1.0-13.0","0","0","36695","","null","","","null","1","","NaN","","","","","","","","","","","","","",""
"","response","","html-keyboard-response","23","322633","0.0-1.0-14.0-0.0","0","0","36695","","1679","","","68","1","","","1","1","training","adjacent","EF","5","6","Q.jpg","N.jpg","0","1","0","",""
"","feedback","","html-keyboard-response","24","323652","0.0-1.0-15.0-0.0","0","0","36695","","null","","","null","1","","","","","","","","","","","","","","","",""
"","time_out","","html-keyboard-response","25","325667","0.0-1.0-17.0-0.0","0","0","36695","","null","","","null","1","","","","","","","","","","","","","","","",""
"","ITI","","html-keyboard-response","26","326676","0.0-1.0-18.0","0","0","36695","","null","","","null","1","","","","","","","","","","","","","","","NaN",""
"","S1","","html-keyboard-response","27","326937","0.0-1.0-20.0","0","0","36695","","null","","","null","2","","","","","","","","","","","","","","","",""
"","ISI","","html-keyboard-response","28","327945","0.0-1.0-21.0","0","0","36695","","null","","","null","2","NaN","","","","","","","","","","","","","","",""
"","S2","","html-keyboard-response","29","328211","0.0-1.0-22.0","0","0","36695","","null","","","null","2","","NaN","","","","","","","","","","","","","",""
"","response","","html-keyboard-response","30","328812","0.0-1.0-23.0-0.0","0","0","36695","","596","","","75","2","","","1","2","training","adjacent","FG","6","7","N.jpg","R.jpg","1","1","1","",""
"","feedback","","html-keyboard-response","31","329827","0.0-1.0-24.0-0.0","0","0","36695","","null","","","null","2","","","","","","","","","","","","","","","",""
"","ITI","","html-keyboard-response","32","330841","0.0-1.0-27.0","0","0","36695","","null","","","null","2","","","","","","","","","","","","","","","NaN",""
"","S1","","html-keyboard-response","33","331103","0.0-1.0-29.0","0","0","36695","","null","","","null","3","","","","","","","","","","","","","","","",""
"","ISI","","html-keyboard-response","34","332115","0.0-1.0-30.0","0","0","36695","","null","","","null","3","NaN","","","","","","","","","","","","","","",""
"","S2","","html-keyboard-response","35","332377","0.0-1.0-31.0","0","0","36695","","null","","","null","3","","NaN","","","","","","","","","","","","","",""
"","response","","html-keyboard-response","36","333297","0.0-1.0-32.0-0.0","0","0","36695","","915","","","75","3","","","1","3","training","adjacent","BC","2","3","M.jpg","O.jpg","1","1","1","",""
"","feedback","","html-keyboard-response","37","334313","0.0-1.0-33.0-0.0","0","0","36695","","null","","","null","3","","","","","","","","","","","","","","","",""
"","ITI","","html-keyboard-response","38","335321","0.0-1.0-36.0","0","0","36695","","null","","","null","3","","","","","","","","","","","","","","","NaN",""
"","S1","","html-keyboard-response","39","335587","0.0-1.0-38.0","0","0","36695","","null","","","null","4","","","","","","","","","","","","","","","",""
"","ISI","","html-keyboard-response","40","336600","0.0-1.0-39.0","0","0","36695","","null","","","null","4","NaN","","","","","","","","","","","","","","",""
"","S2","","html-keyboard-response","41","336865","0.0-1.0-40.0","0","0","36695","","null","","","null","4","","NaN","","","","","","","","","","","","","",""
"","response","","html-keyboard-response","42","337556","0.0-1.0-41.0-0.0","0","0","36695","","686","","","75","4","","","1","4","training","adjacent","GF","7","6","R.jpg","N.jpg","1","0","0","",""
"","feedback","","html-keyboard-response","43","338568","0.0-1.0-42.0-0.0","0","0","36695","","null","","","null","4","","","","","","","","","","","","","","","",""
"","time_out","","html-keyboard-response","44","340579","0.0-1.0-44.0-0.0","0","0","36695","","null","","","null","4","","","","","","","","","","","","","","","",""
"","ITI","","html-keyboard-response","45","341593","0.0-1.0-45.0","0","0","36695","","null","","","null","4","","","","","","","","","","","","","","","NaN",""
"","S1","","html-keyboard-response","46","341859","0.0-1.0-47.0","0","0","36695","","null","","","null","5","","","","","","","","","","","","","","","",""
"","ISI","","html-keyboard-response","47","342872","0.0-1.0-48.0","0","0","36695","","null","","","null","5","NaN","","","","","","","","","","","","","","",""
"","S2","","html-keyboard-response","48","343138","0.0-1.0-49.0","0","0","36695","","null","","","null","5","","NaN","","","","","","","","","","","","","",""
"","response","","html-keyboard-response","49","344270","0.0-1.0-50.0-0.0","0","0","36695","","1128","","","68","5","","","1","5","training","adjacent","DC","4","3","L.jpg","O.jpg","0","0","1","",""
"","feedback","","html-keyboard-response","50","345283","0.0-1.0-51.0-0.0","0","0","36695","","null","","","null","5","","","","","","","","","","","","","","","",""
"","ITI","","html-keyboard-response","51","346296","0.0-1.0-54.0","0","0","36695","","null","","","null","5","","","","","","","","","","","","","","","NaN",""
"","S1","","html-keyboard-response","52","346563","0.0-1.0-56.0","0","0","36695","","null","","","null","6","","","","","","","","","","","","","","","",""
"","ISI","","html-keyboard-response","53","347576","0.0-1.0-57.0","0","0","36695","","null","","","null","6","NaN","","","","","","","","","","","","","","",""
"","S2","","html-keyboard-response","54","347843","0.0-1.0-58.0","0","0","36695","","null","","","null","6","","NaN","","","","","","","","","","","","","",""
"","response","","html-keyboard-response","55","348099","0.0-1.0-59.0-0.0","0","0","36695","","251","","","75","6","","","1","6","training","adjacent","EF","5","6","Q.jpg","N.jpg","1","1","1","",""
"","feedback","","html-keyboard-response","56","349112","0.0-1.0-60.0-0.0","0","0","36695","","null","","","null","6","","","","","","","","","","","","","","","",""
"","ITI","","html-keyboard-response","57","350120","0.0-1.0-63.0","0","0","36695","","null","","","null","6","","","","","","","","","","","","","","","NaN",""
"","S1","","html-keyboard-response","58","350387","0.0-1.0-65.0","0","0","36695","","null","","","null","7","","","","","","","","","","","","","","","",""
"","ISI","","html-keyboard-response","59","351400","0.0-1.0-66.0","0","0","36695","","null","","","null","7","NaN","","","","","","","","","","","","","","",""
"","S2","","html-keyboard-response","60","351667","0.0-1.0-67.0","0","0","36695","","null","","","null","7","","NaN","","","","","","","","","","","","","",""
"","response","","html-keyboard-response","61","352236","0.0-1.0-68.0-0.0","0","0","36695","","565","","","75","7","","","1","7","training","adjacent","EF","5","6","Q.jpg","N.jpg","1","1","1","",""
"","feedback","","html-keyboard-response","62","353251","0.0-1.0-69.0-0.0","0","0","36695","","null","","","null","7","","","","","","","","","","","","","","","",""
"","ITI","","html-keyboard-response","63","354264","0.0-1.0-72.0","0","0","36695","","null","","","null","7","","","","","","","","","","","","","","","NaN",""
"","S1","","html-keyboard-response","64","354527","0.0-1.0-74.0","0","0","36695","","null","","","null","8","","","","","","","","","","","","","","","",""
"","ISI","","html-keyboard-response","65","355539","0.0-1.0-75.0","0","0","36695","","null","","","null","8","NaN","","","","","","","","","","","","","","",""
"","S2","","html-keyboard-response","66","355800","0.0-1.0-76.0","0","0","36695","","null","","","null","8","","NaN","","","","","","","","","","","","","",""
"","response","","html-keyboard-response","67","356282","0.0-1.0-77.0-0.0","0","0","36695","","477","","","75","8","","","1","8","training","adjacent","FG","6","7","N.jpg","R.jpg","1","1","1","",""
"","feedback","","html-keyboard-response","68","357299","0.0-1.0-78.0-0.0","0","0","36695","","null","","","null","8","","","","","","","","","","","","","","","",""
"","ITI","","html-keyboard-response","69","358312","0.0-1.0-81.0","0","0","36695","","null","","","null","8","","","","","","","","","","","","","","","NaN",""
"","S1","","html-keyboard-response","70","358578","0.0-1.0-83.0","0","0","36695","","null","","","null","9","","","","","","","","","","","","","","","",""
"","ISI","","html-keyboard-response","71","359592","0.0-1.0-84.0","0","0","36695","","null","","","null","9","NaN","","","","","","","","","","","","","","",""
"","S2","","html-keyboard-response","72","359858","0.0-1.0-85.0","0","0","36695","","null","","","null","9","","NaN","","","","","","","","","","","","","",""
"","response","","html-keyboard-response","73","361269","0.0-1.0-86.0-0.0","0","0","36695","","1406","","","68","9","","","1","9","training","adjacent","CD","3","4","O.jpg","L.jpg","0","1","0","",""
"","feedback","","html-keyboard-response","74","362280","0.0-1.0-87.0-0.0","0","0","36695","","null","","","null","9","","","","","","","","","","","","","","","",""
"","time_out","","html-keyboard-response","75","364288","0.0-1.0-89.0-0.0","0","0","36695","","null","","","null","9","","","","","","","","","","","","","","","",""
"","ITI","","html-keyboard-response","76","365304","0.0-1.0-90.0","0","0","36695","","null","","","null","9","","","","","","","","","","","","","","","NaN",""
"","S1","","html-keyboard-response","77","365571","0.0-1.0-92.0","0","0","36695","","null","","","null","10","","","","","","","","","","","","","","","",""
"","ISI","","html-keyboard-response","78","366584","0.0-1.0-93.0","0","0","36695","","null","","","null","10","NaN","","","","","","","","","","","","","","",""
"","S2","","html-keyboard-response","79","366848","0.0-1.0-94.0","0","0","36695","","null","","","null","10","","NaN","","","","","","","","","","","","","",""
"","response","","html-keyboard-response","80","367186","0.0-1.0-95.0-0.0","0","0","36695","","332","","","75","10","","","1","10","training","adjacent","DC","4","3","L.jpg","O.jpg","1","0","0","",""
"","feedback","","html-keyboard-response","81","368200","0.0-1.0-96.0-0.0","0","0","36695","","null","","","null","10","","","","","","","","","","","","","","","",""
"","time_out","","html-keyboard-response","82","370210","0.0-1.0-98.0-0.0","0","0","36695","","null","","","null","10","","","","","","","","","","","","","","","",""
"","ITI","","html-keyboard-response","83","371225","0.0-1.0-99.0","0","0","36695","","null","","","null","10","","","","","","","","","","","","","","","NaN",""
"","S1","","html-keyboard-response","84","371490","0.0-1.0-101.0","0","0","36695","","null","","","null","11","","","","","","","","","","","","","","","",""
"","ISI","","html-keyboard-response","85","372504","0.0-1.0-102.0","0","0","36695","","null","","","null","11","NaN","","","","","","","","","","","","","","",""
"","S2","","html-keyboard-response","86","372770","0.0-1.0-103.0","0","0","36695","","null","","","null","11","","NaN","","","","","","","","","","","","","",""
"","response","","html-keyboard-response","87","373685","0.0-1.0-104.0-0.0","0","0","36695","","909","","","68","11","","","1","11","training","adjacent","AB","1","2","P.jpg","M.jpg","0","1","0","",""
"","feedback","","html-keyboard-response","88","374696","0.0-1.0-105.0-0.0","0","0","36695","","null","","","null","11","","","","","","","","","","","","","","","",""
"","time_out","","html-keyboard-response","89","376702","0.0-1.0-107.0-0.0","0","0","36695","","null","","","null","11","","","","","","","","","","","","","","","",""
"","ITI","","html-keyboard-response","90","377714","0.0-1.0-108.0","0","0","36695","","null","","","null","11","","","","","","","","","","","","","","","NaN",""
"","S1","","html-keyboard-response","91","377976","0.0-1.0-110.0","0","0","36695","","null","","","null","12","","","","","","","","","","","","","","","",""
"","ISI","","html-keyboard-response","92","378984","0.0-1.0-111.0","0","0","36695","","null","","","null","12","NaN","","","","","","","","","","","","","","",""
"","S2","","html-keyboard-response","93","379250","0.0-1.0-112.0","0","0","36695","","null","","","null","12","","NaN","","","","","","","","","","","","","",""
"","response","","html-keyboard-response","94","379676","0.0-1.0-113.0-0.0","0","0","36695","","420","","","75","12","","","1","12","training","adjacent","BA","2","1","M.jpg","P.jpg","1","0","0","",""
"","feedback","","html-keyboard-response","95","380690","0.0-1.0-114.0-0.0","0","0","36695","","null","","","null","12","","","","","","","","","","","","","","","",""
"","time_out","","html-keyboard-response","96","382706","0.0-1.0-116.0-0.0","0","0","36695","","null","","","null","12","","","","","","","","","","","","","","","",""
"","ITI","","html-keyboard-response","97","383720","0.0-1.0-117.0","0","0","36695","","null","","","null","12","","","","","","","","","","","","","","","NaN",""
"","S1","","html-keyboard-response","98","383986","0.0-1.0-119.0","0","0","36695","","null","","","null","13","","","","","","","","","","","","","","","",""
"","ISI","","html-keyboard-response","99","385000","0.0-1.0-120.0","0","0","36695","","null","","","null","13","NaN","","","","","","","","","","","","","","",""
"","S2","","html-keyboard-response","100","385266","0.0-1.0-121.0","0","0","36695","","null","","","null","13","","NaN","","","","","","","","","","","","","",""
"","response","","html-keyboard-response","101","385756","0.0-1.0-122.0-0.0","0","0","36695","","485","","","75","13","","","1","13","training","adjacent","CD","3","4","O.jpg","L.jpg","1","1","1","",""
"","feedback","","html-keyboard-response","102","386766","0.0-1.0-123.0-0.0","0","0","36695","","null","","","null","13","","","","","","","","","","","","","","","",""
"","ITI","","html-keyboard-response","103","387776","0.0-1.0-126.0","0","0","36695","","null","","","null","13","","","","","","","","","","","","","","","NaN",""
"","S1","","html-keyboard-response","104","388039","0.0-1.0-128.0","0","0","36695","","null","","","null","14","","","","","","","","","","","","","","","",""
"","ISI","","html-keyboard-response","105","389047","0.0-1.0-129.0","0","0","36695","","null","","","null","14","NaN","","","","","","","","","","","","","","",""
"","S2","","html-keyboard-response","106","389314","0.0-1.0-130.0","0","0","36695","","null","","","null","14","","NaN","","","","","","","","","","","","","",""
"","response","","html-keyboard-response","107","389559","0.0-1.0-131.0-0.0","0","0","36695","","240","","","75","14","","","1","14","training","adjacent","DE","4","5","L.jpg","Q.jpg","1","1","1","",""
"","feedback","","html-keyboard-response","108","390568","0.0-1.0-132.0-0.0","0","0","36695","","null","","","null","14","","","","","","","","","","","","","","","",""
"","ITI","","html-keyboard-response","109","391575","0.0-1.0-135.0","0","0","36695","","null","","","null","14","","","","","","","","","","","","","","","NaN",""
"","S1","","html-keyboard-response","110","391842","0.0-1.0-137.0","0","0","36695","","null","","","null","15","","","","","","","","","","","","","","","",""
"","ISI","","html-keyboard-response","111","392855","0.0-1.0-138.0","0","0","36695","","null","","","null","15","NaN","","","","","","","","","","","","","","",""
"","S2","","html-keyboard-response","112","393122","0.0-1.0-139.0","0","0","36695","","null","","","null","15","","NaN","","","","","","","","","","","","","",""
"","response","","html-keyboard-response","113","393368","0.0-1.0-140.0-0.0","0","0","36695","","241","","","75","15","","","1","15","training","adjacent","DC","4","3","L.jpg","O.jpg","1","0","0","",""
"","feedback","","html-keyboard-response","114","394386","0.0-1.0-141.0-0.0","0","0","36695","","null","","","null","15","","","","","","","","","","","","","","","",""
"","time_out","","html-keyboard-response","115","396402","0.0-1.0-143.0-0.0","0","0","36695","","null","","","null","15","","","","","","","","","","","","","","","",""
"","ITI","","html-keyboard-response","116","397417","0.0-1.0-144.0","0","0","36695","","null","","","null","15","","","","","","","","","","","","","","","NaN",""
"","S1","","html-keyboard-response","117","397682","0.0-1.0-146.0","0","0","36695","","null","","","null","16","","","","","","","","","","","","","","","",""
"","ISI","","html-keyboard-response","118","398695","0.0-1.0-147.0","0","0","36695","","null","","","null","16","NaN","","","","","","","","","","","","","","",""
"","S2","","html-keyboard-response","119","398962","0.0-1.0-148.0","0","0","36695","","null","","","null","16","","NaN","","","","","","","","","","","","","",""
"","response","","html-keyboard-response","120","399486","0.0-1.0-149.0-0.0","0","0","36695","","520","","","75","16","","","1","16","training","adjacent","FE","6","5","N.jpg","Q.jpg","1","0","0","",""
"","feedback","","html-keyboard-response","121","400494","0.0-1.0-150.0-0.0","0","0","36695","","null","","","null","16","","","","","","","","","","","","","","","",""
"","time_out","","html-keyboard-response","122","402503","0.0-1.0-152.0-0.0","0","0","36695","","null","","","null","16","","","","","","","","","","","","","","","",""
"","ITI","","html-keyboard-response","123","403511","0.0-1.0-153.0","0","0","36695","","null","","","null","16","","","","","","","","","","","","","","","NaN",""
"","S1","","html-keyboard-response","124","403778","0.0-1.0-155.0","0","0","36695","","null","","","null","17","","","","","","","","","","","","","","","",""
"","ISI","","html-keyboard-response","125","404791","0.0-1.0-156.0","0","0","36695","","null","","","null","17","NaN","","","","","","","","","","","","","","",""
"","S2","","html-keyboard-response","126","405057","0.0-1.0-157.0","0","0","36695","","null","","","null","17","","NaN","","","","","","","","","","","","","",""
"","response","","html-keyboard-response","127","405456","0.0-1.0-158.0-0.0","0","0","36695","","394","","","75","17","","","1","17","training","adjacent","DC","4","3","L.jpg","O.jpg","1","0","0","",""
"","feedback","","html-keyboard-response","128","406469","0.0-1.0-159.0-0.0","0","0","36695","","null","","","null","17","","","","","","","","","","","","","","","",""
"","time_out","","html-keyboard-response","129","408482","0.0-1.0-161.0-0.0","0","0","36695","","null","","","null","17","","","","","","","","","","","","","","","",""
"","ITI","","html-keyboard-response","130","409495","0.0-1.0-162.0","0","0","36695","","null","","","null","17","","","","","","","","","","","","","","","NaN",""
"","S1","","html-keyboard-response","131","409760","0.0-1.0-164.0","0","0","36695","","null","","","null","18","","","","","","","","","","","","","","","",""
"","ISI","","html-keyboard-response","132","410775","0.0-1.0-165.0","0","0","36695","","null","","","null","18","NaN","","","","","","","","","","","","","","",""
"","S2","","html-keyboard-response","133","411042","0.0-1.0-166.0","0","0","36695","","null","","","null","18","","NaN","","","","","","","","","","","","","",""
"","response","","html-keyboard-response","134","411794","0.0-1.0-167.0-0.0","0","0","36695","","747","","","68","18","","","1","18","training","adjacent","GF","7","6","R.jpg","N.jpg","0","0","1","",""
"","feedback","","html-keyboard-response","135","412807","0.0-1.0-168.0-0.0","0","0","36695","","null","","","null","18","","","","","","","","","","","","","","","",""
"","ITI","","html-keyboard-response","136","413815","0.0-1.0-171.0","0","0","36695","","null","","","null","18","","","","","","","","","","","","","","","NaN",""
"","S1","","html-keyboard-response","137","414081","0.0-1.0-173.0","0","0","36695","","null","","","null","19","","","","","","","","","","","","","","","",""
"","ISI","","html-keyboard-response","138","415095","0.0-1.0-174.0","0","0","36695","","null","","","null","19","NaN","","","","","","","","","","","","","","",""
"","S2","","html-keyboard-response","139","415361","0.0-1.0-175.0","0","0","36695","","null","","","null","19","","NaN","","","","","","","","","","","","","",""
"","response","","html-keyboard-response","140","416219","0.0-1.0-176.0-0.0","0","0","36695","","853","","","68","19","","","1","19","training","adjacent","ED","5","4","Q.jpg","L.jpg","0","0","1","",""
"","feedback","","html-keyboard-response","141","417233","0.0-1.0-177.0-0.0","0","0","36695","","null","","","null","19","","","","","","","","","","","","","","","",""
"","ITI","","html-keyboard-response","142","418247","0.0-1.0-180.0","0","0","36695","","null","","","null","19","","","","","","","","","","","","","","","NaN",""
"","S1","","html-keyboard-response","143","418513","0.0-1.0-182.0","0","0","36695","","null","","","null","20","","","","","","","","","","","","","","","",""
"","ISI","","html-keyboard-response","144","419527","0.0-1.0-183.0","0","0","36695","","null","","","null","20","NaN","","","","","","","","","","","","","","",""
"","S2","","html-keyboard-response","145","419793","0.0-1.0-184.0","0","0","36695","","null","","","null","20","","NaN","","","","","","","","","","","","","",""
"","response","","html-keyboard-response","146","420405","0.0-1.0-185.0-0.0","0","0","36695","","607","","","75","20","","","1","20","training","adjacent","FE","6","5","N.jpg","Q.jpg","1","0","0","",""
"","feedback","","html-keyboard-response","147","421416","0.0-1.0-186.0-0.0","0","0","36695","","null","","","null","20","","","","","","","","","","","","","","","",""
"","time_out","","html-keyboard-response","148","423431","0.0-1.0-188.0-0.0","0","0","36695","","null","","","null","20","","","","","","","","","","","","","","","",""
"","ITI","","html-keyboard-response","149","424441","0.0-1.0-189.0","0","0","36695","","null","","","null","20","","","","","","","","","","","","","","","NaN",""
"","S1","","html-keyboard-response","150","424705","0.0-1.0-191.0","0","0","36695","","null","","","null","21","","","","","","","","","","","","","","","",""
"","ISI","","html-keyboard-response","151","425718","0.0-1.0-192.0","0","0","36695","","null","","","null","21","NaN","","","","","","","","","","","","","","",""
"","S2","","html-keyboard-response","152","425985","0.0-1.0-193.0","0","0","36695","","null","","","null","21","","NaN","","","","","","","","","","","","","",""
"","response","","html-keyboard-response","153","427356","0.0-1.0-194.0-0.0","0","0","36695","","1366","","","68","21","","","1","21","training","adjacent","CB","3","2","O.jpg","M.jpg","0","0","1","",""
"","feedback","","html-keyboard-response","154","428365","0.0-1.0-195.0-0.0","0","0","36695","","null","","","null","21","","","","","","","","","","","","","","","",""
"","ITI","","html-keyboard-response","155","429377","0.0-1.0-198.0","0","0","36695","","null","","","null","21","","","","","","","","","","","","","","","NaN",""
"","S1","","html-keyboard-response","156","429638","0.0-1.0-200.0","0","0","36695","","null","","","null","22","","","","","","","","","","","","","","","",""
"","ISI","","html-keyboard-response","157","430647","0.0-1.0-201.0","0","0","36695","","null","","","null","22","NaN","","","","","","","","","","","","","","",""
"","S2","","html-keyboard-response","158","430913","0.0-1.0-202.0","0","0","36695","","null","","","null","22","","NaN","","","","","","","","","","","","","",""
"","response","","html-keyboard-response","159","431791","0.0-1.0-203.0-0.0","0","0","36695","","872","","","68","22","","","1","22","training","adjacent","GF","7","6","R.jpg","N.jpg","0","0","1","",""
"","feedback","","html-keyboard-response","160","432807","0.0-1.0-204.0-0.0","0","0","36695","","null","","","null","22","","","","","","","","","","","","","","","",""
"","ITI","","html-keyboard-response","161","433814","0.0-1.0-207.0","0","0","36695","","null","","","null","22","","","","","","","","","","","","","","","NaN",""
"","S1","","html-keyboard-response","162","434081","0.0-1.0-209.0","0","0","36695","","null","","","null","23","","","","","","","","","","","","","","","",""
"","ISI","","html-keyboard-response","163","435094","0.0-1.0-210.0","0","0","36695","","null","","","null","23","NaN","","","","","","","","","","","","","","",""
"","S2","","html-keyboard-response","164","435361","0.0-1.0-211.0","0","0","36695","","null","","","null","23","","NaN","","","","","","","","","","","","","",""
"","response","","html-keyboard-response","165","436581","0.0-1.0-212.0-0.0","0","0","36695","","1215","","","68","23","","","1","23","training","adjacent","CD","3","4","O.jpg","L.jpg","0","1","0","",""
"","feedback","","html-keyboard-response","166","437590","0.0-1.0-213.0-0.0","0","0","36695","","null","","","null","23","","","","","","","","","","","","","","","",""
"","time_out","","html-keyboard-response","167","439597","0.0-1.0-215.0-0.0","0","0","36695","","null","","","null","23","","","","","","","","","","","","","","","",""
"","ITI","","html-keyboard-response","168","440607","0.0-1.0-216.0","0","0","36695","","null","","","null","23","","","","","","","","","","","","","","","NaN",""
"","S1","","html-keyboard-response","169","440870","0.0-1.0-218.0","0","0","36695","","null","","","null","24","","","","","","","","","","","","","","","",""
"","ISI","","html-keyboard-response","170","441878","0.0-1.0-219.0","0","0","36695","","null","","","null","24","NaN","","","","","","","","","","","","","","",""
"","S2","","html-keyboard-response","171","442125","0.0-1.0-220.0","0","0","36695","","241","","","75","24","","k","1","24","training","adjacent","FE","6","5","N.jpg","Q.jpg","1","0","0","",""
"","feedback","","html-keyboard-response","172","443133","0.0-1.0-222.0-0.0","0","0","36695","","null","","","null","24","","","","","","","","","","","","","","","",""
"","time_out","","html-keyboard-response","173","445142","0.0-1.0-224.0-0.0","0","0","36695","","null","","","null","24","","","","","","","","","","","","","","","",""
"","ITI","","html-keyboard-response","174","446161","0.0-1.0-225.0","0","0","36695","","null","","","null","24","","","","","","","","","","","","","","","NaN",""
"","S1","","html-keyboard-response","175","446422","0.0-1.0-227.0","0","0","36695","","null","","","null","25","","","","","","","","","","","","","","","",""
"","ISI","","html-keyboard-response","176","447430","0.0-1.0-228.0","0","0","36695","","null","","","null","25","NaN","","","","","","","","","","","","","","",""
"","S2","","html-keyboard-response","177","447695","0.0-1.0-229.0","0","0","36695","","null","","","null","25","","NaN","","","","","","","","","","","","","",""
"","response","","html-keyboard-response","178","448015","0.0-1.0-230.0-0.0","0","0","36695","","315","","","75","25","","","1","25","training","adjacent","AB","1","2","P.jpg","M.jpg","1","1","1","",""
"","feedback","","html-keyboard-response","179","449030","0.0-1.0-231.0-0.0","0","0","36695","","null","","","null","25","","","","","","","","","","","","","","","",""
"","ITI","","html-keyboard-response","180","450038","0.0-1.0-234.0","0","0","36695","","null","","","null","25","","","","","","","","","","","","","","","NaN",""
"","S1","","html-keyboard-response","181","450305","0.0-1.0-236.0","0","0","36695","","null","","","null","26","","","","","","","","","","","","","","","",""
"","ISI","","html-keyboard-response","182","451318","0.0-1.0-237.0","0","0","36695","","null","","","null","26","NaN","","","","","","","","","","","","","","",""
"","S2","","html-keyboard-response","183","451584","0.0-1.0-238.0","0","0","36695","","null","","","null","26","","NaN","","","","","","","","","","","","","",""
"","response","","html-keyboard-response","184","451784","0.0-1.0-239.0-0.0","0","0","36695","","195","","","75","26","","","1","26","training","adjacent","BC","2","3","M.jpg","O.jpg","1","1","1","",""
"","feedback","","html-keyboard-response","185","452801","0.0-1.0-240.0-0.0","0","0","36695","","null","","","null","26","","","","","","","","","","","","","","","",""
"","ITI","","html-keyboard-response","186","453814","0.0-1.0-243.0","0","0","36695","","null","","","null","26","","","","","","","","","","","","","","","NaN",""
"","S1","","html-keyboard-response","187","454081","0.0-1.0-245.0","0","0","36695","","null","","","null","27","","","","","","","","","","","","","","","",""
"","ISI","","html-keyboard-response","188","455094","0.0-1.0-246.0","0","0","36695","","null","","","null","27","NaN","","","","","","","","","","","","","","",""
"","S2","","html-keyboard-response","189","455361","0.0-1.0-247.0","0","0","36695","","null","","","null","27","","NaN","","","","","","","","","","","","","",""
"","response","","html-keyboard-response","190","455524","0.0-1.0-248.0-0.0","0","0","36695","","158","","","75","27","","","1","27","training","adjacent","GF","7","6","R.jpg","N.jpg","1","0","0","",""
"","feedback","","html-keyboard-response","191","456534","0.0-1.0-249.0-0.0","0","0","36695","","null","","","null","27","","","","","","","","","","","","","","","",""
"","time_out","","html-keyboard-response","192","458545","0.0-1.0-251.0-0.0","0","0","36695","","null","","","null","27","","","","","","","","","","","","","","","",""
"","ITI","","html-keyboard-response","193","459558","0.0-1.0-252.0","0","0","36695","","null","","","null","27","","","","","","","","","","","","","","","NaN",""
"","S1","","html-keyboard-response","194","459824","0.0-1.0-254.0","0","0","36695","","null","","","null","28","","","","","","","","","","","","","","","",""
"","ISI","","html-keyboard-response","195","460838","0.0-1.0-255.0","0","0","36695","","null","","","null","28","NaN","","","","","","","","","","","","","","",""
"","S2","","html-keyboard-response","196","461105","0.0-1.0-256.0","0","0","36695","","null","","","null","28","","NaN","","","","","","","","","","","","","",""
"","response","","html-keyboard-response","197","462073","0.0-1.0-257.0-0.0","0","0","36695","","963","","","75","28","","","1","28","training","adjacent","DE","4","5","L.jpg","Q.jpg","1","1","1","",""
"","feedback","","html-keyboard-response","198","463088","0.0-1.0-258.0-0.0","0","0","36695","","null","","","null","28","","","","","","","","","","","","","","","",""
"","ITI","","html-keyboard-response","199","464102","0.0-1.0-261.0","0","0","36695","","null","","","null","28","","","","","","","","","","","","","","","NaN",""
"","S1","","html-keyboard-response","200","464365","0.0-1.0-263.0","0","0","36695","","null","","","null","29","","","","","","","","","","","","","","","",""
"","ISI","","html-keyboard-response","201","465376","0.0-1.0-264.0","0","0","36695","","null","","","null","29","NaN","","","","","","","","","","","","","","",""
"","S2","","html-keyboard-response","202","465638","0.0-1.0-265.0","0","0","36695","","null","","","null","29","","NaN","","","","","","","","","","","","","",""
"","response","","html-keyboard-response","203","465990","0.0-1.0-266.0-0.0","0","0","36695","","347","","","75","29","","","1","29","training","adjacent","DE","4","5","L.jpg","Q.jpg","1","1","1","",""
"","feedback","","html-keyboard-response","204","467008","0.0-1.0-267.0-0.0","0","0","36695","","null","","","null","29","","","","","","","","","","","","","","","",""
"","ITI","","html-keyboard-response","205","468022","0.0-1.0-270.0","0","0","36695","","null","","","null","29","","","","","","","","","","","","","","","NaN",""
"","S1","","html-keyboard-response","206","468288","0.0-1.0-272.0","0","0","36695","","null","","","null","30","","","","","","","","","","","","","","","",""
"","ISI","","html-keyboard-response","207","469302","0.0-1.0-273.0","0","0","36695","","null","","","null","30","NaN","","","","","","","","","","","","","","",""
"","S2","","html-keyboard-response","208","469568","0.0-1.0-274.0","0","0","36695","","null","","","null","30","","NaN","","","","","","","","","","","","","",""
"","response","","html-keyboard-response","209","471173","0.0-1.0-275.0-0.0","0","0","36695","","1599","","","68","30","","","1","30","training","adjacent","DE","4","5","L.jpg","Q.jpg","0","1","0","",""
"","feedback","","html-keyboard-response","210","472182","0.0-1.0-276.0-0.0","0","0","36695","","null","","","null","30","","","","","","","","","","","","","","","",""
"","time_out","","html-keyboard-response","211","474192","0.0-1.0-278.0-0.0","0","0","36695","","null","","","null","30","","","","","","","","","","","","","","","",""
"","ITI","","html-keyboard-response","212","475205","0.0-1.0-279.0","0","0","36695","","null","","","null","30","","","","","","","","","","","","","","","NaN",""
"","S1","","html-keyboard-response","213","475472","0.0-1.0-281.0","0","0","36695","","null","","","null","31","","","","","","","","","","","","","","","",""
"","ISI","","html-keyboard-response","214","476485","0.0-1.0-282.0","0","0","36695","","null","","","null","31","NaN","","","","","","","","","","","","","","",""
"","S2","","html-keyboard-response","215","476750","0.0-1.0-283.0","0","0","36695","","null","","","null","31","","NaN","","","","","","","","","","","","","",""
"","response","","html-keyboard-response","216","477285","0.0-1.0-284.0-0.0","0","0","36695","","530","","","75","31","","","1","31","training","adjacent","BA","2","1","M.jpg","P.jpg","1","0","0","",""
"","feedback","","html-keyboard-response","217","478294","0.0-1.0-285.0-0.0","0","0","36695","","null","","","null","31","","","","","","","","","","","","","","","",""
"","time_out","","html-keyboard-response","218","480309","0.0-1.0-287.0-0.0","0","0","36695","","null","","","null","31","","","","","","","","","","","","","","","",""
"","ITI","","html-keyboard-response","219","481318","0.0-1.0-288.0","0","0","36695","","null","","","null","31","","","","","","","","","","","","","","","NaN",""
"","S1","","html-keyboard-response","220","481584","0.0-1.0-290.0","0","0","36695","","null","","","null","32","","","","","","","","","","","","","","","",""
"","ISI","","html-keyboard-response","221","482597","0.0-1.0-291.0","0","0","36695","","null","","","null","32","NaN","","","","","","","","","","","","","","",""
"","S2","","html-keyboard-response","222","482860","0.0-1.0-292.0","0","0","36695","","null","","","null","32","","NaN","","","","","","","","","","","","","",""
"","response","","html-keyboard-response","223","483719","0.0-1.0-293.0-0.0","0","0","36695","","854","","","68","32","","","1","32","training","adjacent","BC","2","3","M.jpg","O.jpg","0","1","0","",""
"","feedback","","html-keyboard-response","224","484732","0.0-1.0-294.0-0.0","0","0","36695","","null","","","null","32","","","","","","","","","","","","","","","",""
"","time_out","","html-keyboard-response","225","486741","0.0-1.0-296.0-0.0","0","0","36695","","null","","","null","32","","","","","","","","","","","","","","","",""
"","ITI","","html-keyboard-response","226","487760","0.0-1.0-297.0","0","0","36695","","null","","","null","32","","","","","","","","","","","","","","","NaN",""
"","S1","","html-keyboard-response","227","488021","0.0-1.0-299.0","0","0","36695","","null","","","null","33","","","","","","","","","","","","","","","",""
"","ISI","","html-keyboard-response","228","489029","0.0-1.0-300.0","0","0","36695","","null","","","null","33","NaN","","","","","","","","","","","","","","",""
"","S2","","html-keyboard-response","229","489296","0.0-1.0-301.0","0","0","36695","","null","","","null","33","","NaN","","","","","","","","","","","","","",""
"","response","","html-keyboard-response","230","489568","0.0-1.0-302.0-0.0","0","0","36695","","267","","","75","33","","","1","33","training","adjacent","CB","3","2","O.jpg","M.jpg","1","0","0","",""
"","feedback","","html-keyboard-response","231","490581","0.0-1.0-303.0-0.0","0","0","36695","","null","","","null","33","","","","","","","","","","","","","","","",""
"","time_out","","html-keyboard-response","232","492591","0.0-1.0-305.0-0.0","0","0","36695","","null","","","null","33","","","","","","","","","","","","","","","",""
"","ITI","","html-keyboard-response","233","493605","0.0-1.0-306.0","0","0","36695","","null","","","null","33","","","","","","","","","","","","","","","NaN",""
"","S1","","html-keyboard-response","234","493872","0.0-1.0-308.0","0","0","36695","","null","","","null","34","","","","","","","","","","","","","","","",""
"","ISI","","html-keyboard-response","235","494884","0.0-1.0-309.0","0","0","36695","","null","","","null","34","NaN","","","","","","","","","","","","","","",""
"","S2","","html-keyboard-response","236","495152","0.0-1.0-310.0","0","0","36695","","null","","","null","34","","NaN","","","","","","","","","","","","","",""
"","response","","html-keyboard-response","237","495836","0.0-1.0-311.0-0.0","0","0","36695","","679","","","75","34","","","1","34","training","adjacent","FG","6","7","N.jpg","R.jpg","1","1","1","",""
"","feedback","","html-keyboard-response","238","496848","0.0-1.0-312.0-0.0","0","0","36695","","null","","","null","34","","","","","","","","","","","","","","","",""
"","ITI","","html-keyboard-response","239","497861","0.0-1.0-315.0","0","0","36695","","null","","","null","34","","","","","","","","","","","","","","","NaN",""
"","S1","","html-keyboard-response","240","498124","0.0-1.0-317.0","0","0","36695","","null","","","null","35","","","","","","","","","","","","","","","",""
"","ISI","","html-keyboard-response","241","499133","0.0-1.0-318.0","0","0","36695","","null","","","null","35","NaN","","","","","","","","","","","","","","",""
"","S2","","html-keyboard-response","242","499397","0.0-1.0-319.0","0","0","36695","","null","","","null","35","","NaN","","","","","","","","","","","","","",""
"","response","","html-keyboard-response","243","499897","0.0-1.0-320.0-0.0","0","0","36695","","495","","","75","35","","","1","35","training","adjacent","BC","2","3","M.jpg","O.jpg","1","1","1","",""
"","feedback","","html-keyboard-response","244","500912","0.0-1.0-321.0-0.0","0","0","36695","","null","","","null","35","","","","","","","","","","","","","","","",""
"","ITI","","html-keyboard-response","245","501925","0.0-1.0-324.0","0","0","36695","","null","","","null","35","","","","","","","","","","","","","","","NaN",""
"","S1","","html-keyboard-response","246","502191","0.0-1.0-326.0","0","0","36695","","null","","","null","36","","","","","","","","","","","","","","","",""
"","ISI","","html-keyboard-response","247","503205","0.0-1.0-327.0","0","0","36695","","null","","","null","36","NaN","","","","","","","","","","","","","","",""
"","S2","","html-keyboard-response","248","503471","0.0-1.0-328.0","0","0","36695","","null","","","null","36","","NaN","","","","","","","","","","","","","",""
"","response","","html-keyboard-response","249","504380","0.0-1.0-329.0-0.0","0","0","36695","","904","","","68","36","","","1","36","training","adjacent","AB","1","2","P.jpg","M.jpg","0","1","0","",""
"","feedback","","html-keyboard-response","250","505387","0.0-1.0-330.0-0.0","0","0","36695","","null","","","null","36","","","","","","","","","","","","","","","",""
"","time_out","","html-keyboard-response","251","507395","0.0-1.0-332.0-0.0","0","0","36695","","null","","","null","36","","","","","","","","","","","","","","","",""
"","ITI","","html-keyboard-response","252","508405","0.0-1.0-333.0","0","0","36695","","null","","","null","36","","","","","","","","","","","","","","","NaN",""
"","S1","","html-keyboard-response","253","508671","0.0-1.0-335.0","0","0","36695","","null","","","null","37","","","","","","","","","","","","","","","",""
"","ISI","","html-keyboard-response","254","509684","0.0-1.0-336.0","0","0","36695","","null","","","null","37","NaN","","","","","","","","","","","","","","",""
"","S2","","html-keyboard-response","255","509949","0.0-1.0-337.0","0","0","36695","","null","","","null","37","","NaN","","","","","","","","","","","","","",""
"","response","","html-keyboard-response","256","510058","0.0-1.0-338.0-0.0","0","0","36695","","104","","","75","37","","","1","37","training","adjacent","ED","5","4","Q.jpg","L.jpg","1","0","0","",""
"","feedback","","html-keyboard-response","257","511071","0.0-1.0-339.0-0.0","0","0","36695","","null","","","null","37","","","","","","","","","","","","","","","",""
"","time_out","","html-keyboard-response","258","513087","0.0-1.0-341.0-0.0","0","0","36695","","null","","","null","37","","","","","","","","","","","","","","","",""
"","ITI","","html-keyboard-response","259","514101","0.0-1.0-342.0","0","0","36695","","null","","","null","37","","","","","","","","","","","","","","","NaN",""
"","S1","","html-keyboard-response","260","514363","0.0-1.0-344.0","0","0","36695","","null","","","null","38","","","","","","","","","","","","","","","",""
"","ISI","","html-keyboard-response","261","515373","0.0-1.0-345.0","0","0","36695","","null","","","null","38","NaN","","","","","","","","","","","","","","",""
"","S2","","html-keyboard-response","262","515637","0.0-1.0-346.0","0","0","36695","","null","","","null","38","","NaN","","","","","","","","","","","","","",""
"","response","","html-keyboard-response","263","516541","0.0-1.0-347.0-0.0","0","0","36695","","898","","","68","38","","","1","38","training","adjacent","EF","5","6","Q.jpg","N.jpg","0","1","0","",""
"","feedback","","html-keyboard-response","264","517556","0.0-1.0-348.0-0.0","0","0","36695","","null","","","null","38","","","","","","","","","","","","","","","",""
"","time_out","","html-keyboard-response","265","519567","0.0-1.0-350.0-0.0","0","0","36695","","null","","","null","38","","","","","","","","","","","","","","","",""
"","ITI","","html-keyboard-response","266","520580","0.0-1.0-351.0","0","0","36695","","null","","","null","38","","","","","","","","","","","","","","","NaN",""
"","S1","","html-keyboard-response","267","520847","0.0-1.0-353.0","0","0","36695","","null","","","null","39","","","","","","","","","","","","","","","",""
"","ISI","","html-keyboard-response","268","521862","0.0-1.0-354.0","0","0","36695","","null","","","null","39","NaN","","","","","","","","","","","","","","",""
"","S2","","html-keyboard-response","269","522127","0.0-1.0-355.0","0","0","36695","","null","","","null","39","","NaN","","","","","","","","","","","","","",""
"","response","","html-keyboard-response","270","523892","0.0-1.0-356.0-0.0","0","0","36695","","null","","","null","39","","","1","39","training","adjacent","BA","2","1","M.jpg","P.jpg","NaN","0","0","",""
"","too_slow_prompt","","html-keyboard-response","271","524900","0.0-1.0-358.0-0.0","1","0","36695","","null","","","null","","","","","","","","","","","","","","","","",""
"","time_out","","html-keyboard-response","272","526911","0.0-1.0-359.0-0.0","0","0","36695","","null","","","null","39","","","","","","","","","","","","","","","",""
"","ITI","","html-keyboard-response","273","527925","0.0-1.0-360.0","0","0","36695","","null","","","null","39","","","","","","","","","","","","","","","NaN",""
"","S1","","html-keyboard-response","274","528191","0.0-1.0-362.0","0","0","36695","","null","","","null","40","","","","","","","","","","","","","","","",""
"","ISI","","html-keyboard-response","275","529204","0.0-1.0-363.0","0","0","36695","","null","","","null","40","NaN","","","","","","","","","","","","","","",""
"","S2","","html-keyboard-response","276","529468","0.0-1.0-364.0","0","0","36695","","null","","","null","40","","NaN","","","","","","","","","","","","","",""
"","response","","html-keyboard-response","277","530240","0.0-1.0-365.0-0.0","0","0","36695","","767","","","68","40","","","1","40","training","adjacent","CD","3","4","O.jpg","L.jpg","0","1","0","",""
"","feedback","","html-keyboard-response","278","531253","0.0-1.0-366.0-0.0","0","0","36695","","null","","","null","40","","","","","","","","","","","","","","","",""
"","time_out","","html-keyboard-response","279","533269","0.0-1.0-368.0-0.0","0","0","36695","","null","","","null","40","","","","","","","","","","","","","","","",""
"","ITI","","html-keyboard-response","280","534276","0.0-1.0-369.0","0","0","36695","","null","","","null","40","","","","","","","","","","","","","","","NaN",""
"","S1","","html-keyboard-response","281","534543","0.0-1.0-371.0","0","0","36695","","null","","","null","41","","","","","","","","","","","","","","","",""
"","ISI","","html-keyboard-response","282","535556","0.0-1.0-372.0","0","0","36695","","null","","","null","41","NaN","","","","","","","","","","","","","","",""
"","S2","","html-keyboard-response","283","535823","0.0-1.0-373.0","0","0","36695","","null","","","null","41","","NaN","","","","","","","","","","","","","",""
"","response","","html-keyboard-response","284","536166","0.0-1.0-374.0-0.0","0","0","36695","","337","","","75","41","","","1","41","training","adjacent","FE","6","5","N.jpg","Q.jpg","1","0","0","",""
"","feedback","","html-keyboard-response","285","537182","0.0-1.0-375.0-0.0","0","0","36695","","null","","","null","41","","","","","","","","","","","","","","","",""
"","time_out","","html-keyboard-response","286","539199","0.0-1.0-377.0-0.0","0","0","36695","","null","","","null","41","","","","","","","","","","","","","","","",""
"","ITI","","html-keyboard-response","287","540212","0.0-1.0-378.0","0","0","36695","","null","","","null","41","","","","","","","","","","","","","","","NaN",""
"","S1","","html-keyboard-response","288","540475","0.0-1.0-380.0","0","0","36695","","null","","","null","42","","","","","","","","","","","","","","","",""
"","ISI","","html-keyboard-response","289","541487","0.0-1.0-381.0","0","0","36695","","null","","","null","42","NaN","","","","","","","","","","","","","","",""
"","S2","","html-keyboard-response","290","541748","0.0-1.0-382.0","0","0","36695","","null","","","null","42","","NaN","","","","","","","","","","","","","",""
"","response","","html-keyboard-response","291","542306","0.0-1.0-383.0-0.0","0","0","36695","","553","","","75","42","","","1","42","training","adjacent","CB","3","2","O.jpg","M.jpg","1","0","0","",""
"","feedback","","html-keyboard-response","292","543316","0.0-1.0-384.0-0.0","0","0","36695","","null","","","null","42","","","","","","","","","","","","","","","",""
"","time_out","","html-keyboard-response","293","545327","0.0-1.0-386.0-0.0","0","0","36695","","null","","","null","42","","","","","","","","","","","","","","","",""
"","ITI","","html-keyboard-response","294","546340","0.0-1.0-387.0","0","0","36695","","null","","","null","42","","","","","","","","","","","","","","","NaN",""
"","S1","","html-keyboard-response","295","546606","0.0-1.0-389.0","0","0","36695","","null","","","null","43","","","","","","","","","","","","","","","",""
"","ISI","","html-keyboard-response","296","547620","0.0-1.0-390.0","0","0","36695","","null","","","null","43","NaN","","","","","","","","","","","","","","",""
"","S2","","html-keyboard-response","297","547887","0.0-1.0-391.0","0","0","36695","","null","","","null","43","","NaN","","","","","","","","","","","","","",""
"","response","","html-keyboard-response","298","549485","0.0-1.0-392.0-0.0","0","0","36695","","1594","","","75","43","","","1","43","training","adjacent","BA","2","1","M.jpg","P.jpg","1","0","0","",""
"","feedback","","html-keyboard-response","299","550500","0.0-1.0-393.0-0.0","0","0","36695","","null","","","null","43","","","","","","","","","","","","","","","",""
"","time_out","","html-keyboard-response","300","552516","0.0-1.0-395.0-0.0","0","0","36695","","null","","","null","43","","","","","","","","","","","","","","","",""
"","ITI","","html-keyboard-response","301","553524","0.0-1.0-396.0","0","0","36695","","null","","","null","43","","","","","","","","","","","","","","","NaN",""
"","S1","","html-keyboard-response","302","553787","0.0-1.0-398.0","0","0","36695","","null","","","null","44","","","","","","","","","","","","","","","",""
"","ISI","","html-keyboard-response","303","554798","0.0-1.0-399.0","0","0","36695","","null","","","null","44","NaN","","","","","","","","","","","","","","",""
"","S2","","html-keyboard-response","304","555060","0.0-1.0-400.0","0","0","36695","","null","","","null","44","","NaN","","","","","","","","","","","","","",""
"","response","","html-keyboard-response","305","555961","0.0-1.0-401.0-0.0","0","0","36695","","895","","","68","44","","","1","44","training","adjacent","AB","1","2","P.jpg","M.jpg","0","1","0","",""
"","feedback","","html-keyboard-response","306","556975","0.0-1.0-402.0-0.0","0","0","36695","","null","","","null","44","","","","","","","","","","","","","","","",""
"","time_out","","html-keyboard-response","307","558987","0.0-1.0-404.0-0.0","0","0","36695","","null","","","null","44","","","","","","","","","","","","","","","",""
"","ITI","","html-keyboard-response","308","559998","0.0-1.0-405.0","0","0","36695","","null","","","null","44","","","","","","","","","","","","","","","NaN",""
"","S1","","html-keyboard-response","309","560260","0.0-1.0-407.0","0","0","36695","","null","","","null","45","","","","","","","","","","","","","","","",""
"","ISI","","html-keyboard-response","310","561268","0.0-1.0-408.0","0","0","36695","","null","","","null","45","NaN","","","","","","","","","","","","","","",""
"","S2","","html-keyboard-response","311","561336","0.0-1.0-409.0","0","0","36695","","64","","","75","45","","k","1","45","training","adjacent","FG","6","7","N.jpg","R.jpg","1","1","1","",""
"","feedback","","html-keyboard-response","312","562348","0.0-1.0-411.0-0.0","0","0","36695","","null","","","null","45","","","","","","","","","","","","","","","",""
"","ITI","","html-keyboard-response","313","563363","0.0-1.0-414.0","0","0","36695","","null","","","null","45","","","","","","","","","","","","","","","NaN",""
"","S1","","html-keyboard-response","314","563627","0.0-1.0-416.0","0","0","36695","","null","","","null","46","","","","","","","","","","","","","","","",""
"","ISI","","html-keyboard-response","315","564635","0.0-1.0-417.0","0","0","36695","","null","","","null","46","NaN","","","","","","","","","","","","","","",""
"","S2","","html-keyboard-response","316","564899","0.0-1.0-418.0","0","0","36695","","null","","","null","46","","NaN","","","","","","","","","","","","","",""
"","response","","html-keyboard-response","317","565558","0.0-1.0-419.0-0.0","0","0","36695","","654","","","68","46","","","1","46","training","adjacent","ED","5","4","Q.jpg","L.jpg","0","0","1","",""
"","feedback","","html-keyboard-response","318","566570","0.0-1.0-420.0-0.0","0","0","36695","","null","","","null","46","","","","","","","","","","","","","","","",""
"","ITI","","html-keyboard-response","319","567582","0.0-1.0-423.0","0","0","36695","","null","","","null","46","","","","","","","","","","","","","","","NaN",""
"","S1","","html-keyboard-response","320","567843","0.0-1.0-425.0","0","0","36695","","null","","","null","47","","","","","","","","","","","","","","","",""
"","ISI","","html-keyboard-response","321","568851","0.0-1.0-426.0","0","0","36695","","null","","","null","47","NaN","","","","","","","","","","","","","","",""
"","S2","","html-keyboard-response","322","569118","0.0-1.0-427.0","0","0","36695","","null","","","null","47","","NaN","","","","","","","","","","","","","",""
"","response","","html-keyboard-response","323","570089","0.0-1.0-428.0-0.0","0","0","36695","","966","","","68","47","","","1","47","training","adjacent","ED","5","4","Q.jpg","L.jpg","0","0","1","",""
"","feedback","","html-keyboard-response","324","571098","0.0-1.0-429.0-0.0","0","0","36695","","null","","","null","47","","","","","","","","","","","","","","","",""
"","ITI","","html-keyboard-response","325","572106","0.0-1.0-432.0","0","0","36695","","null","","","null","47","","","","","","","","","","","","","","","NaN",""
"","block_over","","html-keyboard-response","326","711109","0.0-1.0-433.0-0.0","0","0","36695","","138996","","","32","47","","","","","","","","","","","","","","","",""
"","S1","","html-keyboard-response","327","711371","0.0-1.0-434.0","0","0","36695","","null","","","null","48","","","","","","","","","","","","","","","",""
"","ISI","","html-keyboard-response","328","712384","0.0-1.0-435.0","0","0","36695","","null","","","null","48","NaN","","","","","","","","","","","","","","",""
"","S2","","html-keyboard-response","329","712559","0.0-1.0-436.0","0","0","36695","","170","","","75","48","","k","2","48","training","adjacent","EF","5","6","Q.jpg","N.jpg","1","1","1","",""
"","feedback","","html-keyboard-response","330","713568","0.0-1.0-438.0-0.0","0","0","36695","","null","","","null","48","","","","","","","","","","","","","","","",""
"","ITI","","html-keyboard-response","331","714587","0.0-1.0-441.0","0","0","36695","","null","","","null","48","","","","","","","","","","","","","","","NaN",""
"","S1","","html-keyboard-response","332","714848","0.0-1.0-443.0","0","0","36695","","null","","","null","49","","","","","","","","","","","","","","","",""
"","ISI","","html-keyboard-response","333","715856","0.0-1.0-444.0","0","0","36695","","null","","","null","49","NaN","","","","","","","","","","","","","","",""
"","S2","","html-keyboard-response","334","716119","0.0-1.0-445.0","0","0","36695","","null","","","null","49","","NaN","","","","","","","","","","","","","",""
"","response","","html-keyboard-response","335","717021","0.0-1.0-446.0-0.0","0","0","36695","","898","","","68","49","","","2","49","training","adjacent","BC","2","3","M.jpg","O.jpg","0","1","0","",""
"","feedback","","html-keyboard-response","336","718032","0.0-1.0-447.0-0.0","0","0","36695","","null","","","null","49","","","","","","","","","","","","","","","",""
"","time_out","","html-keyboard-response","337","720043","0.0-1.0-449.0-0.0","0","0","36695","","null","","","null","49","","","","","","","","","","","","","","","",""
"","ITI","","html-keyboard-response","338","721056","0.0-1.0-450.0","0","0","36695","","null","","","null","49","","","","","","","","","","","","","","","NaN",""
"","S1","","html-keyboard-response","339","721319","0.0-1.0-452.0","0","0","36695","","null","","","null","50","","","","","","","","","","","","","","","",""
"","ISI","","html-keyboard-response","340","722331","0.0-1.0-453.0","0","0","36695","","null","","","null","50","NaN","","","","","","","","","","","","","","",""
"","S2","","html-keyboard-response","341","722592","0.0-1.0-454.0","0","0","36695","","null","","","null","50","","NaN","","","","","","","","","","","","","",""
"","response","","html-keyboard-response","342","722887","0.0-1.0-455.0-0.0","0","0","36695","","290","","","75","50","","","2","50","training","adjacent","BA","2","1","M.jpg","P.jpg","1","0","0","",""
"","feedback","","html-keyboard-response","343","723904","0.0-1.0-456.0-0.0","0","0","36695","","null","","","null","50","","","","","","","","","","","","","","","",""
"","time_out","","html-keyboard-response","344","725920","0.0-1.0-458.0-0.0","0","0","36695","","null","","","null","50","","","","","","","","","","","","","","","",""
"","ITI","","html-keyboard-response","345","726935","0.0-1.0-459.0","0","0","36695","","null","","","null","50","","","","","","","","","","","","","","","NaN",""
"","S1","","html-keyboard-response","346","727200","0.0-1.0-461.0","0","0","36695","","null","","","null","51","","","","","","","","","","","","","","","",""
"","ISI","","html-keyboard-response","347","728208","0.0-1.0-462.0","0","0","36695","","null","","","null","51","NaN","","","","","","","","","","","","","","",""
"","S2","","html-keyboard-response","348","728475","0.0-1.0-463.0","0","0","36695","","null","","","null","51","","NaN","","","","","","","","","","","","","",""
"","response","","html-keyboard-response","349","728956","0.0-1.0-464.0-0.0","0","0","36695","","476","","","75","51","","","2","51","training","adjacent","FG","6","7","N.jpg","R.jpg","1","1","1","",""
"","feedback","","html-keyboard-response","350","729968","0.0-1.0-465.0-0.0","0","0","36695","","null","","","null","51","","","","","","","","","","","","","","","",""
"","ITI","","html-keyboard-response","351","730983","0.0-1.0-468.0","0","0","36695","","null","","","null","51","","","","","","","","","","","","","","","NaN",""
"","S1","","html-keyboard-response","352","731248","0.0-1.0-470.0","0","0","36695","","null","","","null","52","","","","","","","","","","","","","","","",""
"","ISI","","html-keyboard-response","353","732256","0.0-1.0-471.0","0","0","36695","","null","","","null","52","NaN","","","","","","","","","","","","","","",""
"","S2","","html-keyboard-response","354","732523","0.0-1.0-472.0","0","0","36695","","null","","","null","52","","NaN","","","","","","","","","","","","","",""
"","response","","html-keyboard-response","355","733175","0.0-1.0-473.0-0.0","0","0","36695","","647","","","75","52","","","2","52","training","adjacent","DE","4","5","L.jpg","Q.jpg","1","1","1","",""
"","feedback","","html-keyboard-response","356","734186","0.0-1.0-474.0-0.0","0","0","36695","","null","","","null","52","","","","","","","","","","","","","","","",""
"","ITI","","html-keyboard-response","357","735200","0.0-1.0-477.0","0","0","36695","","null","","","null","52","","","","","","","","","","","","","","","NaN",""
"","S1","","html-keyboard-response","358","735462","0.0-1.0-479.0","0","0","36695","","null","","","null","53","","","","","","","","","","","","","","","",""
"","ISI","","html-keyboard-response","359","736474","0.0-1.0-480.0","0","0","36695","","null","","","null","53","NaN","","","","","","","","","","","","","","",""
"","S2","","html-keyboard-response","360","736736","0.0-1.0-481.0","0","0","36695","","null","","","null","53","","NaN","","","","","","","","","","","","","",""
"","response","","html-keyboard-response","361","737387","0.0-1.0-482.0-0.0","0","0","36695","","646","","","75","53","","","2","53","training","adjacent","DC","4","3","L.jpg","O.jpg","1","0","0","",""
"","feedback","","html-keyboard-response","362","738400","0.0-1.0-483.0-0.0","0","0","36695","","null","","","null","53","","","","","","","","","","","","","","","",""
"","time_out","","html-keyboard-response","363","740416","0.0-1.0-485.0-0.0","0","0","36695","","null","","","null","53","","","","","","","","","","","","","","","",""
"","ITI","","html-keyboard-response","364","741424","0.0-1.0-486.0","0","0","36695","","null","","","null","53","","","","","","","","","","","","","","","NaN",""
"","S1","","html-keyboard-response","365","741690","0.0-1.0-488.0","0","0","36695","","null","","","null","54","","","","","","","","","","","","","","","",""
"","ISI","","html-keyboard-response","366","742703","0.0-1.0-489.0","0","0","36695","","null","","","null","54","NaN","","","","","","","","","","","","","","",""
"","S2","","html-keyboard-response","367","742970","0.0-1.0-490.0","0","0","36695","","null","","","null","54","","NaN","","","","","","","","","","","","","",""
"","response","","html-keyboard-response","368","743038","0.0-1.0-491.0-0.0","0","0","36695","","63","","","75","54","","","2","54","training","adjacent","FE","6","5","N.jpg","Q.jpg","1","0","0","",""
"","feedback","","html-keyboard-response","369","744048","0.0-1.0-492.0-0.0","0","0","36695","","null","","","null","54","","","","","","","","","","","","","","","",""
"","time_out","","html-keyboard-response","370","746064","0.0-1.0-494.0-0.0","0","0","36695","","null","","","null","54","","","","","","","","","","","","","","","",""
"","ITI","","html-keyboard-response","371","747072","0.0-1.0-495.0","0","0","36695","","null","","","null","54","","","","","","","","","","","","","","","NaN",""
"","S1","","html-keyboard-response","372","747338","0.0-1.0-497.0","0","0","36695","","null","","","null","55","","","","","","","","","","","","","","","",""
"","ISI","","html-keyboard-response","373","748352","0.0-1.0-498.0","0","0","36695","","null","","","null","55","NaN","","","","","","","","","","","","","","",""
"","S2","","html-keyboard-response","374","748615","0.0-1.0-499.0","0","0","36695","","null","","","null","55","","NaN","","","","","","","","","","","","","",""
"","response","","html-keyboard-response","375","749784","0.0-1.0-500.0-0.0","0","0","36695","","1164","","","75","55","","","2","55","training","adjacent","CD","3","4","O.jpg","L.jpg","1","1","1","",""
"","feedback","","html-keyboard-response","376","750800","0.0-1.0-501.0-0.0","0","0","36695","","null","","","null","55","","","","","","","","","","","","","","","",""
"","ITI","","html-keyboard-response","377","751817","0.0-1.0-504.0","0","0","36695","","null","","","null","55","","","","","","","","","","","","","","","NaN",""
"","S1","","html-keyboard-response","378","752080","0.0-1.0-506.0","0","0","36695","","null","","","null","56","","","","","","","","","","","","","","","",""
"","ISI","","html-keyboard-response","379","753087","0.0-1.0-507.0","0","0","36695","","null","","","null","56","NaN","","","","","","","","","","","","","","",""
"","S2","","html-keyboard-response","380","753350","0.0-1.0-508.0","0","0","36695","","null","","","null","56","","NaN","","","","","","","","","","","","","",""
"","response","","html-keyboard-response","381","754240","0.0-1.0-509.0-0.0","0","0","36695","","885","","","68","56","","","2","56","training","adjacent","ED","5","4","Q.jpg","L.jpg","0","0","1","",""
"","feedback","","html-keyboard-response","382","755258","0.0-1.0-510.0-0.0","0","0","36695","","null","","","null","56","","","","","","","","","","","","","","","",""
"","ITI","","html-keyboard-response","383","756271","0.0-1.0-513.0","0","0","36695","","null","","","null","56","","","","","","","","","","","","","","","NaN",""
"","S1","","html-keyboard-response","384","756538","0.0-1.0-515.0","0","0","36695","","null","","","null","57","","","","","","","","","","","","","","","",""
"","ISI","","html-keyboard-response","385","757551","0.0-1.0-516.0","0","0","36695","","null","","","null","57","NaN","","","","","","","","","","","","","","",""
"","S2","","html-keyboard-response","386","757818","0.0-1.0-517.0","0","0","36695","","null","","","null","57","","NaN","","","","","","","","","","","","","",""
"","response","","html-keyboard-response","387","758945","0.0-1.0-518.0-0.0","0","0","36695","","1121","","","68","57","","","2","57","training","adjacent","GF","7","6","R.jpg","N.jpg","0","0","1","",""
"","feedback","","html-keyboard-response","388","759962","0.0-1.0-519.0-0.0","0","0","36695","","null","","","null","57","","","","","","","","","","","","","","","",""
"","ITI","","html-keyboard-response","389","760975","0.0-1.0-522.0","0","0","36695","","null","","","null","57","","","","","","","","","","","","","","","NaN",""
"","S1","","html-keyboard-response","390","761242","0.0-1.0-524.0","0","0","36695","","null","","","null","58","","","","","","","","","","","","","","","",""
"","ISI","","html-keyboard-response","391","762255","0.0-1.0-525.0","0","0","36695","","null","","","null","58","NaN","","","","","","","","","","","","","","",""
"","S2","","html-keyboard-response","392","762522","0.0-1.0-526.0","0","0","36695","","null","","","null","58","","NaN","","","","","","","","","","","","","",""
"","response","","html-keyboard-response","393","763221","0.0-1.0-527.0-0.0","0","0","36695","","694","","","68","58","","","2","58","training","adjacent","EF","5","6","Q.jpg","N.jpg","0","1","0","",""
"","feedback","","html-keyboard-response","394","764232","0.0-1.0-528.0-0.0","0","0","36695","","null","","","null","58","","","","","","","","","","","","","","","",""
"","time_out","","html-keyboard-response","395","766246","0.0-1.0-530.0-0.0","0","0","36695","","null","","","null","58","","","","","","","","","","","","","","","",""
"","ITI","","html-keyboard-response","396","767258","0.0-1.0-531.0","0","0","36695","","null","","","null","58","","","","","","","","","","","","","","","NaN",""
"","S1","","html-keyboard-response","397","767519","0.0-1.0-533.0","0","0","36695","","null","","","null","59","","","","","","","","","","","","","","","",""
"","ISI","","html-keyboard-response","398","768534","0.0-1.0-534.0","0","0","36695","","null","","","null","59","NaN","","","","","","","","","","","","","","",""
"","S2","","html-keyboard-response","399","768799","0.0-1.0-535.0","0","0","36695","","null","","","null","59","","NaN","","","","","","","","","","","","","",""
"","response","","html-keyboard-response","400","769451","0.0-1.0-536.0-0.0","0","0","36695","","647","","","75","59","","","2","59","training","adjacent","FG","6","7","N.jpg","R.jpg","1","1","1","",""
"","feedback","","html-keyboard-response","401","770463","0.0-1.0-537.0-0.0","0","0","36695","","null","","","null","59","","","","","","","","","","","","","","","",""
"","ITI","","html-keyboard-response","402","771482","0.0-1.0-540.0","0","0","36695","","null","","","null","59","","","","","","","","","","","","","","","NaN",""
"","S1","","html-keyboard-response","403","771743","0.0-1.0-542.0","0","0","36695","","null","","","null","60","","","","","","","","","","","","","","","",""
"","ISI","","html-keyboard-response","404","772751","0.0-1.0-543.0","0","0","36695","","null","","","null","60","NaN","","","","","","","","","","","","","","",""
"","S2","","html-keyboard-response","405","773018","0.0-1.0-544.0","0","0","36695","","null","","","null","60","","NaN","","","","","","","","","","","","","",""
"","response","","html-keyboard-response","406","773897","0.0-1.0-545.0-0.0","0","0","36695","","874","","","68","60","","","2","60","training","adjacent","AB","1","2","P.jpg","M.jpg","0","1","0","",""
"","feedback","","html-keyboard-response","407","774911","0.0-1.0-546.0-0.0","0","0","36695","","null","","","null","60","","","","","","","","","","","","","","","",""
"","time_out","","html-keyboard-response","408","776927","0.0-1.0-548.0-0.0","0","0","36695","","null","","","null","60","","","","","","","","","","","","","","","",""
"","ITI","","html-keyboard-response","409","777935","0.0-1.0-549.0","0","0","36695","","null","","","null","60","","","","","","","","","","","","","","","NaN",""
"","S1","","html-keyboard-response","410","778201","0.0-1.0-551.0","0","0","36695","","null","","","null","61","","","","","","","","","","","","","","","",""
"","ISI","","html-keyboard-response","411","779215","0.0-1.0-552.0","0","0","36695","","null","","","null","61","NaN","","","","","","","","","","","","","","",""
"","S2","","html-keyboard-response","412","779481","0.0-1.0-553.0","0","0","36695","","null","","","null","61","","NaN","","","","","","","","","","","","","",""
"","response","","html-keyboard-response","413","779665","0.0-1.0-554.0-0.0","0","0","36695","","179","","","75","61","","","2","61","training","adjacent","EF","5","6","Q.jpg","N.jpg","1","1","1","",""
"","feedback","","html-keyboard-response","414","780681","0.0-1.0-555.0-0.0","0","0","36695","","null","","","null","61","","","","","","","","","","","","","","","",""
"","ITI","","html-keyboard-response","415","781694","0.0-1.0-558.0","0","0","36695","","null","","","null","61","","","","","","","","","","","","","","","NaN",""
"","S1","","html-keyboard-response","416","781961","0.0-1.0-560.0","0","0","36695","","null","","","null","62","","","","","","","","","","","","","","","",""
"","ISI","","html-keyboard-response","417","782974","0.0-1.0-561.0","0","0","36695","","null","","","null","62","NaN","","","","","","","","","","","","","","",""
"","S2","","html-keyboard-response","418","783241","0.0-1.0-562.0","0","0","36695","","null","","","null","62","","NaN","","","","","","","","","","","","","",""
"","response","","html-keyboard-response","419","783822","0.0-1.0-563.0-0.0","0","0","36695","","575","","","68","62","","","2","62","training","adjacent","CD","3","4","O.jpg","L.jpg","0","1","0","",""
"","feedback","","html-keyboard-response","420","784830","0.0-1.0-564.0-0.0","0","0","36695","","null","","","null","62","","","","","","","","","","","","","","","",""
"","time_out","","html-keyboard-response","421","786837","0.0-1.0-566.0-0.0","0","0","36695","","null","","","null","62","","","","","","","","","","","","","","","",""
"","ITI","","html-keyboard-response","422","787849","0.0-1.0-567.0","0","0","36695","","null","","","null","62","","","","","","","","","","","","","","","NaN",""
"","S1","","html-keyboard-response","423","788110","0.0-1.0-569.0","0","0","36695","","null","","","null","63","","","","","","","","","","","","","","","",""
"","ISI","","html-keyboard-response","424","789118","0.0-1.0-570.0","0","0","36695","","null","","","null","63","NaN","","","","","","","","","","","","","","",""
"","S2","","html-keyboard-response","425","789385","0.0-1.0-571.0","0","0","36695","","null","","","null","63","","NaN","","","","","","","","","","","","","",""
"","response","","html-keyboard-response","426","789585","0.0-1.0-572.0-0.0","0","0","36695","","195","","","75","63","","","2","63","training","adjacent","CB","3","2","O.jpg","M.jpg","1","0","0","",""
"","feedback","","html-keyboard-response","427","790601","0.0-1.0-573.0-0.0","0","0","36695","","null","","","null","63","","","","","","","","","","","","","","","",""
"","time_out","","html-keyboard-response","428","792617","0.0-1.0-575.0-0.0","0","0","36695","","null","","","null","63","","","","","","","","","","","","","","","",""
"","ITI","","html-keyboard-response","429","793630","0.0-1.0-576.0","0","0","36695","","null","","","null","63","","","","","","","","","","","","","","","NaN",""
"","S1","","html-keyboard-response","430","793897","0.0-1.0-578.0","0","0","36695","","null","","","null","64","","","","","","","","","","","","","","","",""
"","ISI","","html-keyboard-response","431","794911","0.0-1.0-579.0","0","0","36695","","null","","","null","64","NaN","","","","","","","","","","","","","","",""
"","S2","","html-keyboard-response","432","795006","0.0-1.0-580.0","0","0","36695","","90","","","75","64","","k","2","64","training","adjacent","FE","6","5","N.jpg","Q.jpg","1","0","0","",""
"","feedback","","html-keyboard-response","433","796014","0.0-1.0-582.0-0.0","0","0","36695","","null","","","null","64","","","","","","","","","","","","","","","",""
"","time_out","","html-keyboard-response","434","798025","0.0-1.0-584.0-0.0","0","0","36695","","null","","","null","64","","","","","","","","","","","","","","","",""
"","ITI","","html-keyboard-response","435","799039","0.0-1.0-585.0","0","0","36695","","null","","","null","64","","","","","","","","","","","","","","","NaN",""
"","S1","","html-keyboard-response","436","799305","0.0-1.0-587.0","0","0","36695","","null","","","null","65","","","","","","","","","","","","","","","",""
"","ISI","","html-keyboard-response","437","800318","0.0-1.0-588.0","0","0","36695","","null","","","null","65","NaN","","","","","","","","","","","","","","",""
"","S2","","html-keyboard-response","438","800584","0.0-1.0-589.0","0","0","36695","","null","","","null","65","","NaN","","","","","","","","","","","","","",""
"","response","","html-keyboard-response","439","802113","0.0-1.0-590.0-0.0","0","0","36695","","1523","","","68","65","","","2","65","training","adjacent","GF","7","6","R.jpg","N.jpg","0","0","1","",""
"","feedback","","html-keyboard-response","440","803129","0.0-1.0-591.0-0.0","0","0","36695","","null","","","null","65","","","","","","","","","","","","","","","",""
"","ITI","","html-keyboard-response","441","804142","0.0-1.0-594.0","0","0","36695","","null","","","null","65","","","","","","","","","","","","","","","NaN",""
"","S1","","html-keyboard-response","442","804408","0.0-1.0-596.0","0","0","36695","","null","","","null","66","","","","","","","","","","","","","","","",""
"","ISI","","html-keyboard-response","443","805422","0.0-1.0-597.0","0","0","36695","","null","","","null","66","NaN","","","","","","","","","","","","","","",""
"","S2","","html-keyboard-response","444","805689","0.0-1.0-598.0","0","0","36695","","null","","","null","66","","NaN","","","","","","","","","","","","","",""
"","response","","html-keyboard-response","445","807187","0.0-1.0-599.0-0.0","0","0","36695","","1492","","","68","66","","","2","66","training","adjacent","GF","7","6","R.jpg","N.jpg","0","0","1","",""
"","feedback","","html-keyboard-response","446","808201","0.0-1.0-600.0-0.0","0","0","36695","","null","","","null","66","","","","","","","","","","","","","","","",""
"","ITI","","html-keyboard-response","447","809214","0.0-1.0-603.0","0","0","36695","","null","","","null","66","","","","","","","","","","","","","","","NaN",""
"","S1","","html-keyboard-response","448","809481","0.0-1.0-605.0","0","0","36695","","null","","","null","67","","","","","","","","","","","","","","","",""
"","ISI","","html-keyboard-response","449","810494","0.0-1.0-606.0","0","0","36695","","null","","","null","67","NaN","","","","","","","","","","","","","","",""
"","S2","","html-keyboard-response","450","810757","0.0-1.0-607.0","0","0","36695","","null","","","null","67","","NaN","","","","","","","","","","","","","",""
"","response","","html-keyboard-response","451","812068","0.0-1.0-608.0-0.0","0","0","36695","","1305","","","68","67","","","2","67","training","adjacent","BC","2","3","M.jpg","O.jpg","0","1","0","",""
"","feedback","","html-keyboard-response","452","813081","0.0-1.0-609.0-0.0","0","0","36695","","null","","","null","67","","","","","","","","","","","","","","","",""
"","time_out","","html-keyboard-response","453","815096","0.0-1.0-611.0-0.0","0","0","36695","","null","","","null","67","","","","","","","","","","","","","","","",""
"","ITI","","html-keyboard-response","454","816110","0.0-1.0-612.0","0","0","36695","","null","","","null","67","","","","","","","","","","","","","","","NaN",""
"","S1","","html-keyboard-response","455","816373","0.0-1.0-614.0","0","0","36695","","null","","","null","68","","","","","","","","","","","","","","","",""
"","ISI","","html-keyboard-response","456","817385","0.0-1.0-615.0","0","0","36695","","null","","","null","68","NaN","","","","","","","","","","","","","","",""
"","S2","","html-keyboard-response","457","817646","0.0-1.0-616.0","0","0","36695","","null","","","null","68","","NaN","","","","","","","","","","","","","",""
"","response","","html-keyboard-response","458","818784","0.0-1.0-617.0-0.0","0","0","36695","","1133","","","75","68","","","2","68","training","adjacent","BA","2","1","M.jpg","P.jpg","1","0","0","",""
"","feedback","","html-keyboard-response","459","819801","0.0-1.0-618.0-0.0","0","0","36695","","null","","","null","68","","","","","","","","","","","","","","","",""
"","time_out","","html-keyboard-response","460","821816","0.0-1.0-620.0-0.0","0","0","36695","","null","","","null","68","","","","","","","","","","","","","","","",""
"","ITI","","html-keyboard-response","461","822830","0.0-1.0-621.0","0","0","36695","","null","","","null","68","","","","","","","","","","","","","","","NaN",""
"","S1","","html-keyboard-response","462","823097","0.0-1.0-623.0","0","0","36695","","null","","","null","69","","","","","","","","","","","","","","","",""
"","ISI","","html-keyboard-response","463","824110","0.0-1.0-624.0","0","0","36695","","null","","","null","69","NaN","","","","","","","","","","","","","","",""
"","S2","","html-keyboard-response","464","824376","0.0-1.0-625.0","0","0","36695","","null","","","null","69","","NaN","","","","","","","","","","","","","",""
"","response","","html-keyboard-response","465","825180","0.0-1.0-626.0-0.0","0","0","36695","","799","","","68","69","","","2","69","training","adjacent","FE","6","5","N.jpg","Q.jpg","0","0","1","",""
"","feedback","","html-keyboard-response","466","826190","0.0-1.0-627.0-0.0","0","0","36695","","null","","","null","69","","","","","","","","","","","","","","","",""
"","ITI","","html-keyboard-response","467","827209","0.0-1.0-630.0","0","0","36695","","null","","","null","69","","","","","","","","","","","","","","","NaN",""
"","S1","","html-keyboard-response","468","827470","0.0-1.0-632.0","0","0","36695","","null","","","null","70","","","","","","","","","","","","","","","",""
"","ISI","","html-keyboard-response","469","828488","0.0-1.0-633.0","0","0","36695","","null","","","null","70","NaN","","","","","","","","","","","","","","",""
"","S2","","html-keyboard-response","470","828750","0.0-1.0-634.0","0","0","36695","","null","","","null","70","","NaN","","","","","","","","","","","","","",""
"","response","","html-keyboard-response","471","829704","0.0-1.0-635.0-0.0","0","0","36695","","948","","","75","70","","","2","70","training","adjacent","ED","5","4","Q.jpg","L.jpg","1","0","0","",""
"","feedback","","html-keyboard-response","472","830718","0.0-1.0-636.0-0.0","0","0","36695","","null","","","null","70","","","","","","","","","","","","","","","",""
"","time_out","","html-keyboard-response","473","832734","0.0-1.0-638.0-0.0","0","0","36695","","null","","","null","70","","","","","","","","","","","","","","","",""
"","ITI","","html-keyboard-response","474","833752","0.0-1.0-639.0","0","0","36695","","null","","","null","70","","","","","","","","","","","","","","","NaN",""
"","S1","","html-keyboard-response","475","834014","0.0-1.0-641.0","0","0","36695","","null","","","null","71","","","","","","","","","","","","","","","",""
"","ISI","","html-keyboard-response","476","835022","0.0-1.0-642.0","0","0","36695","","null","","","null","71","NaN","","","","","","","","","","","","","","",""
"","S2","","html-keyboard-response","477","835288","0.0-1.0-643.0","0","0","36695","","null","","","null","71","","NaN","","","","","","","","","","","","","",""
"","response","","html-keyboard-response","478","836610","0.0-1.0-644.0-0.0","0","0","36695","","1317","","","68","71","","","2","71","training","adjacent","BC","2","3","M.jpg","O.jpg","0","1","0","",""
"","feedback","","html-keyboard-response","479","837621","0.0-1.0-645.0-0.0","0","0","36695","","null","","","null","71","","","","","","","","","","","","","","","",""
"","time_out","","html-keyboard-response","480","839628","0.0-1.0-647.0-0.0","0","0","36695","","null","","","null","71","","","","","","","","","","","","","","","",""
"","ITI","","html-keyboard-response","481","840638","0.0-1.0-648.0","0","0","36695","","null","","","null","71","","","","","","","","","","","","","","","NaN",""
"","S1","","html-keyboard-response","482","840904","0.0-1.0-650.0","0","0","36695","","null","","","null","72","","","","","","","","","","","","","","","",""
"","ISI","","html-keyboard-response","483","841917","0.0-1.0-651.0","0","0","36695","","null","","","null","72","NaN","","","","","","","","","","","","","","",""
"","S2","","html-keyboard-response","484","842184","0.0-1.0-652.0","0","0","36695","","null","","","null","72","","NaN","","","","","","","","","","","","","",""
"","response","","html-keyboard-response","485","843224","0.0-1.0-653.0-0.0","0","0","36695","","1034","","","75","72","","","2","72","training","adjacent","DE","4","5","L.jpg","Q.jpg","1","1","1","",""
"","feedback","","html-keyboard-response","486","844238","0.0-1.0-654.0-0.0","0","0","36695","","null","","","null","72","","","","","","","","","","","","","","","",""
"","ITI","","html-keyboard-response","487","845256","0.0-1.0-657.0","0","0","36695","","null","","","null","72","","","","","","","","","","","","","","","NaN",""
"","S1","","html-keyboard-response","488","845517","0.0-1.0-659.0","0","0","36695","","null","","","null","73","","","","","","","","","","","","","","","",""
"","ISI","","html-keyboard-response","489","846525","0.0-1.0-660.0","0","0","36695","","null","","","null","73","NaN","","","","","","","","","","","","","","",""
"","S2","","html-keyboard-response","490","846792","0.0-1.0-661.0","0","0","36695","","null","","","null","73","","NaN","","","","","","","","","","","","","",""
"","response","","html-keyboard-response","491","848160","0.0-1.0-662.0-0.0","0","0","36695","","1363","","","75","73","","","2","73","training","adjacent","ED","5","4","Q.jpg","L.jpg","1","0","0","",""
"","feedback","","html-keyboard-response","492","849176","0.0-1.0-663.0-0.0","0","0","36695","","null","","","null","73","","","","","","","","","","","","","","","",""
"","time_out","","html-keyboard-response","493","851192","0.0-1.0-665.0-0.0","0","0","36695","","null","","","null","73","","","","","","","","","","","","","","","",""
"","ITI","","html-keyboard-response","494","852205","0.0-1.0-666.0","0","0","36695","","null","","","null","73","","","","","","","","","","","","","","","NaN",""
"","S1","","html-keyboard-response","495","852472","0.0-1.0-668.0","0","0","36695","","null","","","null","74","","","","","","","","","","","","","","","",""
"","ISI","","html-keyboard-response","496","853485","0.0-1.0-669.0","0","0","36695","","null","","","null","74","NaN","","","","","","","","","","","","","","",""
"","S2","","html-keyboard-response","497","853752","0.0-1.0-670.0","0","0","36695","","null","","","null","74","","NaN","","","","","","","","","","","","","",""
"","response","","html-keyboard-response","498","854718","0.0-1.0-671.0-0.0","0","0","36695","","961","","","75","74","","","2","74","training","adjacent","DE","4","5","L.jpg","Q.jpg","1","1","1","",""
"","feedback","","html-keyboard-response","499","855736","0.0-1.0-672.0-0.0","0","0","36695","","null","","","null","74","","","","","","","","","","","","","","","",""
"","ITI","","html-keyboard-response","500","856749","0.0-1.0-675.0","0","0","36695","","null","","","null","74","","","","","","","","","","","","","","","NaN",""
"","S1","","html-keyboard-response","501","857016","0.0-1.0-677.0","0","0","36695","","null","","","null","75","","","","","","","","","","","","","","","",""
"","ISI","","html-keyboard-response","502","858029","0.0-1.0-678.0","0","0","36695","","null","","","null","75","NaN","","","","","","","","","","","","","","",""
"","S2","","html-keyboard-response","503","858296","0.0-1.0-679.0","0","0","36695","","null","","","null","75","","NaN","","","","","","","","","","","","","",""
"","response","","html-keyboard-response","504","859338","0.0-1.0-680.0-0.0","0","0","36695","","1037","","","68","75","","","2","75","training","adjacent","FE","6","5","N.jpg","Q.jpg","0","0","1","",""
"","feedback","","html-keyboard-response","505","860349","0.0-1.0-681.0-0.0","0","0","36695","","null","","","null","75","","","","","","","","","","","","","","","",""
"","ITI","","html-keyboard-response","506","861368","0.0-1.0-684.0","0","0","36695","","null","","","null","75","","","","","","","","","","","","","","","NaN",""
"","S1","","html-keyboard-response","507","861629","0.0-1.0-686.0","0","0","36695","","null","","","null","76","","","","","","","","","","","","","","","",""
"","ISI","","html-keyboard-response","508","862637","0.0-1.0-687.0","0","0","36695","","null","","","null","76","NaN","","","","","","","","","","","","","","",""
"","S2","","html-keyboard-response","509","862904","0.0-1.0-688.0","0","0","36695","","null","","","null","76","","NaN","","","","","","","","","","","","","",""
"","response","","html-keyboard-response","510","864471","0.0-1.0-689.0-0.0","0","0","36695","","1561","","","75","76","","","2","76","training","adjacent","DE","4","5","L.jpg","Q.jpg","1","1","1","",""
"","feedback","","html-keyboard-response","511","865485","0.0-1.0-690.0-0.0","0","0","36695","","null","","","null","76","","","","","","","","","","","","","","","",""
"","ITI","","html-keyboard-response","512","866500","0.0-1.0-693.0","0","0","36695","","null","","","null","76","","","","","","","","","","","","","","","NaN",""
"","S1","","html-keyboard-response","513","866765","0.0-1.0-695.0","0","0","36695","","null","","","null","77","","","","","","","","","","","","","","","",""
"","ISI","","html-keyboard-response","514","867773","0.0-1.0-696.0","0","0","36695","","null","","","null","77","NaN","","","","","","","","","","","","","","",""
"","S2","","html-keyboard-response","515","868040","0.0-1.0-697.0","0","0","36695","","null","","","null","77","","NaN","","","","","","","","","","","","","",""
"","response","","html-keyboard-response","516","869620","0.0-1.0-698.0-0.0","0","0","36695","","1575","","","75","77","","","2","77","training","adjacent","CB","3","2","O.jpg","M.jpg","1","0","0","",""
"","feedback","","html-keyboard-response","517","870631","0.0-1.0-699.0-0.0","0","0","36695","","null","","","null","77","","","","","","","","","","","","","","","",""
"","time_out","","html-keyboard-response","518","872647","0.0-1.0-701.0-0.0","0","0","36695","","null","","","null","77","","","","","","","","","","","","","","","",""
"","ITI","","html-keyboard-response","519","873660","0.0-1.0-702.0","0","0","36695","","null","","","null","77","","","","","","","","","","","","","","","NaN",""
"","S1","","html-keyboard-response","520","873928","0.0-1.0-704.0","0","0","36695","","null","","","null","78","","","","","","","","","","","","","","","",""
"","ISI","","html-keyboard-response","521","874941","0.0-1.0-705.0","0","0","36695","","null","","","null","78","NaN","","","","","","","","","","","","","","",""
"","S2","","html-keyboard-response","522","875207","0.0-1.0-706.0","0","0","36695","","null","","","null","78","","NaN","","","","","","","","","","","","","",""
"","response","","html-keyboard-response","523","876973","0.0-1.0-707.0-0.0","0","0","36695","","null","","","null","78","","","2","78","training","adjacent","ED","5","4","Q.jpg","L.jpg","NaN","0","0","",""
"","too_slow_prompt","","html-keyboard-response","524","877991","0.0-1.0-709.0-0.0","1","0","36695","","null","","","null","","","","","","","","","","","","","","","","",""
"","time_out","","html-keyboard-response","525","880007","0.0-1.0-710.0-0.0","0","0","36695","","null","","","null","78","","","","","","","","","","","","","","","",""
"","ITI","","html-keyboard-response","526","881021","0.0-1.0-711.0","0","0","36695","","null","","","null","78","","","","","","","","","","","","","","","NaN",""
"","S1","","html-keyboard-response","527","881287","0.0-1.0-713.0","0","0","36695","","null","","","null","79","","","","","","","","","","","","","","","",""
"","ISI","","html-keyboard-response","528","882301","0.0-1.0-714.0","0","0","36695","","null","","","null","79","NaN","","","","","","","","","","","","","","",""
"","S2","","html-keyboard-response","529","882567","0.0-1.0-715.0","0","0","36695","","null","","","null","79","","NaN","","","","","","","","","","","","","",""
"","response","","html-keyboard-response","530","884067","0.0-1.0-716.0-0.0","0","0","36695","","1495","","","75","79","","","2","79","training","adjacent","EF","5","6","Q.jpg","N.jpg","1","1","1","",""
"","feedback","","html-keyboard-response","531","885079","0.0-1.0-717.0-0.0","0","0","36695","","null","","","null","79","","","","","","","","","","","","","","","",""
"","ITI","","html-keyboard-response","532","886093","0.0-1.0-720.0","0","0","36695","","null","","","null","79","","","","","","","","","","","","","","","NaN",""
"","S1","","html-keyboard-response","533","886359","0.0-1.0-722.0","0","0","36695","","null","","","null","80","","","","","","","","","","","","","","","",""
"","ISI","","html-keyboard-response","534","887373","0.0-1.0-723.0","0","0","36695","","null","","","null","80","NaN","","","","","","","","","","","","","","",""
"","S2","","html-keyboard-response","535","887636","0.0-1.0-724.0","0","0","36695","","null","","","null","80","","NaN","","","","","","","","","","","","","",""
"","response","","html-keyboard-response","536","888036","0.0-1.0-725.0-0.0","0","0","36695","","394","","","75","80","","","2","80","training","adjacent","DC","4","3","L.jpg","O.jpg","1","0","0","",""
"","feedback","","html-keyboard-response","537","889047","0.0-1.0-726.0-0.0","0","0","36695","","null","","","null","80","","","","","","","","","","","","","","","",""
"","time_out","","html-keyboard-response","538","891063","0.0-1.0-728.0-0.0","0","0","36695","","null","","","null","80","","","","","","","","","","","","","","","",""
"","ITI","","html-keyboard-response","539","892076","0.0-1.0-729.0","0","0","36695","","null","","","null","80","","","","","","","","","","","","","","","NaN",""
"","S1","","html-keyboard-response","540","892343","0.0-1.0-731.0","0","0","36695","","null","","","null","81","","","","","","","","","","","","","","","",""
"","ISI","","html-keyboard-response","541","893356","0.0-1.0-732.0","0","0","36695","","null","","","null","81","NaN","","","","","","","","","","","","","","",""
"","S2","","html-keyboard-response","542","893623","0.0-1.0-733.0","0","0","36695","","null","","","null","81","","NaN","","","","","","","","","","","","","",""
"","response","","html-keyboard-response","543","894066","0.0-1.0-734.0-0.0","0","0","36695","","438","","","75","81","","","2","81","training","adjacent","AB","1","2","P.jpg","M.jpg","1","1","1","",""
"","feedback","","html-keyboard-response","544","895078","0.0-1.0-735.0-0.0","0","0","36695","","null","","","null","81","","","","","","","","","","","","","","","",""
"","ITI","","html-keyboard-response","545","896091","0.0-1.0-738.0","0","0","36695","","null","","","null","81","","","","","","","","","","","","","","","NaN",""
"","S1","","html-keyboard-response","546","896359","0.0-1.0-740.0","0","0","36695","","null","","","null","82","","","","","","","","","","","","","","","",""
"","ISI","","html-keyboard-response","547","897372","0.0-1.0-741.0","0","0","36695","","null","","","null","82","NaN","","","","","","","","","","","","","","",""
"","S2","","html-keyboard-response","548","897636","0.0-1.0-742.0","0","0","36695","","null","","","null","82","","NaN","","","","","","","","","","","","","",""
"","response","","html-keyboard-response","549","898241","0.0-1.0-743.0-0.0","0","0","36695","","600","","","75","82","","","2","82","training","adjacent","FG","6","7","N.jpg","R.jpg","1","1","1","",""
"","feedback","","html-keyboard-response","550","899251","0.0-1.0-744.0-0.0","0","0","36695","","null","","","null","82","","","","","","","","","","","","","","","",""
"","ITI","","html-keyboard-response","551","900263","0.0-1.0-747.0","0","0","36695","","null","","","null","82","","","","","","","","","","","","","","","NaN",""
"","S1","","html-keyboard-response","552","900524","0.0-1.0-749.0","0","0","36695","","null","","","null","83","","","","","","","","","","","","","","","",""
"","ISI","","html-keyboard-response","553","901532","0.0-1.0-750.0","0","0","36695","","null","","","null","83","NaN","","","","","","","","","","","","","","",""
"","S2","","html-keyboard-response","554","901799","0.0-1.0-751.0","0","0","36695","","null","","","null","83","","NaN","","","","","","","","","","","","","",""
"","response","","html-keyboard-response","555","902122","0.0-1.0-752.0-0.0","0","0","36695","","317","","","75","83","","","2","83","training","adjacent","BA","2","1","M.jpg","P.jpg","1","0","0","",""
"","feedback","","html-keyboard-response","556","903133","0.0-1.0-753.0-0.0","0","0","36695","","null","","","null","83","","","","","","","","","","","","","","","",""
"","time_out","","html-keyboard-response","557","905148","0.0-1.0-755.0-0.0","0","0","36695","","null","","","null","83","","","","","","","","","","","","","","","",""
"","ITI","","html-keyboard-response","558","906156","0.0-1.0-756.0","0","0","36695","","null","","","null","83","","","","","","","","","","","","","","","NaN",""
"","S1","","html-keyboard-response","559","906423","0.0-1.0-758.0","0","0","36695","","null","","","null","84","","","","","","","","","","","","","","","",""
"","ISI","","html-keyboard-response","560","907436","0.0-1.0-759.0","0","0","36695","","null","","","null","84","NaN","","","","","","","","","","","","","","",""
"","S2","","html-keyboard-response","561","907703","0.0-1.0-760.0","0","0","36695","","null","","","null","84","","NaN","","","","","","","","","","","","","",""
"","response","","html-keyboard-response","562","908079","0.0-1.0-761.0-0.0","0","0","36695","","370","","","75","84","","","2","84","training","adjacent","FG","6","7","N.jpg","R.jpg","1","1","1","",""
"","feedback","","html-keyboard-response","563","909095","0.0-1.0-762.0-0.0","0","0","36695","","null","","","null","84","","","","","","","","","","","","","","","",""
"","ITI","","html-keyboard-response","564","910108","0.0-1.0-765.0","0","0","36695","","null","","","null","84","","","","","","","","","","","","","","","NaN",""
"","S1","","html-keyboard-response","565","910375","0.0-1.0-767.0","0","0","36695","","null","","","null","85","","","","","","","","","","","","","","","",""
"","ISI","","html-keyboard-response","566","911386","0.0-1.0-768.0","0","0","36695","","null","","","null","85","NaN","","","","","","","","","","","","","","",""
"","S2","","html-keyboard-response","567","911654","0.0-1.0-769.0","0","0","36695","","null","","","null","85","","NaN","","","","","","","","","","","","","",""
"","response","","html-keyboard-response","568","912602","0.0-1.0-770.0-0.0","0","0","36695","","944","","","68","85","","","2","85","training","adjacent","BC","2","3","M.jpg","O.jpg","0","1","0","",""
"","feedback","","html-keyboard-response","569","913612","0.0-1.0-771.0-0.0","0","0","36695","","null","","","null","85","","","","","","","","","","","","","","","",""
"","time_out","","html-keyboard-response","570","915628","0.0-1.0-773.0-0.0","0","0","36695","","null","","","null","85","","","","","","","","","","","","","","","",""
"","ITI","","html-keyboard-response","571","916647","0.0-1.0-774.0","0","0","36695","","null","","","null","85","","","","","","","","","","","","","","","NaN",""
"","S1","","html-keyboard-response","572","916908","0.0-1.0-776.0","0","0","36695","","null","","","null","86","","","","","","","","","","","","","","","",""
"","ISI","","html-keyboard-response","573","917916","0.0-1.0-777.0","0","0","36695","","null","","","null","86","NaN","","","","","","","","","","","","","","",""
"","S2","","html-keyboard-response","574","918183","0.0-1.0-778.0","0","0","36695","","null","","","null","86","","NaN","","","","","","","","","","","","","",""
"","response","","html-keyboard-response","575","918263","0.0-1.0-779.0-0.0","0","0","36695","","75","","","75","86","","","2","86","training","adjacent","CB","3","2","O.jpg","M.jpg","1","0","0","",""
"","feedback","","html-keyboard-response","576","919276","0.0-1.0-780.0-0.0","0","0","36695","","null","","","null","86","","","","","","","","","","","","","","","",""
