"success","ttype","start_time","trial_type","trial_index","time_elapsed","internal_node_id","warning","missed_checkup","PID","view_history","rt","responses","repeat_instructions","key_press","index","keypress_isi","keypress_S2","block","trial_num","phase","group_type","pair_type","S1_stim","S2_stim","S1_img","S2_img","S1_chosen","S1_higher","accuracy","keypress_iti","total_bonus_tally"
"true","full_screen","d04142023hr2336","fullscreen","0","12402","0.0-0.0","0","0","51541","","","","","","","","","","","","","","","","","","","","","",""
"","instructions","","instructions","1","122172","0.0-1.0-0.0-0.0","0","0","51541","[{""page_index"":0,""viewing_time"":6624},{""page_index"":1,""viewing_time"":25593},{""page_index"":2,""viewing_time"":74817},{""page_index"":3,""viewing_time"":2732}]","109767","","","","","","","","","","","","","","","","","","","",""
"","comprehension_check","","survey-multi-choice","2","148422","0.0-1.0-0.0-1.0","0","0","51541","","26241","{""Q0"":""False"",""Q1"":""K"",""Q2"":""Only when the screen 'MAKE A CHOICE' is shown"",""Q3"":""Green mark"",""Q4"":""either D or K""}","1","","","","","","","","","","","","","","","","","",""
"","missed_instruction_checkup","","html-keyboard-response","3","150902","0.0-1.0-0.0-2.0-0.0","0","1","51541","","2475","","","32","","","","","","","","","","","","","","","","",""
"","instructions","","instructions","4","234655","0.0-1.0-0.1-0.1","0","0","51541","[{""page_index"":0,""viewing_time"":8142},{""page_index"":1,""viewing_time"":27835},{""page_index"":2,""viewing_time"":46521},{""page_index"":3,""viewing_time"":1253}]","83751","","","","","","","","","","","","","","","","","","","",""
"","comprehension_check","","survey-multi-choice","5","253952","0.0-1.0-0.1-1.1","0","0","51541","","19293","{""Q0"":""False"",""Q1"":""K"",""Q2"":""Once the second image appears and while the screen 'MAKE A CHOICE' is shown"",""Q3"":""Green mark"",""Q4"":""either D or K""}","1","","","","","","","","","","","","","","","","","",""
"","missed_instruction_checkup","","html-keyboard-response","6","255750","0.0-1.0-0.1-2.1-0.1","0","1","51541","","1795","","","32","","","","","","","","","","","","","","","","",""
"","instructions","","instructions","7","261899","0.0-1.0-0.2-0.2","0","0","51541","[{""page_index"":0,""viewing_time"":1666},{""page_index"":1,""viewing_time"":2928},{""page_index"":2,""viewing_time"":802},{""page_index"":3,""viewing_time"":751}]","6147","","","","","","","","","","","","","","","","","","","",""
"","comprehension_check","","survey-multi-choice","8","286295","0.0-1.0-0.2-1.2","0","0","51541","","24392","{""Q0"":""True"",""Q1"":""K"",""Q2"":""Once the second image appears and while the screen 'MAKE A CHOICE' is shown"",""Q3"":""Green mark"",""Q4"":""either D or K""}","0","","","","","","","","","","","","","","","","","",""
"","start_exp","","html-keyboard-response","9","287779","0.0-1.0-1.0","0","0","51541","","1481","","","32","","","","","","","","","","","","","","","","",""
"","S1","","html-keyboard-response","10","288039","0.0-1.0-2.0","0","0","51541","","null","","","null","0","","","","","","","","","","","","","","","",""
"","ISI","","html-keyboard-response","11","289048","0.0-1.0-3.0","0","0","51541","","null","","","null","0","NaN","","","","","","","","","","","","","","",""
"","S2","","html-keyboard-response","12","289308","0.0-1.0-4.0","0","0","51541","","null","","","null","0","","NaN","","","","","","","","","","","","","",""
"","response","","html-keyboard-response","13","290804","0.0-1.0-5.0-0.0","0","0","51541","","1494","","","75","0","","","1","0","training","adjacent","DE","4","5","Q.jpg","R.jpg","1","1","1","",""
"","feedback","","html-keyboard-response","14","291812","0.0-1.0-6.0-0.0","0","0","51541","","null","","","null","0","","","","","","","","","","","","","","","",""
"","ITI","","html-keyboard-response","15","292824","0.0-1.0-9.0","0","0","51541","","null","","","null","0","","","","","","","","","","","","","","","NaN",""
"","S1","","html-keyboard-response","16","293085","0.0-1.0-11.0","0","0","51541","","null","","","null","1","","","","","","","","","","","","","","","",""
"","ISI","","html-keyboard-response","17","294093","0.0-1.0-12.0","0","0","51541","","null","","","null","1","NaN","","","","","","","","","","","","","","",""
"","S2","","html-keyboard-response","18","294348","0.0-1.0-13.0","0","0","51541","","null","","","null","1","","NaN","","","","","","","","","","","","","",""
"","response","","html-keyboard-response","19","296108","0.0-1.0-14.0-0.0","0","0","51541","","null","","","null","1","","","1","1","training","adjacent","EF","5","6","R.jpg","O.jpg","NaN","1","0","",""
"","too_slow_prompt","","html-keyboard-response","20","297119","0.0-1.0-16.0-0.0","1","0","51541","","null","","","null","","","","","","","","","","","","","","","","",""
"","time_out","","html-keyboard-response","21","299127","0.0-1.0-17.0-0.0","0","0","51541","","null","","","null","1","","","","","","","","","","","","","","","",""
"","ITI","","html-keyboard-response","22","300135","0.0-1.0-18.0","0","0","51541","","null","","","null","1","","","","","","","","","","","","","","","NaN",""
"","S1","","html-keyboard-response","23","300396","0.0-1.0-20.0","0","0","51541","","null","","","null","2","","","","","","","","","","","","","","","",""
"","ISI","","html-keyboard-response","24","301407","0.0-1.0-21.0","0","0","51541","","null","","","null","2","NaN","","","","","","","","","","","","","","",""
"","S2","","html-keyboard-response","25","301671","0.0-1.0-22.0","0","0","51541","","null","","","null","2","","NaN","","","","","","","","","","","","","",""
"","response","","html-keyboard-response","26","302174","0.0-1.0-23.0-0.0","0","0","51541","","500","","","68","2","","","1","2","training","adjacent","AB","1","2","L.jpg","M.jpg","0","1","0","",""
"","feedback","","html-keyboard-response","27","303181","0.0-1.0-24.0-0.0","0","0","51541","","null","","","null","2","","","","","","","","","","","","","","","",""
"","time_out","","html-keyboard-response","28","305183","0.0-1.0-26.0-0.0","0","0","51541","","null","","","null","2","","","","","","","","","","","","","","","",""
"","ITI","","html-keyboard-response","29","306189","0.0-1.0-27.0","0","0","51541","","null","","","null","2","","","","","","","","","","","","","","","NaN",""
"","S1","","html-keyboard-response","30","306445","0.0-1.0-29.0","0","0","51541","","null","","","null","3","","","","","","","","","","","","","","","",""
"","ISI","","html-keyboard-response","31","307452","0.0-1.0-30.0","0","0","51541","","null","","","null","3","NaN","","","","","","","","","","","","","","",""
"","S2","","html-keyboard-response","32","307709","0.0-1.0-31.0","0","0","51541","","null","","","null","3","","NaN","","","","","","","","","","","","","",""
"","response","","html-keyboard-response","33","309470","0.0-1.0-32.0-0.0","0","0","51541","","null","","","null","3","","","1","3","training","adjacent","EF","5","6","R.jpg","O.jpg","NaN","1","0","",""
"","too_slow_prompt","","html-keyboard-response","34","310475","0.0-1.0-34.0-0.0","1","0","51541","","null","","","null","","","","","","","","","","","","","","","","",""
"","time_out","","html-keyboard-response","35","312487","0.0-1.0-35.0-0.0","0","0","51541","","null","","","null","3","","","","","","","","","","","","","","","",""
"","ITI","","html-keyboard-response","36","313495","0.0-1.0-36.0","0","0","51541","","null","","","null","3","","","","","","","","","","","","","","","NaN",""
"","S1","","html-keyboard-response","37","313756","0.0-1.0-38.0","0","0","51541","","null","","","null","4","","","","","","","","","","","","","","","",""
"","ISI","","html-keyboard-response","38","314764","0.0-1.0-39.0","0","0","51541","","null","","","null","4","NaN","","","","","","","","","","","","","","",""
"","S2","","html-keyboard-response","39","315020","0.0-1.0-40.0","0","0","51541","","null","","","null","4","","NaN","","","","","","","","","","","","","",""
"","response","","html-keyboard-response","40","315601","0.0-1.0-41.0-0.0","0","0","51541","","578","","","75","4","","","1","4","training","adjacent","GF","7","6","P.jpg","O.jpg","1","0","0","",""
"","feedback","","html-keyboard-response","41","316616","0.0-1.0-42.0-0.0","0","0","51541","","null","","","null","4","","","","","","","","","","","","","","","",""
"","time_out","","html-keyboard-response","42","318620","0.0-1.0-44.0-0.0","0","0","51541","","null","","","null","4","","","","","","","","","","","","","","","",""
"","ITI","","html-keyboard-response","43","319627","0.0-1.0-45.0","0","0","51541","","null","","","null","4","","","","","","","","","","","","","","","NaN",""
"","S1","","html-keyboard-response","44","319883","0.0-1.0-47.0","0","0","51541","","null","","","null","5","","","","","","","","","","","","","","","",""
"","ISI","","html-keyboard-response","45","320892","0.0-1.0-48.0","0","0","51541","","null","","","null","5","NaN","","","","","","","","","","","","","","",""
"","S2","","html-keyboard-response","46","321148","0.0-1.0-49.0","0","0","51541","","null","","","null","5","","NaN","","","","","","","","","","","","","",""
"","response","","html-keyboard-response","47","321908","0.0-1.0-50.0-0.0","0","0","51541","","759","","","68","5","","","1","5","training","adjacent","FE","6","5","O.jpg","R.jpg","0","0","1","",""
"","feedback","","html-keyboard-response","48","322919","0.0-1.0-51.0-0.0","0","0","51541","","null","","","null","5","","","","","","","","","","","","","","","",""
"","ITI","","html-keyboard-response","49","323924","0.0-1.0-54.0","0","0","51541","","null","","","null","5","","","","","","","","","","","","","","","NaN",""
"","S1","","html-keyboard-response","50","324182","0.0-1.0-56.0","0","0","51541","","null","","","null","6","","","","","","","","","","","","","","","",""
"","ISI","","html-keyboard-response","51","325190","0.0-1.0-57.0","0","0","51541","","null","","","null","6","NaN","","","","","","","","","","","","","","",""
"","S2","","html-keyboard-response","52","325452","0.0-1.0-58.0","0","0","51541","","null","","","null","6","","NaN","","","","","","","","","","","","","",""
"","response","","html-keyboard-response","53","325815","0.0-1.0-59.0-0.0","0","0","51541","","361","","","75","6","","","1","6","training","adjacent","CD","3","4","N.jpg","Q.jpg","1","1","1","",""
"","feedback","","html-keyboard-response","54","326822","0.0-1.0-60.0-0.0","0","0","51541","","null","","","null","6","","","","","","","","","","","","","","","",""
"","ITI","","html-keyboard-response","55","327830","0.0-1.0-63.0","0","0","51541","","null","","","null","6","","","","","","","","","","","","","","","NaN",""
"","S1","","html-keyboard-response","56","328094","0.0-1.0-65.0","0","0","51541","","null","","","null","7","","","","","","","","","","","","","","","",""
"","ISI","","html-keyboard-response","57","329100","0.0-1.0-66.0","0","0","51541","","null","","","null","7","NaN","","","","","","","","","","","","","","",""
"","S2","","html-keyboard-response","58","329356","0.0-1.0-67.0","0","0","51541","","null","","","null","7","","NaN","","","","","","","","","","","","","",""
"","response","","html-keyboard-response","59","329631","0.0-1.0-68.0-0.0","0","0","51541","","272","","","75","7","","","1","7","training","adjacent","DE","4","5","Q.jpg","R.jpg","1","1","1","",""
"","feedback","","html-keyboard-response","60","330635","0.0-1.0-69.0-0.0","0","0","51541","","null","","","null","7","","","","","","","","","","","","","","","",""
"","ITI","","html-keyboard-response","61","331644","0.0-1.0-72.0","0","0","51541","","null","","","null","7","","","","","","","","","","","","","","","NaN",""
"","S1","","html-keyboard-response","62","331899","0.0-1.0-74.0","0","0","51541","","null","","","null","8","","","","","","","","","","","","","","","",""
"","ISI","","html-keyboard-response","63","332911","0.0-1.0-75.0","0","0","51541","","null","","","null","8","NaN","","","","","","","","","","","","","","",""
"","S2","","html-keyboard-response","64","333174","0.0-1.0-76.0","0","0","51541","","null","","","null","8","","NaN","","","","","","","","","","","","","",""
"","response","","html-keyboard-response","65","333872","0.0-1.0-77.0-0.0","0","0","51541","","696","","","68","8","","","1","8","training","adjacent","DC","4","3","Q.jpg","N.jpg","0","0","1","",""
"","feedback","","html-keyboard-response","66","334886","0.0-1.0-78.0-0.0","0","0","51541","","null","","","null","8","","","","","","","","","","","","","","","",""
"","ITI","","html-keyboard-response","67","335894","0.0-1.0-81.0","0","0","51541","","null","","","null","8","","","","","","","","","","","","","","","NaN",""
"","S1","","html-keyboard-response","68","336157","0.0-1.0-83.0","0","0","51541","","null","","","null","9","","","","","","","","","","","","","","","",""
"","ISI","","html-keyboard-response","69","337164","0.0-1.0-84.0","0","0","51541","","null","","","null","9","NaN","","","","","","","","","","","","","","",""
"","S2","","html-keyboard-response","70","337419","0.0-1.0-85.0","0","0","51541","","null","","","null","9","","NaN","","","","","","","","","","","","","",""
"","response","","html-keyboard-response","71","337715","0.0-1.0-86.0-0.0","0","0","51541","","293","","","75","9","","","1","9","training","adjacent","DE","4","5","Q.jpg","R.jpg","1","1","1","",""
"","feedback","","html-keyboard-response","72","338726","0.0-1.0-87.0-0.0","0","0","51541","","null","","","null","9","","","","","","","","","","","","","","","",""
"","ITI","","html-keyboard-response","73","339735","0.0-1.0-90.0","0","0","51541","","null","","","null","9","","","","","","","","","","","","","","","NaN",""
"","S1","","html-keyboard-response","74","339995","0.0-1.0-92.0","0","0","51541","","null","","","null","10","","","","","","","","","","","","","","","",""
"","ISI","","html-keyboard-response","75","341003","0.0-1.0-93.0","0","0","51541","","248","","","68","10","d","","","","","","","","","","","","","","",""
"","S2","","html-keyboard-response","76","341262","0.0-1.0-94.0","0","0","51541","","null","","","null","10","","NaN","","","","","","","","","","","","","",""
"","response","","html-keyboard-response","77","342040","0.0-1.0-95.0-0.0","0","0","51541","","776","","","68","10","","","1","10","training","adjacent","DC","4","3","Q.jpg","N.jpg","0","0","1","",""
"","feedback","","html-keyboard-response","78","343053","0.0-1.0-96.0-0.0","0","0","51541","","null","","","null","10","","","","","","","","","","","","","","","",""
"","ITI","","html-keyboard-response","79","344059","0.0-1.0-99.0","0","0","51541","","null","","","null","10","","","","","","","","","","","","","","","NaN",""
"","S1","","html-keyboard-response","80","344316","0.0-1.0-101.0","0","0","51541","","null","","","null","11","","","","","","","","","","","","","","","",""
"","ISI","","html-keyboard-response","81","345323","0.0-1.0-102.0","0","0","51541","","null","","","null","11","NaN","","","","","","","","","","","","","","",""
"","S2","","html-keyboard-response","82","345579","0.0-1.0-103.0","0","0","51541","","null","","","null","11","","NaN","","","","","","","","","","","","","",""
"","response","","html-keyboard-response","83","345590","0.0-1.0-104.0-0.0","0","0","51541","","9","","","75","11","","","1","11","training","adjacent","BA","2","1","M.jpg","L.jpg","1","0","0","",""
"","feedback","","html-keyboard-response","84","346597","0.0-1.0-105.0-0.0","0","0","51541","","null","","","null","11","","","","","","","","","","","","","","","",""
"","time_out","","html-keyboard-response","85","348604","0.0-1.0-107.0-0.0","0","0","51541","","null","","","null","11","","","","","","","","","","","","","","","",""
"","ITI","","html-keyboard-response","86","349611","0.0-1.0-108.0","0","0","51541","","null","","","null","11","","","","","","","","","","","","","","","NaN",""
"","S1","","html-keyboard-response","87","349868","0.0-1.0-110.0","0","0","51541","","null","","","null","12","","","","","","","","","","","","","","","",""
"","ISI","","html-keyboard-response","88","350874","0.0-1.0-111.0","0","0","51541","","null","","","null","12","NaN","","","","","","","","","","","","","","",""
"","S2","","html-keyboard-response","89","351133","0.0-1.0-112.0","0","0","51541","","null","","","null","12","","NaN","","","","","","","","","","","","","",""
"","response","","html-keyboard-response","90","351181","0.0-1.0-113.0-0.0","0","0","51541","","46","","","68","12","","","1","12","training","adjacent","CB","3","2","N.jpg","M.jpg","0","0","1","",""
"","feedback","","html-keyboard-response","91","352186","0.0-1.0-114.0-0.0","0","0","51541","","null","","","null","12","","","","","","","","","","","","","","","",""
"","ITI","","html-keyboard-response","92","353195","0.0-1.0-117.0","0","0","51541","","null","","","null","12","","","","","","","","","","","","","","","NaN",""
"","S1","","html-keyboard-response","93","353451","0.0-1.0-119.0","0","0","51541","","null","","","null","13","","","","","","","","","","","","","","","",""
"","ISI","","html-keyboard-response","94","354461","0.0-1.0-120.0","0","0","51541","","null","","","null","13","NaN","","","","","","","","","","","","","","",""
"","S2","","html-keyboard-response","95","354725","0.0-1.0-121.0","0","0","51541","","null","","","null","13","","NaN","","","","","","","","","","","","","",""
"","response","","html-keyboard-response","96","354962","0.0-1.0-122.0-0.0","0","0","51541","","236","","","75","13","","","1","13","training","adjacent","BA","2","1","M.jpg","L.jpg","1","0","0","",""
"","feedback","","html-keyboard-response","97","355973","0.0-1.0-123.0-0.0","0","0","51541","","null","","","null","13","","","","","","","","","","","","","","","",""
"","time_out","","html-keyboard-response","98","357980","0.0-1.0-125.0-0.0","0","0","51541","","null","","","null","13","","","","","","","","","","","","","","","",""
"","ITI","","html-keyboard-response","99","358986","0.0-1.0-126.0","0","0","51541","","null","","","null","13","","","","","","","","","","","","","","","NaN",""
"","S1","","html-keyboard-response","100","359242","0.0-1.0-128.0","0","0","51541","","null","","","null","14","","","","","","","","","","","","","","","",""
"","ISI","","html-keyboard-response","101","360250","0.0-1.0-129.0","0","0","51541","","null","","","null","14","NaN","","","","","","","","","","","","","","",""
"","S2","","html-keyboard-response","102","360506","0.0-1.0-130.0","0","0","51541","","null","","","null","14","","NaN","","","","","","","","","","","","","",""
"","response","","html-keyboard-response","103","360540","0.0-1.0-131.0-0.0","0","0","51541","","32","","","68","14","","","1","14","training","adjacent","BC","2","3","M.jpg","N.jpg","0","1","0","",""
"","feedback","","html-keyboard-response","104","361547","0.0-1.0-132.0-0.0","0","0","51541","","null","","","null","14","","","","","","","","","","","","","","","",""
"","time_out","","html-keyboard-response","105","363557","0.0-1.0-134.0-0.0","0","0","51541","","null","","","null","14","","","","","","","","","","","","","","","",""
"","ITI","","html-keyboard-response","106","364565","0.0-1.0-135.0","0","0","51541","","null","","","null","14","","","","","","","","","","","","","","","NaN",""
"","S1","","html-keyboard-response","107","364827","0.0-1.0-137.0","0","0","51541","","null","","","null","15","","","","","","","","","","","","","","","",""
"","ISI","","html-keyboard-response","108","365834","0.0-1.0-138.0","0","0","51541","","null","","","null","15","NaN","","","","","","","","","","","","","","",""
"","S2","","html-keyboard-response","109","366090","0.0-1.0-139.0","0","0","51541","","null","","","null","15","","NaN","","","","","","","","","","","","","",""
"","response","","html-keyboard-response","110","366345","0.0-1.0-140.0-0.0","0","0","51541","","253","","","68","15","","","1","15","training","adjacent","ED","5","4","R.jpg","Q.jpg","0","0","1","",""
"","feedback","","html-keyboard-response","111","367354","0.0-1.0-141.0-0.0","0","0","51541","","null","","","null","15","","","","","","","","","","","","","","","",""
"","ITI","","html-keyboard-response","112","368365","0.0-1.0-144.0","0","0","51541","","null","","","null","15","","","","","","","","","","","","","","","NaN",""
"","S1","","html-keyboard-response","113","368629","0.0-1.0-146.0","0","0","51541","","null","","","null","16","","","","","","","","","","","","","","","",""
"","ISI","","html-keyboard-response","114","369637","0.0-1.0-147.0","0","0","51541","","null","","","null","16","NaN","","","","","","","","","","","","","","",""
"","S2","","html-keyboard-response","115","369900","0.0-1.0-148.0","0","0","51541","","null","","","null","16","","NaN","","","","","","","","","","","","","",""
"","response","","html-keyboard-response","116","370407","0.0-1.0-149.0-0.0","0","0","51541","","505","","","75","16","","","1","16","training","adjacent","GF","7","6","P.jpg","O.jpg","1","0","0","",""
"","feedback","","html-keyboard-response","117","371422","0.0-1.0-150.0-0.0","0","0","51541","","null","","","null","16","","","","","","","","","","","","","","","",""
"","time_out","","html-keyboard-response","118","373429","0.0-1.0-152.0-0.0","0","0","51541","","null","","","null","16","","","","","","","","","","","","","","","",""
"","ITI","","html-keyboard-response","119","374436","0.0-1.0-153.0","0","0","51541","","null","","","null","16","","","","","","","","","","","","","","","NaN",""
"","S1","","html-keyboard-response","120","374699","0.0-1.0-155.0","0","0","51541","","null","","","null","17","","","","","","","","","","","","","","","",""
"","ISI","","html-keyboard-response","121","375706","0.0-1.0-156.0","0","0","51541","","null","","","null","17","NaN","","","","","","","","","","","","","","",""
"","S2","","html-keyboard-response","122","375964","0.0-1.0-157.0","0","0","51541","","null","","","null","17","","NaN","","","","","","","","","","","","","",""
"","response","","html-keyboard-response","123","376068","0.0-1.0-158.0-0.0","0","0","51541","","102","","","68","17","","","1","17","training","adjacent","ED","5","4","R.jpg","Q.jpg","0","0","1","",""
"","feedback","","html-keyboard-response","124","377076","0.0-1.0-159.0-0.0","0","0","51541","","null","","","null","17","","","","","","","","","","","","","","","",""
"","ITI","","html-keyboard-response","125","378085","0.0-1.0-162.0","0","0","51541","","null","","","null","17","","","","","","","","","","","","","","","NaN",""
"","S1","","html-keyboard-response","126","378348","0.0-1.0-164.0","0","0","51541","","null","","","null","18","","","","","","","","","","","","","","","",""
"","ISI","","html-keyboard-response","127","379354","0.0-1.0-165.0","0","0","51541","","null","","","null","18","NaN","","","","","","","","","","","","","","",""
"","S2","","html-keyboard-response","128","379610","0.0-1.0-166.0","0","0","51541","","null","","","null","18","","NaN","","","","","","","","","","","","","",""
"","response","","html-keyboard-response","129","379672","0.0-1.0-167.0-0.0","0","0","51541","","59","","","75","18","","","1","18","training","adjacent","BC","2","3","M.jpg","N.jpg","1","1","1","",""
"","feedback","","html-keyboard-response","130","380682","0.0-1.0-168.0-0.0","0","0","51541","","null","","","null","18","","","","","","","","","","","","","","","",""
"","ITI","","html-keyboard-response","131","381690","0.0-1.0-171.0","0","0","51541","","null","","","null","18","","","","","","","","","","","","","","","NaN",""
"","S1","","html-keyboard-response","132","381945","0.0-1.0-173.0","0","0","51541","","null","","","null","19","","","","","","","","","","","","","","","",""
"","ISI","","html-keyboard-response","133","382957","0.0-1.0-174.0","0","0","51541","","null","","","null","19","NaN","","","","","","","","","","","","","","",""
"","S2","","html-keyboard-response","134","383220","0.0-1.0-175.0","0","0","51541","","null","","","null","19","","NaN","","","","","","","","","","","","","",""
"","response","","html-keyboard-response","135","383299","0.0-1.0-176.0-0.0","0","0","51541","","77","","","75","19","","","1","19","training","adjacent","EF","5","6","R.jpg","O.jpg","1","1","1","",""
"","feedback","","html-keyboard-response","136","384308","0.0-1.0-177.0-0.0","0","0","51541","","null","","","null","19","","","","","","","","","","","","","","","",""
"","ITI","","html-keyboard-response","137","385316","0.0-1.0-180.0","0","0","51541","","null","","","null","19","","","","","","","","","","","","","","","NaN",""
"","S1","","html-keyboard-response","138","385578","0.0-1.0-182.0","0","0","51541","","null","","","null","20","","","","","","","","","","","","","","","",""
"","ISI","","html-keyboard-response","139","386585","0.0-1.0-183.0","0","0","51541","","null","","","null","20","NaN","","","","","","","","","","","","","","",""
"","S2","","html-keyboard-response","140","386841","0.0-1.0-184.0","0","0","51541","","null","","","null","20","","NaN","","","","","","","","","","","","","",""
"","response","","html-keyboard-response","141","387339","0.0-1.0-185.0-0.0","0","0","51541","","496","","","75","20","","","1","20","training","adjacent","DC","4","3","Q.jpg","N.jpg","1","0","0","",""
"","feedback","","html-keyboard-response","142","388346","0.0-1.0-186.0-0.0","0","0","51541","","null","","","null","20","","","","","","","","","","","","","","","",""
"","time_out","","html-keyboard-response","143","390356","0.0-1.0-188.0-0.0","0","0","51541","","null","","","null","20","","","","","","","","","","","","","","","",""
"","ITI","","html-keyboard-response","144","391364","0.0-1.0-189.0","0","0","51541","","null","","","null","20","","","","","","","","","","","","","","","NaN",""
"","S1","","html-keyboard-response","145","391625","0.0-1.0-191.0","0","0","51541","","null","","","null","21","","","","","","","","","","","","","","","",""
"","ISI","","html-keyboard-response","146","392633","0.0-1.0-192.0","0","0","51541","","null","","","null","21","NaN","","","","","","","","","","","","","","",""
"","S2","","html-keyboard-response","147","392889","0.0-1.0-193.0","0","0","51541","","null","","","null","21","","NaN","","","","","","","","","","","","","",""
"","response","","html-keyboard-response","148","392898","0.0-1.0-194.0-0.0","0","0","51541","","7","","","68","21","","","1","21","training","adjacent","DC","4","3","Q.jpg","N.jpg","0","0","1","",""
"","feedback","","html-keyboard-response","149","393910","0.0-1.0-195.0-0.0","0","0","51541","","null","","","null","21","","","","","","","","","","","","","","","",""
"","ITI","","html-keyboard-response","150","394923","0.0-1.0-198.0","0","0","51541","","null","","","null","21","","","","","","","","","","","","","","","NaN",""
"","S1","","html-keyboard-response","151","395176","0.0-1.0-200.0","0","0","51541","","null","","","null","22","","","","","","","","","","","","","","","",""
"","ISI","","html-keyboard-response","152","396185","0.0-1.0-201.0","0","0","51541","","null","","","null","22","NaN","","","","","","","","","","","","","","",""
"","S2","","html-keyboard-response","153","396441","0.0-1.0-202.0","0","0","51541","","null","","","null","22","","NaN","","","","","","","","","","","","","",""
"","response","","html-keyboard-response","154","396450","0.0-1.0-203.0-0.0","0","0","51541","","8","","","68","22","","","1","22","training","adjacent","GF","7","6","P.jpg","O.jpg","0","0","1","",""
"","feedback","","html-keyboard-response","155","397461","0.0-1.0-204.0-0.0","0","0","51541","","null","","","null","22","","","","","","","","","","","","","","","",""
"","ITI","","html-keyboard-response","156","398468","0.0-1.0-207.0","0","0","51541","","null","","","null","22","","","","","","","","","","","","","","","NaN",""
"","S1","","html-keyboard-response","157","398730","0.0-1.0-209.0","0","0","51541","","null","","","null","23","","","","","","","","","","","","","","","",""
"","ISI","","html-keyboard-response","158","399737","0.0-1.0-210.0","0","0","51541","","null","","","null","23","NaN","","","","","","","","","","","","","","",""
"","S2","","html-keyboard-response","159","399993","0.0-1.0-211.0","0","0","51541","","null","","","null","23","","NaN","","","","","","","","","","","","","",""
"","response","","html-keyboard-response","160","400072","0.0-1.0-212.0-0.0","0","0","51541","","77","","","75","23","","","1","23","training","adjacent","CB","3","2","N.jpg","M.jpg","1","0","0","",""
"","feedback","","html-keyboard-response","161","401084","0.0-1.0-213.0-0.0","0","0","51541","","null","","","null","23","","","","","","","","","","","","","","","",""
"","time_out","","html-keyboard-response","162","403092","0.0-1.0-215.0-0.0","0","0","51541","","null","","","null","23","","","","","","","","","","","","","","","",""
"","ITI","","html-keyboard-response","163","404100","0.0-1.0-216.0","0","0","51541","","null","","","null","23","","","","","","","","","","","","","","","NaN",""
"","S1","","html-keyboard-response","164","404362","0.0-1.0-218.0","0","0","51541","","null","","","null","24","","","","","","","","","","","","","","","",""
"","ISI","","html-keyboard-response","165","405369","0.0-1.0-219.0","0","0","51541","","null","","","null","24","NaN","","","","","","","","","","","","","","",""
"","S2","","html-keyboard-response","166","405613","0.0-1.0-220.0","0","0","51541","","242","","","68","24","","d","1","24","training","adjacent","BC","2","3","M.jpg","N.jpg","0","1","0","",""
"","feedback","","html-keyboard-response","167","406628","0.0-1.0-222.0-0.0","0","0","51541","","null","","","null","24","","","","","","","","","","","","","","","",""
"","time_out","","html-keyboard-response","168","408633","0.0-1.0-224.0-0.0","0","0","51541","","null","","","null","24","","","","","","","","","","","","","","","",""
"","ITI","","html-keyboard-response","169","409641","0.0-1.0-225.0","0","0","51541","","null","","","null","24","","","","","","","","","","","","","","","NaN",""
"","S1","","html-keyboard-response","170","409897","0.0-1.0-227.0","0","0","51541","","null","","","null","25","","","","","","","","","","","","","","","",""
"","ISI","","html-keyboard-response","171","410905","0.0-1.0-228.0","0","0","51541","","700","","","75","25","k","","","","","","","","","","","","","","",""
"","S2","","html-keyboard-response","172","411161","0.0-1.0-229.0","0","0","51541","","null","","","null","25","","NaN","","","","","","","","","","","","","",""
"","response","","html-keyboard-response","173","411222","0.0-1.0-230.0-0.0","0","0","51541","","59","","","75","25","","","1","25","training","adjacent","CD","3","4","N.jpg","Q.jpg","1","1","1","",""
"","feedback","","html-keyboard-response","174","412233","0.0-1.0-231.0-0.0","0","0","51541","","null","","","null","25","","","","","","","","","","","","","","","",""
"","ITI","","html-keyboard-response","175","413242","0.0-1.0-234.0","0","0","51541","","null","","","null","25","","","","","","","","","","","","","","","NaN",""
"","S1","","html-keyboard-response","176","413497","0.0-1.0-236.0","0","0","51541","","null","","","null","26","","","","","","","","","","","","","","","",""
"","ISI","","html-keyboard-response","177","414507","0.0-1.0-237.0","0","0","51541","","null","","","null","26","NaN","","","","","","","","","","","","","","",""
"","S2","","html-keyboard-response","178","414771","0.0-1.0-238.0","0","0","51541","","null","","","null","26","","NaN","","","","","","","","","","","","","",""
"","response","","html-keyboard-response","179","414978","0.0-1.0-239.0-0.0","0","0","51541","","205","","","68","26","","","1","26","training","adjacent","CD","3","4","N.jpg","Q.jpg","0","1","0","",""
"","feedback","","html-keyboard-response","180","415988","0.0-1.0-240.0-0.0","0","0","51541","","null","","","null","26","","","","","","","","","","","","","","","",""
"","time_out","","html-keyboard-response","181","417995","0.0-1.0-242.0-0.0","0","0","51541","","null","","","null","26","","","","","","","","","","","","","","","",""
"","ITI","","html-keyboard-response","182","419001","0.0-1.0-243.0","0","0","51541","","null","","","null","26","","","","","","","","","","","","","","","NaN",""
"","S1","","html-keyboard-response","183","419257","0.0-1.0-245.0","0","0","51541","","null","","","null","27","","","","","","","","","","","","","","","",""
"","ISI","","html-keyboard-response","184","420265","0.0-1.0-246.0","0","0","51541","","null","","","null","27","NaN","","","","","","","","","","","","","","",""
"","S2","","html-keyboard-response","185","420522","0.0-1.0-247.0","0","0","51541","","null","","","null","27","","NaN","","","","","","","","","","","","","",""
"","response","","html-keyboard-response","186","420547","0.0-1.0-248.0-0.0","0","0","51541","","24","","","75","27","","","1","27","training","adjacent","CB","3","2","N.jpg","M.jpg","1","0","0","",""
"","feedback","","html-keyboard-response","187","421554","0.0-1.0-249.0-0.0","0","0","51541","","null","","","null","27","","","","","","","","","","","","","","","",""
"","time_out","","html-keyboard-response","188","423560","0.0-1.0-251.0-0.0","0","0","51541","","null","","","null","27","","","","","","","","","","","","","","","",""
"","ITI","","html-keyboard-response","189","424568","0.0-1.0-252.0","0","0","51541","","null","","","null","27","","","","","","","","","","","","","","","NaN",""
"","S1","","html-keyboard-response","190","424826","0.0-1.0-254.0","0","0","51541","","null","","","null","28","","","","","","","","","","","","","","","",""
"","ISI","","html-keyboard-response","191","425833","0.0-1.0-255.0","0","0","51541","","null","","","null","28","NaN","","","","","","","","","","","","","","",""
"","S2","","html-keyboard-response","192","426089","0.0-1.0-256.0","0","0","51541","","null","","","null","28","","NaN","","","","","","","","","","","","","",""
"","response","","html-keyboard-response","193","426095","0.0-1.0-257.0-0.0","0","0","51541","","4","","","68","28","","","1","28","training","adjacent","AB","1","2","L.jpg","M.jpg","0","1","0","",""
"","feedback","","html-keyboard-response","194","427107","0.0-1.0-258.0-0.0","0","0","51541","","null","","","null","28","","","","","","","","","","","","","","","",""
"","time_out","","html-keyboard-response","195","429113","0.0-1.0-260.0-0.0","0","0","51541","","null","","","null","28","","","","","","","","","","","","","","","",""
"","ITI","","html-keyboard-response","196","430120","0.0-1.0-261.0","0","0","51541","","null","","","null","28","","","","","","","","","","","","","","","NaN",""
"","S1","","html-keyboard-response","197","430378","0.0-1.0-263.0","0","0","51541","","null","","","null","29","","","","","","","","","","","","","","","",""
"","ISI","","html-keyboard-response","198","431385","0.0-1.0-264.0","0","0","51541","","null","","","null","29","NaN","","","","","","","","","","","","","","",""
"","S2","","html-keyboard-response","199","431623","0.0-1.0-265.0","0","0","51541","","236","","","75","29","","k","1","29","training","adjacent","AB","1","2","L.jpg","M.jpg","1","1","1","",""
"","feedback","","html-keyboard-response","200","432633","0.0-1.0-267.0-0.0","0","0","51541","","null","","","null","29","","","","","","","","","","","","","","","",""
"","ITI","","html-keyboard-response","201","433640","0.0-1.0-270.0","0","0","51541","","null","","","null","29","","","","","","","","","","","","","","","NaN",""
"","S1","","html-keyboard-response","202","433897","0.0-1.0-272.0","0","0","51541","","null","","","null","30","","","","","","","","","","","","","","","",""
"","ISI","","html-keyboard-response","203","434904","0.0-1.0-273.0","0","0","51541","","null","","","null","30","NaN","","","","","","","","","","","","","","",""
"","S2","","html-keyboard-response","204","435148","0.0-1.0-274.0","0","0","51541","","240","","","68","30","","d","1","30","training","adjacent","GF","7","6","P.jpg","O.jpg","0","0","1","",""
"","feedback","","html-keyboard-response","205","436152","0.0-1.0-276.0-0.0","0","0","51541","","null","","","null","30","","","","","","","","","","","","","","","",""
"","ITI","","html-keyboard-response","206","437161","0.0-1.0-279.0","0","0","51541","","null","","","null","30","","","","","","","","","","","","","","","NaN",""
"","S1","","html-keyboard-response","207","437419","0.0-1.0-281.0","0","0","51541","","null","","","null","31","","","","","","","","","","","","","","","",""
"","ISI","","html-keyboard-response","208","438424","0.0-1.0-282.0","0","0","51541","","null","","","null","31","NaN","","","","","","","","","","","","","","",""
"","S2","","html-keyboard-response","209","438680","0.0-1.0-283.0","0","0","51541","","253","","","75","31","","k","1","31","training","adjacent","AB","1","2","L.jpg","M.jpg","1","1","1","",""
"","feedback","","html-keyboard-response","210","439688","0.0-1.0-285.0-0.0","0","0","51541","","null","","","null","31","","","","","","","","","","","","","","","",""
"","ITI","","html-keyboard-response","211","440695","0.0-1.0-288.0","0","0","51541","","null","","","null","31","","","","","","","","","","","","","","","NaN",""
"","S1","","html-keyboard-response","212","440951","0.0-1.0-290.0","0","0","51541","","null","","","null","32","","","","","","","","","","","","","","","",""
"","ISI","","html-keyboard-response","213","441962","0.0-1.0-291.0","0","0","51541","","null","","","null","32","NaN","","","","","","","","","","","","","","",""
"","S2","","html-keyboard-response","214","442224","0.0-1.0-292.0","0","0","51541","","258","","","75","32","","k","1","32","training","adjacent","CD","3","4","N.jpg","Q.jpg","1","1","1","",""
"","feedback","","html-keyboard-response","215","443235","0.0-1.0-294.0-0.0","0","0","51541","","null","","","null","32","","","","","","","","","","","","","","","",""
"","ITI","","html-keyboard-response","216","444244","0.0-1.0-297.0","0","0","51541","","null","","","null","32","","","","","","","","","","","","","","","NaN",""
"","S1","","html-keyboard-response","217","444504","0.0-1.0-299.0","0","0","51541","","null","","","null","33","","","","","","","","","","","","","","","",""
"","ISI","","html-keyboard-response","218","445512","0.0-1.0-300.0","0","0","51541","","null","","","null","33","NaN","","","","","","","","","","","","","","",""
"","S2","","html-keyboard-response","219","445768","0.0-1.0-301.0","0","0","51541","","null","","","null","33","","NaN","","","","","","","","","","","","","",""
"","response","","html-keyboard-response","220","445950","0.0-1.0-302.0-0.0","0","0","51541","","181","","","68","33","","","1","33","training","adjacent","DE","4","5","Q.jpg","R.jpg","0","1","0","",""
"","feedback","","html-keyboard-response","221","446962","0.0-1.0-303.0-0.0","0","0","51541","","null","","","null","33","","","","","","","","","","","","","","","",""
"","time_out","","html-keyboard-response","222","448968","0.0-1.0-305.0-0.0","0","0","51541","","null","","","null","33","","","","","","","","","","","","","","","",""
"","ITI","","html-keyboard-response","223","449977","0.0-1.0-306.0","0","0","51541","","null","","","null","33","","","","","","","","","","","","","","","NaN",""
"","S1","","html-keyboard-response","224","450231","0.0-1.0-308.0","0","0","51541","","null","","","null","34","","","","","","","","","","","","","","","",""
"","ISI","","html-keyboard-response","225","451241","0.0-1.0-309.0","0","0","51541","","null","","","null","34","NaN","","","","","","","","","","","","","","",""
"","S2","","html-keyboard-response","226","451507","0.0-1.0-310.0","0","0","51541","","null","","","null","34","","NaN","","","","","","","","","","","","","",""
"","response","","html-keyboard-response","227","451515","0.0-1.0-311.0-0.0","0","0","51541","","5","","","68","34","","","1","34","training","adjacent","FE","6","5","O.jpg","R.jpg","0","0","1","",""
"","feedback","","html-keyboard-response","228","452530","0.0-1.0-312.0-0.0","0","0","51541","","null","","","null","34","","","","","","","","","","","","","","","",""
"","ITI","","html-keyboard-response","229","453539","0.0-1.0-315.0","0","0","51541","","null","","","null","34","","","","","","","","","","","","","","","NaN",""
"","S1","","html-keyboard-response","230","453802","0.0-1.0-317.0","0","0","51541","","null","","","null","35","","","","","","","","","","","","","","","",""
"","ISI","","html-keyboard-response","231","454808","0.0-1.0-318.0","0","0","51541","","null","","","null","35","NaN","","","","","","","","","","","","","","",""
"","S2","","html-keyboard-response","232","455064","0.0-1.0-319.0","0","0","51541","","null","","","null","35","","NaN","","","","","","","","","","","","","",""
"","response","","html-keyboard-response","233","455405","0.0-1.0-320.0-0.0","0","0","51541","","338","","","75","35","","","1","35","training","adjacent","ED","5","4","R.jpg","Q.jpg","1","0","0","",""
"","feedback","","html-keyboard-response","234","456415","0.0-1.0-321.0-0.0","0","0","51541","","null","","","null","35","","","","","","","","","","","","","","","",""
"","time_out","","html-keyboard-response","235","458423","0.0-1.0-323.0-0.0","0","0","51541","","null","","","null","35","","","","","","","","","","","","","","","",""
"","ITI","","html-keyboard-response","236","459432","0.0-1.0-324.0","0","0","51541","","null","","","null","35","","","","","","","","","","","","","","","NaN",""
"","S1","","html-keyboard-response","237","459687","0.0-1.0-326.0","0","0","51541","","null","","","null","36","","","","","","","","","","","","","","","",""
"","ISI","","html-keyboard-response","238","460697","0.0-1.0-327.0","0","0","51541","","null","","","null","36","NaN","","","","","","","","","","","","","","",""
"","S2","","html-keyboard-response","239","460962","0.0-1.0-328.0","0","0","51541","","null","","","null","36","","NaN","","","","","","","","","","","","","",""
"","response","","html-keyboard-response","240","461223","0.0-1.0-329.0-0.0","0","0","51541","","257","","","68","36","","","1","36","training","adjacent","BA","2","1","M.jpg","L.jpg","0","0","1","",""
"","feedback","","html-keyboard-response","241","462235","0.0-1.0-330.0-0.0","0","0","51541","","null","","","null","36","","","","","","","","","","","","","","","",""
"","ITI","","html-keyboard-response","242","463239","0.0-1.0-333.0","0","0","51541","","null","","","null","36","","","","","","","","","","","","","","","NaN",""
"","S1","","html-keyboard-response","243","463496","0.0-1.0-335.0","0","0","51541","","null","","","null","37","","","","","","","","","","","","","","","",""
"","ISI","","html-keyboard-response","244","464506","0.0-1.0-336.0","0","0","51541","","null","","","null","37","NaN","","","","","","","","","","","","","","",""
"","S2","","html-keyboard-response","245","464770","0.0-1.0-337.0","0","0","51541","","null","","","null","37","","NaN","","","","","","","","","","","","","",""
"","response","","html-keyboard-response","246","464801","0.0-1.0-338.0-0.0","0","0","51541","","29","","","75","37","","","1","37","training","adjacent","FG","6","7","O.jpg","P.jpg","1","1","1","",""
"","feedback","","html-keyboard-response","247","465810","0.0-1.0-339.0-0.0","0","0","51541","","null","","","null","37","","","","","","","","","","","","","","","",""
"","ITI","","html-keyboard-response","248","466817","0.0-1.0-342.0","0","0","51541","","null","","","null","37","","","","","","","","","","","","","","","NaN",""
"","S1","","html-keyboard-response","249","467080","0.0-1.0-344.0","0","0","51541","","null","","","null","38","","","","","","","","","","","","","","","",""
"","ISI","","html-keyboard-response","250","468088","0.0-1.0-345.0","0","0","51541","","null","","","null","38","NaN","","","","","","","","","","","","","","",""
"","S2","","html-keyboard-response","251","468339","0.0-1.0-346.0","0","0","51541","","249","","","68","38","","d","1","38","training","adjacent","FE","6","5","O.jpg","R.jpg","0","0","1","",""
"","feedback","","html-keyboard-response","252","469351","0.0-1.0-348.0-0.0","0","0","51541","","null","","","null","38","","","","","","","","","","","","","","","",""
"","ITI","","html-keyboard-response","253","470359","0.0-1.0-351.0","0","0","51541","","null","","","null","38","","","","","","","","","","","","","","","NaN",""
"","S1","","html-keyboard-response","254","470615","0.0-1.0-353.0","0","0","51541","","null","","","null","39","","","","","","","","","","","","","","","",""
"","ISI","","html-keyboard-response","255","471623","0.0-1.0-354.0","0","0","51541","","null","","","null","39","NaN","","","","","","","","","","","","","","",""
"","S2","","html-keyboard-response","256","471878","0.0-1.0-355.0","0","0","51541","","null","","","null","39","","NaN","","","","","","","","","","","","","",""
"","response","","html-keyboard-response","257","471898","0.0-1.0-356.0-0.0","0","0","51541","","18","","","75","39","","","1","39","training","adjacent","CB","3","2","N.jpg","M.jpg","1","0","0","",""
"","feedback","","html-keyboard-response","258","472903","0.0-1.0-357.0-0.0","0","0","51541","","null","","","null","39","","","","","","","","","","","","","","","",""
"","time_out","","html-keyboard-response","259","474913","0.0-1.0-359.0-0.0","0","0","51541","","null","","","null","39","","","","","","","","","","","","","","","",""
"","ITI","","html-keyboard-response","260","475921","0.0-1.0-360.0","0","0","51541","","null","","","null","39","","","","","","","","","","","","","","","NaN",""
"","S1","","html-keyboard-response","261","476185","0.0-1.0-362.0","0","0","51541","","null","","","null","40","","","","","","","","","","","","","","","",""
"","ISI","","html-keyboard-response","262","477190","0.0-1.0-363.0","0","0","51541","","null","","","null","40","NaN","","","","","","","","","","","","","","",""
"","S2","","html-keyboard-response","263","477447","0.0-1.0-364.0","0","0","51541","","null","","","null","40","","NaN","","","","","","","","","","","","","",""
"","response","","html-keyboard-response","264","477520","0.0-1.0-365.0-0.0","0","0","51541","","72","","","75","40","","","1","40","training","adjacent","FE","6","5","O.jpg","R.jpg","1","0","0","",""
"","feedback","","html-keyboard-response","265","478530","0.0-1.0-366.0-0.0","0","0","51541","","null","","","null","40","","","","","","","","","","","","","","","",""
"","time_out","","html-keyboard-response","266","480537","0.0-1.0-368.0-0.0","0","0","51541","","null","","","null","40","","","","","","","","","","","","","","","",""
"","ITI","","html-keyboard-response","267","481543","0.0-1.0-369.0","0","0","51541","","null","","","null","40","","","","","","","","","","","","","","","NaN",""
"","S1","","html-keyboard-response","268","481799","0.0-1.0-371.0","0","0","51541","","null","","","null","41","","","","","","","","","","","","","","","",""
"","ISI","","html-keyboard-response","269","482806","0.0-1.0-372.0","0","0","51541","","null","","","null","41","NaN","","","","","","","","","","","","","","",""
"","S2","","html-keyboard-response","270","483042","0.0-1.0-373.0","0","0","51541","","234","","","68","41","","d","1","41","training","adjacent","BA","2","1","M.jpg","L.jpg","0","0","1","",""
"","feedback","","html-keyboard-response","271","484049","0.0-1.0-375.0-0.0","0","0","51541","","null","","","null","41","","","","","","","","","","","","","","","",""
"","ITI","","html-keyboard-response","272","485058","0.0-1.0-378.0","0","0","51541","","null","","","null","41","","","","","","","","","","","","","","","NaN",""
"","S1","","html-keyboard-response","273","485321","0.0-1.0-380.0","0","0","51541","","null","","","null","42","","","","","","","","","","","","","","","",""
"","ISI","","html-keyboard-response","274","486326","0.0-1.0-381.0","0","0","51541","","null","","","null","42","NaN","","","","","","","","","","","","","","",""
"","S2","","html-keyboard-response","275","486583","0.0-1.0-382.0","0","0","51541","","null","","","null","42","","NaN","","","","","","","","","","","","","",""
"","response","","html-keyboard-response","276","488341","0.0-1.0-383.0-0.0","0","0","51541","","null","","","null","42","","","1","42","training","adjacent","ED","5","4","R.jpg","Q.jpg","NaN","0","0","",""
"","too_slow_prompt","","html-keyboard-response","277","489350","0.0-1.0-385.0-0.0","1","0","51541","","null","","","null","","","","","","","","","","","","","","","","",""
"","time_out","","html-keyboard-response","278","491361","0.0-1.0-386.0-0.0","0","0","51541","","null","","","null","42","","","","","","","","","","","","","","","",""
"","ITI","","html-keyboard-response","279","492369","0.0-1.0-387.0","0","0","51541","","null","","","null","42","","","","","","","","","","","","","","","NaN",""
"","S1","","html-keyboard-response","280","492631","0.0-1.0-389.0","0","0","51541","","null","","","null","43","","","","","","","","","","","","","","","",""
"","ISI","","html-keyboard-response","281","493637","0.0-1.0-390.0","0","0","51541","","null","","","null","43","NaN","","","","","","","","","","","","","","",""
"","S2","","html-keyboard-response","282","493895","0.0-1.0-391.0","0","0","51541","","null","","","null","43","","NaN","","","","","","","","","","","","","",""
"","response","","html-keyboard-response","283","494556","0.0-1.0-392.0-0.0","0","0","51541","","659","","","75","43","","","1","43","training","adjacent","EF","5","6","R.jpg","O.jpg","1","1","1","",""
"","feedback","","html-keyboard-response","284","495568","0.0-1.0-393.0-0.0","0","0","51541","","null","","","null","43","","","","","","","","","","","","","","","",""
"","ITI","","html-keyboard-response","285","496574","0.0-1.0-396.0","0","0","51541","","null","","","null","43","","","","","","","","","","","","","","","NaN",""
"","S1","","html-keyboard-response","286","496833","0.0-1.0-398.0","0","0","51541","","null","","","null","44","","","","","","","","","","","","","","","",""
"","ISI","","html-keyboard-response","287","497839","0.0-1.0-399.0","0","0","51541","","null","","","null","44","NaN","","","","","","","","","","","","","","",""
"","S2","","html-keyboard-response","288","498097","0.0-1.0-400.0","0","0","51541","","null","","","null","44","","NaN","","","","","","","","","","","","","",""
"","response","","html-keyboard-response","289","499038","0.0-1.0-401.0-0.0","0","0","51541","","938","","","75","44","","","1","44","training","adjacent","BC","2","3","M.jpg","N.jpg","1","1","1","",""
"","feedback","","html-keyboard-response","290","500048","0.0-1.0-402.0-0.0","0","0","51541","","null","","","null","44","","","","","","","","","","","","","","","",""
"","ITI","","html-keyboard-response","291","501057","0.0-1.0-405.0","0","0","51541","","null","","","null","44","","","","","","","","","","","","","","","NaN",""
"","S1","","html-keyboard-response","292","501317","0.0-1.0-407.0","0","0","51541","","null","","","null","45","","","","","","","","","","","","","","","",""
"","ISI","","html-keyboard-response","293","502326","0.0-1.0-408.0","0","0","51541","","null","","","null","45","NaN","","","","","","","","","","","","","","",""
"","S2","","html-keyboard-response","294","502582","0.0-1.0-409.0","0","0","51541","","null","","","null","45","","NaN","","","","","","","","","","","","","",""
"","response","","html-keyboard-response","295","502866","0.0-1.0-410.0-0.0","0","0","51541","","282","","","68","45","","","1","45","training","adjacent","FG","6","7","O.jpg","P.jpg","0","1","0","",""
"","feedback","","html-keyboard-response","296","503879","0.0-1.0-411.0-0.0","0","0","51541","","null","","","null","45","","","","","","","","","","","","","","","",""
"","time_out","","html-keyboard-response","297","505889","0.0-1.0-413.0-0.0","0","0","51541","","null","","","null","45","","","","","","","","","","","","","","","",""
"","ITI","","html-keyboard-response","298","506897","0.0-1.0-414.0","0","0","51541","","null","","","null","45","","","","","","","","","","","","","","","NaN",""
"","S1","","html-keyboard-response","299","507157","0.0-1.0-416.0","0","0","51541","","null","","","null","46","","","","","","","","","","","","","","","",""
"","ISI","","html-keyboard-response","300","508166","0.0-1.0-417.0","0","0","51541","","578","","","75","46","k","","","","","","","","","","","","","","",""
"","S2","","html-keyboard-response","301","508388","0.0-1.0-418.0","0","0","51541","","220","","","75","46","","k","1","46","training","adjacent","FG","6","7","O.jpg","P.jpg","1","1","1","",""
"","feedback","","html-keyboard-response","302","509398","0.0-1.0-420.0-0.0","0","0","51541","","null","","","null","46","","","","","","","","","","","","","","","",""
"","ITI","","html-keyboard-response","303","510406","0.0-1.0-423.0","0","0","51541","","null","","","null","46","","","","","","","","","","","","","","","NaN",""
"","S1","","html-keyboard-response","304","510661","0.0-1.0-425.0","0","0","51541","","null","","","null","47","","","","","","","","","","","","","","","",""
"","ISI","","html-keyboard-response","305","511669","0.0-1.0-426.0","0","0","51541","","null","","","null","47","NaN","","","","","","","","","","","","","","",""
"","S2","","html-keyboard-response","306","511927","0.0-1.0-427.0","0","0","51541","","null","","","null","47","","NaN","","","","","","","","","","","","","",""
"","response","","html-keyboard-response","307","512641","0.0-1.0-428.0-0.0","0","0","51541","","711","","","68","47","","","1","47","training","adjacent","FG","6","7","O.jpg","P.jpg","0","1","0","",""
"","feedback","","html-keyboard-response","308","513648","0.0-1.0-429.0-0.0","0","0","51541","","null","","","null","47","","","","","","","","","","","","","","","",""
"","time_out","","html-keyboard-response","309","515653","0.0-1.0-431.0-0.0","0","0","51541","","null","","","null","47","","","","","","","","","","","","","","","",""
"","ITI","","html-keyboard-response","310","516661","0.0-1.0-432.0","0","0","51541","","null","","","null","47","","","","","","","","","","","","","","","NaN",""
"","block_over","","html-keyboard-response","311","560979","0.0-1.0-433.0-0.0","0","0","51541","","44314","","","32","47","","","","","","","","","","","","","","","",""
"","S1","","html-keyboard-response","312","561236","0.0-1.0-434.0","0","0","51541","","null","","","null","48","","","","","","","","","","","","","","","",""
"","ISI","","html-keyboard-response","313","562245","0.0-1.0-435.0","0","0","51541","","null","","","null","48","NaN","","","","","","","","","","","","","","",""
"","S2","","html-keyboard-response","314","562500","0.0-1.0-436.0","0","0","51541","","null","","","null","48","","NaN","","","","","","","","","","","","","",""
"","response","","html-keyboard-response","315","562758","0.0-1.0-437.0-0.0","0","0","51541","","255","","","75","48","","","2","48","training","adjacent","GF","7","6","P.jpg","O.jpg","1","0","0","",""
"","feedback","","html-keyboard-response","316","563764","0.0-1.0-438.0-0.0","0","0","51541","","null","","","null","48","","","","","","","","","","","","","","","",""
"","time_out","","html-keyboard-response","317","565775","0.0-1.0-440.0-0.0","0","0","51541","","null","","","null","48","","","","","","","","","","","","","","","",""
"","ITI","","html-keyboard-response","318","566783","0.0-1.0-441.0","0","0","51541","","null","","","null","48","","","","","","","","","","","","","","","NaN",""
"","S1","","html-keyboard-response","319","567044","0.0-1.0-443.0","0","0","51541","","null","","","null","49","","","","","","","","","","","","","","","",""
"","ISI","","html-keyboard-response","320","568052","0.0-1.0-444.0","0","0","51541","","null","","","null","49","NaN","","","","","","","","","","","","","","",""
"","S2","","html-keyboard-response","321","568308","0.0-1.0-445.0","0","0","51541","","null","","","null","49","","NaN","","","","","","","","","","","","","",""
"","response","","html-keyboard-response","322","568404","0.0-1.0-446.0-0.0","0","0","51541","","94","","","68","49","","","2","49","training","adjacent","BA","2","1","M.jpg","L.jpg","0","0","1","",""
"","feedback","","html-keyboard-response","323","569412","0.0-1.0-447.0-0.0","0","0","51541","","null","","","null","49","","","","","","","","","","","","","","","",""
"","ITI","","html-keyboard-response","324","570419","0.0-1.0-450.0","0","0","51541","","null","","","null","49","","","","","","","","","","","","","","","NaN",""
"","S1","","html-keyboard-response","325","570676","0.0-1.0-452.0","0","0","51541","","null","","","null","50","","","","","","","","","","","","","","","",""
"","ISI","","html-keyboard-response","326","571684","0.0-1.0-453.0","0","0","51541","","null","","","null","50","NaN","","","","","","","","","","","","","","",""
"","S2","","html-keyboard-response","327","571940","0.0-1.0-454.0","0","0","51541","","null","","","null","50","","NaN","","","","","","","","","","","","","",""
"","response","","html-keyboard-response","328","572209","0.0-1.0-455.0-0.0","0","0","51541","","266","","","68","50","","","2","50","training","adjacent","BA","2","1","M.jpg","L.jpg","0","0","1","",""
"","feedback","","html-keyboard-response","329","573220","0.0-1.0-456.0-0.0","0","0","51541","","null","","","null","50","","","","","","","","","","","","","","","",""
"","ITI","","html-keyboard-response","330","574228","0.0-1.0-459.0","0","0","51541","","null","","","null","50","","","","","","","","","","","","","","","NaN",""
"","S1","","html-keyboard-response","331","574484","0.0-1.0-461.0","0","0","51541","","null","","","null","51","","","","","","","","","","","","","","","",""
"","ISI","","html-keyboard-response","332","575495","0.0-1.0-462.0","0","0","51541","","null","","","null","51","NaN","","","","","","","","","","","","","","",""
"","S2","","html-keyboard-response","333","575758","0.0-1.0-463.0","0","0","51541","","null","","","null","51","","NaN","","","","","","","","","","","","","",""
"","response","","html-keyboard-response","334","575769","0.0-1.0-464.0-0.0","0","0","51541","","8","","","68","51","","","2","51","training","adjacent","BC","2","3","M.jpg","N.jpg","0","1","0","",""
"","feedback","","html-keyboard-response","335","576783","0.0-1.0-465.0-0.0","0","0","51541","","null","","","null","51","","","","","","","","","","","","","","","",""
"","time_out","","html-keyboard-response","336","578787","0.0-1.0-467.0-0.0","0","0","51541","","null","","","null","51","","","","","","","","","","","","","","","",""
"","ITI","","html-keyboard-response","337","579795","0.0-1.0-468.0","0","0","51541","","null","","","null","51","","","","","","","","","","","","","","","NaN",""
"","S1","","html-keyboard-response","338","580052","0.0-1.0-470.0","0","0","51541","","null","","","null","52","","","","","","","","","","","","","","","",""
"","ISI","","html-keyboard-response","339","581059","0.0-1.0-471.0","0","0","51541","","null","","","null","52","NaN","","","","","","","","","","","","","","",""
"","S2","","html-keyboard-response","340","581315","0.0-1.0-472.0","0","0","51541","","null","","","null","52","","NaN","","","","","","","","","","","","","",""
"","response","","html-keyboard-response","341","581684","0.0-1.0-473.0-0.0","0","0","51541","","367","","","75","52","","","2","52","training","adjacent","EF","5","6","R.jpg","O.jpg","1","1","1","",""
"","feedback","","html-keyboard-response","342","582693","0.0-1.0-474.0-0.0","0","0","51541","","null","","","null","52","","","","","","","","","","","","","","","",""
"","ITI","","html-keyboard-response","343","583699","0.0-1.0-477.0","0","0","51541","","null","","","null","52","","","","","","","","","","","","","","","NaN",""
"","S1","","html-keyboard-response","344","583954","0.0-1.0-479.0","0","0","51541","","null","","","null","53","","","","","","","","","","","","","","","",""
"","ISI","","html-keyboard-response","345","584963","0.0-1.0-480.0","0","0","51541","","null","","","null","53","NaN","","","","","","","","","","","","","","",""
"","S2","","html-keyboard-response","346","585220","0.0-1.0-481.0","0","0","51541","","null","","","null","53","","NaN","","","","","","","","","","","","","",""
"","response","","html-keyboard-response","347","585543","0.0-1.0-482.0-0.0","0","0","51541","","321","","","75","53","","","2","53","training","adjacent","GF","7","6","P.jpg","O.jpg","1","0","0","",""
"","feedback","","html-keyboard-response","348","586558","0.0-1.0-483.0-0.0","0","0","51541","","null","","","null","53","","","","","","","","","","","","","","","",""
"","time_out","","html-keyboard-response","349","588564","0.0-1.0-485.0-0.0","0","0","51541","","null","","","null","53","","","","","","","","","","","","","","","",""
"","ITI","","html-keyboard-response","350","589571","0.0-1.0-486.0","0","0","51541","","null","","","null","53","","","","","","","","","","","","","","","NaN",""
"","S1","","html-keyboard-response","351","589828","0.0-1.0-488.0","0","0","51541","","null","","","null","54","","","","","","","","","","","","","","","",""
"","ISI","","html-keyboard-response","352","590836","0.0-1.0-489.0","0","0","51541","","null","","","null","54","NaN","","","","","","","","","","","","","","",""
"","S2","","html-keyboard-response","353","591091","0.0-1.0-490.0","0","0","51541","","null","","","null","54","","NaN","","","","","","","","","","","","","",""
"","response","","html-keyboard-response","354","591267","0.0-1.0-491.0-0.0","0","0","51541","","174","","","75","54","","","2","54","training","adjacent","DC","4","3","Q.jpg","N.jpg","1","0","0","",""
"","feedback","","html-keyboard-response","355","592275","0.0-1.0-492.0-0.0","0","0","51541","","null","","","null","54","","","","","","","","","","","","","","","",""
"","time_out","","html-keyboard-response","356","594286","0.0-1.0-494.0-0.0","0","0","51541","","null","","","null","54","","","","","","","","","","","","","","","",""
"","ITI","","html-keyboard-response","357","595290","0.0-1.0-495.0","0","0","51541","","null","","","null","54","","","","","","","","","","","","","","","NaN",""
"","S1","","html-keyboard-response","358","595550","0.0-1.0-497.0","0","0","51541","","null","","","null","55","","","","","","","","","","","","","","","",""
"","ISI","","html-keyboard-response","359","596557","0.0-1.0-498.0","0","0","51541","","null","","","null","55","NaN","","","","","","","","","","","","","","",""
"","S2","","html-keyboard-response","360","596819","0.0-1.0-499.0","0","0","51541","","null","","","null","55","","NaN","","","","","","","","","","","","","",""
"","response","","html-keyboard-response","361","597153","0.0-1.0-500.0-0.0","0","0","51541","","332","","","68","55","","","2","55","training","adjacent","CB","3","2","N.jpg","M.jpg","0","0","1","",""
"","feedback","","html-keyboard-response","362","598163","0.0-1.0-501.0-0.0","0","0","51541","","null","","","null","55","","","","","","","","","","","","","","","",""
"","ITI","","html-keyboard-response","363","599171","0.0-1.0-504.0","0","0","51541","","null","","","null","55","","","","","","","","","","","","","","","NaN",""
"","S1","","html-keyboard-response","364","599426","0.0-1.0-506.0","0","0","51541","","null","","","null","56","","","","","","","","","","","","","","","",""
"","ISI","","html-keyboard-response","365","600435","0.0-1.0-507.0","0","0","51541","","null","","","null","56","NaN","","","","","","","","","","","","","","",""
"","S2","","html-keyboard-response","366","600691","0.0-1.0-508.0","0","0","51541","","null","","","null","56","","NaN","","","","","","","","","","","","","",""
"","response","","html-keyboard-response","367","601200","0.0-1.0-509.0-0.0","0","0","51541","","506","","","68","56","","","2","56","training","adjacent","DE","4","5","Q.jpg","R.jpg","0","1","0","",""
"","feedback","","html-keyboard-response","368","602211","0.0-1.0-510.0-0.0","0","0","51541","","null","","","null","56","","","","","","","","","","","","","","","",""
"","time_out","","html-keyboard-response","369","604221","0.0-1.0-512.0-0.0","0","0","51541","","null","","","null","56","","","","","","","","","","","","","","","",""
"","ITI","","html-keyboard-response","370","605229","0.0-1.0-513.0","0","0","51541","","null","","","null","56","","","","","","","","","","","","","","","NaN",""
"","S1","","html-keyboard-response","371","605491","0.0-1.0-515.0","0","0","51541","","null","","","null","57","","","","","","","","","","","","","","","",""
"","ISI","","html-keyboard-response","372","606499","0.0-1.0-516.0","0","0","51541","","null","","","null","57","NaN","","","","","","","","","","","","","","",""
"","S2","","html-keyboard-response","373","606755","0.0-1.0-517.0","0","0","51541","","null","","","null","57","","NaN","","","","","","","","","","","","","",""
"","response","","html-keyboard-response","374","607029","0.0-1.0-518.0-0.0","0","0","51541","","271","","","75","57","","","2","57","training","adjacent","ED","5","4","R.jpg","Q.jpg","1","0","0","",""
"","feedback","","html-keyboard-response","375","608035","0.0-1.0-519.0-0.0","0","0","51541","","null","","","null","57","","","","","","","","","","","","","","","",""
"","time_out","","html-keyboard-response","376","610045","0.0-1.0-521.0-0.0","0","0","51541","","null","","","null","57","","","","","","","","","","","","","","","",""
"","ITI","","html-keyboard-response","377","611052","0.0-1.0-522.0","0","0","51541","","null","","","null","57","","","","","","","","","","","","","","","NaN",""
"","S1","","html-keyboard-response","378","611309","0.0-1.0-524.0","0","0","51541","","null","","","null","58","","","","","","","","","","","","","","","",""
"","ISI","","html-keyboard-response","379","612316","0.0-1.0-525.0","0","0","51541","","null","","","null","58","NaN","","","","","","","","","","","","","","",""
"","S2","","html-keyboard-response","380","612578","0.0-1.0-526.0","0","0","51541","","null","","","null","58","","NaN","","","","","","","","","","","","","",""
"","response","","html-keyboard-response","381","612997","0.0-1.0-527.0-0.0","0","0","51541","","417","","","68","58","","","2","58","training","adjacent","FG","6","7","O.jpg","P.jpg","0","1","0","",""
"","feedback","","html-keyboard-response","382","614003","0.0-1.0-528.0-0.0","0","0","51541","","null","","","null","58","","","","","","","","","","","","","","","",""
"","time_out","","html-keyboard-response","383","616013","0.0-1.0-530.0-0.0","0","0","51541","","null","","","null","58","","","","","","","","","","","","","","","",""
"","ITI","","html-keyboard-response","384","617021","0.0-1.0-531.0","0","0","51541","","null","","","null","58","","","","","","","","","","","","","","","NaN",""
"","S1","","html-keyboard-response","385","617282","0.0-1.0-533.0","0","0","51541","","null","","","null","59","","","","","","","","","","","","","","","",""
"","ISI","","html-keyboard-response","386","618290","0.0-1.0-534.0","0","0","51541","","null","","","null","59","NaN","","","","","","","","","","","","","","",""
"","S2","","html-keyboard-response","387","618546","0.0-1.0-535.0","0","0","51541","","null","","","null","59","","NaN","","","","","","","","","","","","","",""
"","response","","html-keyboard-response","388","618678","0.0-1.0-536.0-0.0","0","0","51541","","130","","","68","59","","","2","59","training","adjacent","CD","3","4","N.jpg","Q.jpg","0","1","0","",""
"","feedback","","html-keyboard-response","389","619692","0.0-1.0-537.0-0.0","0","0","51541","","null","","","null","59","","","","","","","","","","","","","","","",""
"","time_out","","html-keyboard-response","390","621699","0.0-1.0-539.0-0.0","0","0","51541","","null","","","null","59","","","","","","","","","","","","","","","",""
"","ITI","","html-keyboard-response","391","622705","0.0-1.0-540.0","0","0","51541","","null","","","null","59","","","","","","","","","","","","","","","NaN",""
"","S1","","html-keyboard-response","392","622962","0.0-1.0-542.0","0","0","51541","","null","","","null","60","","","","","","","","","","","","","","","",""
"","ISI","","html-keyboard-response","393","623969","0.0-1.0-543.0","0","0","51541","","null","","","null","60","NaN","","","","","","","","","","","","","","",""
"","S2","","html-keyboard-response","394","624225","0.0-1.0-544.0","0","0","51541","","null","","","null","60","","NaN","","","","","","","","","","","","","",""
"","response","","html-keyboard-response","395","624250","0.0-1.0-545.0-0.0","0","0","51541","","23","","","75","60","","","2","60","training","adjacent","FE","6","5","O.jpg","R.jpg","1","0","0","",""
"","feedback","","html-keyboard-response","396","625259","0.0-1.0-546.0-0.0","0","0","51541","","null","","","null","60","","","","","","","","","","","","","","","",""
"","time_out","","html-keyboard-response","397","627267","0.0-1.0-548.0-0.0","0","0","51541","","null","","","null","60","","","","","","","","","","","","","","","",""
"","ITI","","html-keyboard-response","398","628274","0.0-1.0-549.0","0","0","51541","","null","","","null","60","","","","","","","","","","","","","","","NaN",""
"","S1","","html-keyboard-response","399","628530","0.0-1.0-551.0","0","0","51541","","null","","","null","61","","","","","","","","","","","","","","","",""
"","ISI","","html-keyboard-response","400","629538","0.0-1.0-552.0","0","0","51541","","null","","","null","61","NaN","","","","","","","","","","","","","","",""
"","S2","","html-keyboard-response","401","629793","0.0-1.0-553.0","0","0","51541","","null","","","null","61","","NaN","","","","","","","","","","","","","",""
"","response","","html-keyboard-response","402","629900","0.0-1.0-554.0-0.0","0","0","51541","","105","","","68","61","","","2","61","training","adjacent","AB","1","2","L.jpg","M.jpg","0","1","0","",""
"","feedback","","html-keyboard-response","403","630909","0.0-1.0-555.0-0.0","0","0","51541","","null","","","null","61","","","","","","","","","","","","","","","",""
"","time_out","","html-keyboard-response","404","632914","0.0-1.0-557.0-0.0","0","0","51541","","null","","","null","61","","","","","","","","","","","","","","","",""
"","ITI","","html-keyboard-response","405","633922","0.0-1.0-558.0","0","0","51541","","null","","","null","61","","","","","","","","","","","","","","","NaN",""
"","S1","","html-keyboard-response","406","634177","0.0-1.0-560.0","0","0","51541","","null","","","null","62","","","","","","","","","","","","","","","",""
"","ISI","","html-keyboard-response","407","635185","0.0-1.0-561.0","0","0","51541","","null","","","null","62","NaN","","","","","","","","","","","","","","",""
"","S2","","html-keyboard-response","408","635442","0.0-1.0-562.0","0","0","51541","","null","","","null","62","","NaN","","","","","","","","","","","","","",""
"","response","","html-keyboard-response","409","635532","0.0-1.0-563.0-0.0","0","0","51541","","87","","","75","62","","","2","62","training","adjacent","FE","6","5","O.jpg","R.jpg","1","0","0","",""
"","feedback","","html-keyboard-response","410","636539","0.0-1.0-564.0-0.0","0","0","51541","","null","","","null","62","","","","","","","","","","","","","","","",""
"","time_out","","html-keyboard-response","411","638544","0.0-1.0-566.0-0.0","0","0","51541","","null","","","null","62","","","","","","","","","","","","","","","",""
"","ITI","","html-keyboard-response","412","639553","0.0-1.0-567.0","0","0","51541","","null","","","null","62","","","","","","","","","","","","","","","NaN",""
"","S1","","html-keyboard-response","413","639808","0.0-1.0-569.0","0","0","51541","","null","","","null","63","","","","","","","","","","","","","","","",""
"","ISI","","html-keyboard-response","414","640816","0.0-1.0-570.0","0","0","51541","","null","","","null","63","NaN","","","","","","","","","","","","","","",""
"","S2","","html-keyboard-response","415","641072","0.0-1.0-571.0","0","0","51541","","null","","","null","63","","NaN","","","","","","","","","","","","","",""
"","response","","html-keyboard-response","416","641207","0.0-1.0-572.0-0.0","0","0","51541","","133","","","68","63","","","2","63","training","adjacent","CD","3","4","N.jpg","Q.jpg","0","1","0","",""
"","feedback","","html-keyboard-response","417","642220","0.0-1.0-573.0-0.0","0","0","51541","","null","","","null","63","","","","","","","","","","","","","","","",""
"","time_out","","html-keyboard-response","418","644224","0.0-1.0-575.0-0.0","0","0","51541","","null","","","null","63","","","","","","","","","","","","","","","",""
"","ITI","","html-keyboard-response","419","645232","0.0-1.0-576.0","0","0","51541","","null","","","null","63","","","","","","","","","","","","","","","NaN",""
"","S1","","html-keyboard-response","420","645488","0.0-1.0-578.0","0","0","51541","","null","","","null","64","","","","","","","","","","","","","","","",""
"","ISI","","html-keyboard-response","421","646496","0.0-1.0-579.0","0","0","51541","","null","","","null","64","NaN","","","","","","","","","","","","","","",""
"","S2","","html-keyboard-response","422","646753","0.0-1.0-580.0","0","0","51541","","null","","","null","64","","NaN","","","","","","","","","","","","","",""
"","response","","html-keyboard-response","423","647021","0.0-1.0-581.0-0.0","0","0","51541","","265","","","68","64","","","2","64","training","adjacent","DC","4","3","Q.jpg","N.jpg","0","0","1","",""
"","feedback","","html-keyboard-response","424","648033","0.0-1.0-582.0-0.0","0","0","51541","","null","","","null","64","","","","","","","","","","","","","","","",""
"","ITI","","html-keyboard-response","425","649040","0.0-1.0-585.0","0","0","51541","","null","","","null","64","","","","","","","","","","","","","","","NaN",""
"","S1","","html-keyboard-response","426","649296","0.0-1.0-587.0","0","0","51541","","null","","","null","65","","","","","","","","","","","","","","","",""
"","ISI","","html-keyboard-response","427","650305","0.0-1.0-588.0","0","0","51541","","null","","","null","65","NaN","","","","","","","","","","","","","","",""
"","S2","","html-keyboard-response","428","650561","0.0-1.0-589.0","0","0","51541","","null","","","null","65","","NaN","","","","","","","","","","","","","",""
"","response","","html-keyboard-response","429","650683","0.0-1.0-590.0-0.0","0","0","51541","","120","","","75","65","","","2","65","training","adjacent","EF","5","6","R.jpg","O.jpg","1","1","1","",""
"","feedback","","html-keyboard-response","430","651692","0.0-1.0-591.0-0.0","0","0","51541","","null","","","null","65","","","","","","","","","","","","","","","",""
"","ITI","","html-keyboard-response","431","652699","0.0-1.0-594.0","0","0","51541","","null","","","null","65","","","","","","","","","","","","","","","NaN",""
"","S1","","html-keyboard-response","432","652961","0.0-1.0-596.0","0","0","51541","","null","","","null","66","","","","","","","","","","","","","","","",""
"","ISI","","html-keyboard-response","433","653969","0.0-1.0-597.0","0","0","51541","","null","","","null","66","NaN","","","","","","","","","","","","","","",""
"","S2","","html-keyboard-response","434","654225","0.0-1.0-598.0","0","0","51541","","null","","","null","66","","NaN","","","","","","","","","","","","","",""
"","response","","html-keyboard-response","435","654551","0.0-1.0-599.0-0.0","0","0","51541","","324","","","68","66","","","2","66","training","adjacent","FG","6","7","O.jpg","P.jpg","0","1","0","",""
"","feedback","","html-keyboard-response","436","655564","0.0-1.0-600.0-0.0","0","0","51541","","null","","","null","66","","","","","","","","","","","","","","","",""
"","time_out","","html-keyboard-response","437","657570","0.0-1.0-602.0-0.0","0","0","51541","","null","","","null","66","","","","","","","","","","","","","","","",""
"","ITI","","html-keyboard-response","438","658577","0.0-1.0-603.0","0","0","51541","","null","","","null","66","","","","","","","","","","","","","","","NaN",""
"","S1","","html-keyboard-response","439","658833","0.0-1.0-605.0","0","0","51541","","null","","","null","67","","","","","","","","","","","","","","","",""
"","ISI","","html-keyboard-response","440","659841","0.0-1.0-606.0","0","0","51541","","null","","","null","67","NaN","","","","","","","","","","","","","","",""
"","S2","","html-keyboard-response","441","660097","0.0-1.0-607.0","0","0","51541","","null","","","null","67","","NaN","","","","","","","","","","","","","",""
"","response","","html-keyboard-response","442","660326","0.0-1.0-608.0-0.0","0","0","51541","","227","","","68","67","","","2","67","training","adjacent","AB","1","2","L.jpg","M.jpg","0","1","0","",""
"","feedback","","html-keyboard-response","443","661338","0.0-1.0-609.0-0.0","0","0","51541","","null","","","null","67","","","","","","","","","","","","","","","",""
"","time_out","","html-keyboard-response","444","663344","0.0-1.0-611.0-0.0","0","0","51541","","null","","","null","67","","","","","","","","","","","","","","","",""
"","ITI","","html-keyboard-response","445","664353","0.0-1.0-612.0","0","0","51541","","null","","","null","67","","","","","","","","","","","","","","","NaN",""
"","S1","","html-keyboard-response","446","664609","0.0-1.0-614.0","0","0","51541","","null","","","null","68","","","","","","","","","","","","","","","",""
"","ISI","","html-keyboard-response","447","665619","0.0-1.0-615.0","0","0","51541","","null","","","null","68","NaN","","","","","","","","","","","","","","",""
"","S2","","html-keyboard-response","448","665876","0.0-1.0-616.0","0","0","51541","","null","","","null","68","","NaN","","","","","","","","","","","","","",""
"","response","","html-keyboard-response","449","666070","0.0-1.0-617.0-0.0","0","0","51541","","192","","","75","68","","","2","68","training","adjacent","EF","5","6","R.jpg","O.jpg","1","1","1","",""
"","feedback","","html-keyboard-response","450","667081","0.0-1.0-618.0-0.0","0","0","51541","","null","","","null","68","","","","","","","","","","","","","","","",""
"","ITI","","html-keyboard-response","451","668092","0.0-1.0-621.0","0","0","51541","","null","","","null","68","","","","","","","","","","","","","","","NaN",""
"","S1","","html-keyboard-response","452","668356","0.0-1.0-623.0","0","0","51541","","null","","","null","69","","","","","","","","","","","","","","","",""
"","ISI","","html-keyboard-response","453","669365","0.0-1.0-624.0","0","0","51541","","null","","","null","69","NaN","","","","","","","","","","","","","","",""
"","S2","","html-keyboard-response","454","669627","0.0-1.0-625.0","0","0","51541","","null","","","null","69","","NaN","","","","","","","","","","","","","",""
"","response","","html-keyboard-response","455","669734","0.0-1.0-626.0-0.0","0","0","51541","","104","","","75","69","","","2","69","training","adjacent","EF","5","6","R.jpg","O.jpg","1","1","1","",""
"","feedback","","html-keyboard-response","456","670743","0.0-1.0-627.0-0.0","0","0","51541","","null","","","null","69","","","","","","","","","","","","","","","",""
"","ITI","","html-keyboard-response","457","671754","0.0-1.0-630.0","0","0","51541","","null","","","null","69","","","","","","","","","","","","","","","NaN",""
"","S1","","html-keyboard-response","458","672016","0.0-1.0-632.0","0","0","51541","","null","","","null","70","","","","","","","","","","","","","","","",""
"","ISI","","html-keyboard-response","459","673026","0.0-1.0-633.0","0","0","51541","","null","","","null","70","NaN","","","","","","","","","","","","","","",""
"","S2","","html-keyboard-response","460","673281","0.0-1.0-634.0","0","0","51541","","null","","","null","70","","NaN","","","","","","","","","","","","","",""
"","response","","html-keyboard-response","461","673413","0.0-1.0-635.0-0.0","0","0","51541","","131","","","68","70","","","2","70","training","adjacent","DC","4","3","Q.jpg","N.jpg","0","0","1","",""
"","feedback","","html-keyboard-response","462","674418","0.0-1.0-636.0-0.0","0","0","51541","","null","","","null","70","","","","","","","","","","","","","","","",""
"","ITI","","html-keyboard-response","463","675426","0.0-1.0-639.0","0","0","51541","","null","","","null","70","","","","","","","","","","","","","","","NaN",""
"","S1","","html-keyboard-response","464","675684","0.0-1.0-641.0","0","0","51541","","null","","","null","71","","","","","","","","","","","","","","","",""
"","ISI","","html-keyboard-response","465","676692","0.0-1.0-642.0","0","0","51541","","null","","","null","71","NaN","","","","","","","","","","","","","","",""
"","S2","","html-keyboard-response","466","676949","0.0-1.0-643.0","0","0","51541","","null","","","null","71","","NaN","","","","","","","","","","","","","",""
"","response","","html-keyboard-response","467","677350","0.0-1.0-644.0-0.0","0","0","51541","","400","","","68","71","","","2","71","training","adjacent","CB","3","2","N.jpg","M.jpg","0","0","1","",""
"","feedback","","html-keyboard-response","468","678358","0.0-1.0-645.0-0.0","0","0","51541","","null","","","null","71","","","","","","","","","","","","","","","",""
"","ITI","","html-keyboard-response","469","679368","0.0-1.0-648.0","0","0","51541","","null","","","null","71","","","","","","","","","","","","","","","NaN",""
"","S1","","html-keyboard-response","470","679624","0.0-1.0-650.0","0","0","51541","","null","","","null","72","","","","","","","","","","","","","","","",""
"","ISI","","html-keyboard-response","471","680632","0.0-1.0-651.0","0","0","51541","","null","","","null","72","NaN","","","","","","","","","","","","","","",""
"","S2","","html-keyboard-response","472","680888","0.0-1.0-652.0","0","0","51541","","null","","","null","72","","NaN","","","","","","","","","","","","","",""
"","response","","html-keyboard-response","473","680993","0.0-1.0-653.0-0.0","0","0","51541","","103","","","68","72","","","2","72","training","adjacent","AB","1","2","L.jpg","M.jpg","0","1","0","",""
"","feedback","","html-keyboard-response","474","682005","0.0-1.0-654.0-0.0","0","0","51541","","null","","","null","72","","","","","","","","","","","","","","","",""
"","time_out","","html-keyboard-response","475","684012","0.0-1.0-656.0-0.0","0","0","51541","","null","","","null","72","","","","","","","","","","","","","","","",""
"","ITI","","html-keyboard-response","476","685019","0.0-1.0-657.0","0","0","51541","","null","","","null","72","","","","","","","","","","","","","","","NaN",""
"","S1","","html-keyboard-response","477","685276","0.0-1.0-659.0","0","0","51541","","null","","","null","73","","","","","","","","","","","","","","","",""
"","ISI","","html-keyboard-response","478","686284","0.0-1.0-660.0","0","0","51541","","null","","","null","73","NaN","","","","","","","","","","","","","","",""
"","S2","","html-keyboard-response","479","686543","0.0-1.0-661.0","0","0","51541","","null","","","null","73","","NaN","","","","","","","","","","","","","",""
"","response","","html-keyboard-response","480","686718","0.0-1.0-662.0-0.0","0","0","51541","","174","","","68","73","","","2","73","training","adjacent","FE","6","5","O.jpg","R.jpg","0","0","1","",""
"","feedback","","html-keyboard-response","481","687731","0.0-1.0-663.0-0.0","0","0","51541","","null","","","null","73","","","","","","","","","","","","","","","",""
"","ITI","","html-keyboard-response","482","688745","0.0-1.0-666.0","0","0","51541","","null","","","null","73","","","","","","","","","","","","","","","NaN",""
"","S1","","html-keyboard-response","483","689000","0.0-1.0-668.0","0","0","51541","","null","","","null","74","","","","","","","","","","","","","","","",""
"","ISI","","html-keyboard-response","484","690009","0.0-1.0-669.0","0","0","51541","","837","","","68","74","d","","","","","","","","","","","","","","",""
"","S2","","html-keyboard-response","485","690269","0.0-1.0-670.0","0","0","51541","","null","","","null","74","","NaN","","","","","","","","","","","","","",""
"","response","","html-keyboard-response","486","690405","0.0-1.0-671.0-0.0","0","0","51541","","135","","","68","74","","","2","74","training","adjacent","BC","2","3","M.jpg","N.jpg","0","1","0","",""
"","feedback","","html-keyboard-response","487","691419","0.0-1.0-672.0-0.0","0","0","51541","","null","","","null","74","","","","","","","","","","","","","","","",""
"","time_out","","html-keyboard-response","488","693424","0.0-1.0-674.0-0.0","0","0","51541","","null","","","null","74","","","","","","","","","","","","","","","",""
"","ITI","","html-keyboard-response","489","694432","0.0-1.0-675.0","0","0","51541","","null","","","null","74","","","","","","","","","","","","","","","NaN",""
"","S1","","html-keyboard-response","490","694690","0.0-1.0-677.0","0","0","51541","","null","","","null","75","","","","","","","","","","","","","","","",""
"","ISI","","html-keyboard-response","491","695697","0.0-1.0-678.0","0","0","51541","","null","","","null","75","NaN","","","","","","","","","","","","","","",""
"","S2","","html-keyboard-response","492","695953","0.0-1.0-679.0","0","0","51541","","null","","","null","75","","NaN","","","","","","","","","","","","","",""
"","response","","html-keyboard-response","493","696017","0.0-1.0-680.0-0.0","0","0","51541","","61","","","75","75","","","2","75","training","adjacent","FE","6","5","O.jpg","R.jpg","1","0","0","",""
"","feedback","","html-keyboard-response","494","697026","0.0-1.0-681.0-0.0","0","0","51541","","null","","","null","75","","","","","","","","","","","","","","","",""
"","time_out","","html-keyboard-response","495","699036","0.0-1.0-683.0-0.0","0","0","51541","","null","","","null","75","","","","","","","","","","","","","","","",""
"","ITI","","html-keyboard-response","496","700045","0.0-1.0-684.0","0","0","51541","","null","","","null","75","","","","","","","","","","","","","","","NaN",""
"","S1","","html-keyboard-response","497","700307","0.0-1.0-686.0","0","0","51541","","null","","","null","76","","","","","","","","","","","","","","","",""
"","ISI","","html-keyboard-response","498","701314","0.0-1.0-687.0","0","0","51541","","null","","","null","76","NaN","","","","","","","","","","","","","","",""
"","S2","","html-keyboard-response","499","701571","0.0-1.0-688.0","0","0","51541","","null","","","null","76","","NaN","","","","","","","","","","","","","",""
"","response","","html-keyboard-response","500","701664","0.0-1.0-689.0-0.0","0","0","51541","","90","","","68","76","","","2","76","training","adjacent","DE","4","5","Q.jpg","R.jpg","0","1","0","",""
"","feedback","","html-keyboard-response","501","702675","0.0-1.0-690.0-0.0","0","0","51541","","null","","","null","76","","","","","","","","","","","","","","","",""
"","time_out","","html-keyboard-response","502","704688","0.0-1.0-692.0-0.0","0","0","51541","","null","","","null","76","","","","","","","","","","","","","","","",""
"","ITI","","html-keyboard-response","503","705695","0.0-1.0-693.0","0","0","51541","","null","","","null","76","","","","","","","","","","","","","","","NaN",""
"","S1","","html-keyboard-response","504","705955","0.0-1.0-695.0","0","0","51541","","null","","","null","77","","","","","","","","","","","","","","","",""
"","ISI","","html-keyboard-response","505","706963","0.0-1.0-696.0","0","0","51541","","null","","","null","77","NaN","","","","","","","","","","","","","","",""
"","S2","","html-keyboard-response","506","707220","0.0-1.0-697.0","0","0","51541","","null","","","null","77","","NaN","","","","","","","","","","","","","",""
"","response","","html-keyboard-response","507","707250","0.0-1.0-698.0-0.0","0","0","51541","","28","","","75","77","","","2","77","training","adjacent","GF","7","6","P.jpg","O.jpg","1","0","0","",""
"","feedback","","html-keyboard-response","508","708260","0.0-1.0-699.0-0.0","0","0","51541","","null","","","null","77","","","","","","","","","","","","","","","",""
"","time_out","","html-keyboard-response","509","710272","0.0-1.0-701.0-0.0","0","0","51541","","null","","","null","77","","","","","","","","","","","","","","","",""
"","ITI","","html-keyboard-response","510","711280","0.0-1.0-702.0","0","0","51541","","null","","","null","77","","","","","","","","","","","","","","","NaN",""
"","S1","","html-keyboard-response","511","711541","0.0-1.0-704.0","0","0","51541","","null","","","null","78","","","","","","","","","","","","","","","",""
"","ISI","","html-keyboard-response","512","712549","0.0-1.0-705.0","0","0","51541","","null","","","null","78","NaN","","","","","","","","","","","","","","",""
"","S2","","html-keyboard-response","513","712805","0.0-1.0-706.0","0","0","51541","","null","","","null","78","","NaN","","","","","","","","","","","","","",""
"","response","","html-keyboard-response","514","712951","0.0-1.0-707.0-0.0","0","0","51541","","144","","","68","78","","","2","78","training","adjacent","DE","4","5","Q.jpg","R.jpg","0","1","0","",""
"","feedback","","html-keyboard-response","515","713957","0.0-1.0-708.0-0.0","0","0","51541","","null","","","null","78","","","","","","","","","","","","","","","",""
"","time_out","","html-keyboard-response","516","715968","0.0-1.0-710.0-0.0","0","0","51541","","null","","","null","78","","","","","","","","","","","","","","","",""
"","ITI","","html-keyboard-response","517","716976","0.0-1.0-711.0","0","0","51541","","null","","","null","78","","","","","","","","","","","","","","","NaN",""
"","S1","","html-keyboard-response","518","717237","0.0-1.0-713.0","0","0","51541","","null","","","null","79","","","","","","","","","","","","","","","",""
"","ISI","","html-keyboard-response","519","718245","0.0-1.0-714.0","0","0","51541","","null","","","null","79","NaN","","","","","","","","","","","","","","",""
"","S2","","html-keyboard-response","520","718501","0.0-1.0-715.0","0","0","51541","","null","","","null","79","","NaN","","","","","","","","","","","","","",""
"","response","","html-keyboard-response","521","718520","0.0-1.0-716.0-0.0","0","0","51541","","16","","","75","79","","","2","79","training","adjacent","BC","2","3","M.jpg","N.jpg","1","1","1","",""
"","feedback","","html-keyboard-response","522","719526","0.0-1.0-717.0-0.0","0","0","51541","","null","","","null","79","","","","","","","","","","","","","","","",""
"","ITI","","html-keyboard-response","523","720533","0.0-1.0-720.0","0","0","51541","","null","","","null","79","","","","","","","","","","","","","","","NaN",""
"","S1","","html-keyboard-response","524","720790","0.0-1.0-722.0","0","0","51541","","null","","","null","80","","","","","","","","","","","","","","","",""
"","ISI","","html-keyboard-response","525","721798","0.0-1.0-723.0","0","0","51541","","null","","","null","80","NaN","","","","","","","","","","","","","","",""
"","S2","","html-keyboard-response","526","722054","0.0-1.0-724.0","0","0","51541","","null","","","null","80","","NaN","","","","","","","","","","","","","",""
"","response","","html-keyboard-response","527","722113","0.0-1.0-725.0-0.0","0","0","51541","","56","","","68","80","","","2","80","training","adjacent","BC","2","3","M.jpg","N.jpg","0","1","0","",""
"","feedback","","html-keyboard-response","528","723126","0.0-1.0-726.0-0.0","0","0","51541","","null","","","null","80","","","","","","","","","","","","","","","",""
"","time_out","","html-keyboard-response","529","725136","0.0-1.0-728.0-0.0","0","0","51541","","null","","","null","80","","","","","","","","","","","","","","","",""
"","ITI","","html-keyboard-response","530","726144","0.0-1.0-729.0","0","0","51541","","null","","","null","80","","","","","","","","","","","","","","","NaN",""
"","S1","","html-keyboard-response","531","726405","0.0-1.0-731.0","0","0","51541","","null","","","null","81","","","","","","","","","","","","","","","",""
"","ISI","","html-keyboard-response","532","727414","0.0-1.0-732.0","0","0","51541","","null","","","null","81","NaN","","","","","","","","","","","","","","",""
"","S2","","html-keyboard-response","533","727670","0.0-1.0-733.0","0","0","51541","","null","","","null","81","","NaN","","","","","","","","","","","","","",""
"","response","","html-keyboard-response","534","727731","0.0-1.0-734.0-0.0","0","0","51541","","59","","","75","81","","","2","81","training","adjacent","CD","3","4","N.jpg","Q.jpg","1","1","1","",""
"","feedback","","html-keyboard-response","535","728742","0.0-1.0-735.0-0.0","0","0","51541","","null","","","null","81","","","","","","","","","","","","","","","",""
"","ITI","","html-keyboard-response","536","729749","0.0-1.0-738.0","0","0","51541","","null","","","null","81","","","","","","","","","","","","","","","NaN",""
"","S1","","html-keyboard-response","537","730006","0.0-1.0-740.0","0","0","51541","","null","","","null","82","","","","","","","","","","","","","","","",""
"","ISI","","html-keyboard-response","538","731013","0.0-1.0-741.0","0","0","51541","","null","","","null","82","NaN","","","","","","","","","","","","","","",""
"","S2","","html-keyboard-response","539","731270","0.0-1.0-742.0","0","0","51541","","null","","","null","82","","NaN","","","","","","","","","","","","","",""
"","response","","html-keyboard-response","540","731294","0.0-1.0-743.0-0.0","0","0","51541","","23","","","75","82","","","2","82","training","adjacent","DE","4","5","Q.jpg","R.jpg","1","1","1","",""
"","feedback","","html-keyboard-response","541","732304","0.0-1.0-744.0-0.0","0","0","51541","","null","","","null","82","","","","","","","","","","","","","","","",""
"","ITI","","html-keyboard-response","542","733312","0.0-1.0-747.0","0","0","51541","","null","","","null","82","","","","","","","","","","","","","","","NaN",""
"","S1","","html-keyboard-response","543","733574","0.0-1.0-749.0","0","0","51541","","null","","","null","83","","","","","","","","","","","","","","","",""
"","ISI","","html-keyboard-response","544","734582","0.0-1.0-750.0","0","0","51541","","null","","","null","83","NaN","","","","","","","","","","","","","","",""
"","S2","","html-keyboard-response","545","734838","0.0-1.0-751.0","0","0","51541","","null","","","null","83","","NaN","","","","","","","","","","","","","",""
"","response","","html-keyboard-response","546","736128","0.0-1.0-752.0-0.0","0","0","51541","","1287","","","75","83","","","2","83","training","adjacent","DC","4","3","Q.jpg","N.jpg","1","0","0","",""
"","feedback","","html-keyboard-response","547","737135","0.0-1.0-753.0-0.0","0","0","51541","","null","","","null","83","","","","","","","","","","","","","","","",""
"","time_out","","html-keyboard-response","548","739141","0.0-1.0-755.0-0.0","0","0","51541","","null","","","null","83","","","","","","","","","","","","","","","",""
"","ITI","","html-keyboard-response","549","740149","0.0-1.0-756.0","0","0","51541","","null","","","null","83","","","","","","","","","","","","","","","NaN",""
"","S1","","html-keyboard-response","550","740404","0.0-1.0-758.0","0","0","51541","","null","","","null","84","","","","","","","","","","","","","","","",""
"","ISI","","html-keyboard-response","551","741413","0.0-1.0-759.0","0","0","51541","","null","","","null","84","NaN","","","","","","","","","","","","","","",""
"","S2","","html-keyboard-response","552","741670","0.0-1.0-760.0","0","0","51541","","null","","","null","84","","NaN","","","","","","","","","","","","","",""
"","response","","html-keyboard-response","553","741699","0.0-1.0-761.0-0.0","0","0","51541","","27","","","68","84","","","2","84","training","adjacent","BA","2","1","M.jpg","L.jpg","0","0","1","",""
"","feedback","","html-keyboard-response","554","742709","0.0-1.0-762.0-0.0","0","0","51541","","null","","","null","84","","","","","","","","","","","","","","","",""
"","ITI","","html-keyboard-response","555","743717","0.0-1.0-765.0","0","0","51541","","null","","","null","84","","","","","","","","","","","","","","","NaN",""
"","S1","","html-keyboard-response","556","743973","0.0-1.0-767.0","0","0","51541","","null","","","null","85","","","","","","","","","","","","","","","",""
"","ISI","","html-keyboard-response","557","744980","0.0-1.0-768.0","0","0","51541","","null","","","null","85","NaN","","","","","","","","","","","","","","",""
"","S2","","html-keyboard-response","558","745231","0.0-1.0-769.0","0","0","51541","","248","","","75","85","","k","2","85","training","adjacent","AB","1","2","L.jpg","M.jpg","1","1","1","",""
"","feedback","","html-keyboard-response","559","746241","0.0-1.0-771.0-0.0","0","0","51541","","null","","","null","85","","","","","","","","","","","","","","","",""
"","ITI","","html-keyboard-response","560","747247","0.0-1.0-774.0","0","0","51541","","null","","","null","85","","","","","","","","","","","","","","","NaN",""
"","S1","","html-keyboard-response","561","747509","0.0-1.0-776.0","0","0","51541","","null","","","null","86","","","","","","","","","","","","","","","",""
"","ISI","","html-keyboard-response","562","748517","0.0-1.0-777.0","0","0","51541","","null","","","null","86","NaN","","","","","","","","","","","","","","",""
"","S2","","html-keyboard-response","563","748652","0.0-1.0-778.0","0","0","51541","","132","","","68","86","","d","2","86","training","adjacent","ED","5","4","R.jpg","Q.jpg","0","0","1","",""
"","feedback","","html-keyboard-response","564","749663","0.0-1.0-780.0-0.0","0","0","51541","","null","","","null","86","","","","","","","","","","","","","","","",""
"","ITI","","html-keyboard-response","565","750671","0.0-1.0-783.0","0","0","51541","","null","","","null","86","","","","","","","","","","","","","","","NaN",""
"","S1","","html-keyboard-response","566","750933","0.0-1.0-785.0","0","0","51541","","null","","","null","87","","","","","","","","","","","","","","","",""
"","ISI","","html-keyboard-response","567","751941","0.0-1.0-786.0","0","0","51541","","300","","","75","87","k","","","","","","","","","","","","","","",""
"","S2","","html-keyboard-response","568","752200","0.0-1.0-787.0","0","0","51541","","null","","","null","87","","NaN","","","","","","","","","","","","","",""
"","response","","html-keyboard-response","569","752393","0.0-1.0-788.0-0.0","0","0","51541","","191","","","75","87","","","2","87","training","adjacent","CB","3","2","N.jpg","M.jpg","1","0","0","",""
"","feedback","","html-keyboard-response","570","753410","0.0-1.0-789.0-0.0","0","0","51541","","null","","","null","87","","","","","","","","","","","","","","","",""
"","time_out","","html-keyboard-response","571","755426","0.0-1.0-791.0-0.0","0","0","51541","","null","","","null","87","","","","","","","","","","","","","","","",""
"","ITI","","html-keyboard-response","572","756438","0.0-1.0-792.0","0","0","51541","","null","","","null","87","","","","","","","","","","","","","","","NaN",""
"","S1","","html-keyboard-response","573","756693","0.0-1.0-794.0","0","0","51541","","null","","","null","88","","","","","","","","","","","","","","","",""
"","ISI","","html-keyboard-response","574","757701","0.0-1.0-795.0","0","0","51541","","368","","","68","88","d","","","","","","","","","","","","","","",""
"","S2","","html-keyboard-response","575","757957","0.0-1.0-796.0","0","0","51541","","null","","","null","88","","NaN","","","","","","","","","","","","","",""
"","response","","html-keyboard-response","576","758080","0.0-1.0-797.0-0.0","0","0","51541","","120","","","68","88","","","2","88","training","adjacent","ED","5","4","R.jpg","Q.jpg","0","0","1","",""
"","feedback","","html-keyboard-response","577","759088","0.0-1.0-798.0-0.0","0","0","51541","","null","","","null","88","","","","","","","","","","","","","","","",""
"","ITI","","html-keyboard-response","578","760096","0.0-1.0-801.0","0","0","51541","","null","","","null","88","","","","","","","","","","","","","","","NaN",""
"","S1","","html-keyboard-response","579","760358","0.0-1.0-803.0","0","0","51541","","null","","","null","89","","","","","","","","","","","","","","","",""
