"success","ttype","start_time","trial_type","trial_index","time_elapsed","internal_node_id","warning","missed_checkup","PID","view_history","rt","responses","repeat_instructions","key_press","index","keypress_isi","keypress_S2","block","trial_num","phase","group_type","pair_type","S1_stim","S2_stim","S1_img","S2_img","S1_chosen","S1_higher","accuracy","keypress_iti","total_bonus_tally"
"true","full_screen","d04062023hr1720","fullscreen","0","16019","0.0-0.0","0","0","70842","","","","","","","","","","","","","","","","","","","","","",""
"","instructions","","instructions","1","60087","0.0-1.0-0.0-0.0","0","0","70842","[{""page_index"":0,""viewing_time"":5852},{""page_index"":1,""viewing_time"":23427},{""page_index"":2,""viewing_time"":12068},{""page_index"":3,""viewing_time"":2718}]","44066","","","","","","","","","","","","","","","","","","","",""
"","comprehension_check","","survey-multi-choice","2","90178","0.0-1.0-0.0-1.0","0","0","70842","","30087","{""Q0"":""True"",""Q1"":""D"",""Q2"":""Once the second image appears and while the screen 'MAKE A CHOICE' is shown"",""Q3"":""Green mark"",""Q4"":""either D or K""}","0","","","","","","","","","","","","","","","","","",""
"","start_exp","","html-keyboard-response","3","92722","0.0-1.0-1.0","0","0","70842","","2540","","","32","","","","","","","","","","","","","","","","",""
"","S1","","html-keyboard-response","4","92876","0.0-1.0-2.0","0","0","70842","","null","","","null","0","","","","","","","","","","","","","","","",""
"","ISI","","html-keyboard-response","5","94880","0.0-1.0-3.0","0","0","70842","","null","","","null","0","NaN","","","","","","","","","","","","","","",""
"","S2","","html-keyboard-response","6","95036","0.0-1.0-4.0","0","0","70842","","null","","","null","0","","NaN","","","","","","","","","","","","","",""
"","response","","html-keyboard-response","7","95971","0.0-1.0-5.0-0.0","0","0","70842","","932","","","75","0","","","1","0","training","adjacent","GF","7","6","M.jpg","R.jpg","0","0","1","",""
"","feedback","","html-keyboard-response","8","96975","0.0-1.0-6.0-0.0","0","0","70842","","null","","","null","0","","","","","","","","","","","","","","","",""
"","ITI","","html-keyboard-response","9","97979","0.0-1.0-9.0","0","0","70842","","null","","","null","0","","","","","","","","","","","","","","","NaN",""
"","S1","","html-keyboard-response","10","98133","0.0-1.0-11.0","0","0","70842","","null","","","null","1","","","","","","","","","","","","","","","",""
"","ISI","","html-keyboard-response","11","100136","0.0-1.0-12.0","0","0","70842","","null","","","null","1","NaN","","","","","","","","","","","","","","",""
"","S2","","html-keyboard-response","12","100292","0.0-1.0-13.0","0","0","70842","","null","","","null","1","","NaN","","","","","","","","","","","","","",""
"","response","","html-keyboard-response","13","100441","0.0-1.0-14.0-0.0","0","0","70842","","145","","","68","1","","","1","1","training","adjacent","EF","5","6","P.jpg","R.jpg","1","1","1","",""
"","feedback","","html-keyboard-response","14","101446","0.0-1.0-15.0-0.0","0","0","70842","","null","","","null","1","","","","","","","","","","","","","","","",""
"","ITI","","html-keyboard-response","15","102453","0.0-1.0-18.0","0","0","70842","","null","","","null","1","","","","","","","","","","","","","","","NaN",""
"","S1","","html-keyboard-response","16","102609","0.0-1.0-20.0","0","0","70842","","null","","","null","2","","","","","","","","","","","","","","","",""
"","ISI","","html-keyboard-response","17","104621","0.0-1.0-21.0","0","0","70842","","null","","","null","2","NaN","","","","","","","","","","","","","","",""
"","S2","","html-keyboard-response","18","104775","0.0-1.0-22.0","0","0","70842","","null","","","null","2","","NaN","","","","","","","","","","","","","",""
"","response","","html-keyboard-response","19","105038","0.0-1.0-23.0-0.0","0","0","70842","","261","","","68","2","","","1","2","training","adjacent","BA","2","1","N.jpg","L.jpg","1","0","0","",""
"","feedback","","html-keyboard-response","20","106041","0.0-1.0-24.0-0.0","0","0","70842","","null","","","null","2","","","","","","","","","","","","","","","",""
"","time_out","","html-keyboard-response","21","108045","0.0-1.0-26.0-0.0","0","0","70842","","null","","","null","2","","","","","","","","","","","","","","","",""
"","ITI","","html-keyboard-response","22","109050","0.0-1.0-27.0","0","0","70842","","null","","","null","2","","","","","","","","","","","","","","","NaN",""
"","S1","","html-keyboard-response","23","109216","0.0-1.0-29.0","0","0","70842","","null","","","null","3","","","","","","","","","","","","","","","",""
"","ISI","","html-keyboard-response","24","111221","0.0-1.0-30.0","0","0","70842","","null","","","null","3","NaN","","","","","","","","","","","","","","",""
"","S2","","html-keyboard-response","25","111376","0.0-1.0-31.0","0","0","70842","","null","","","null","3","","NaN","","","","","","","","","","","","","",""
"","response","","html-keyboard-response","26","111458","0.0-1.0-32.0-0.0","0","0","70842","","79","","","75","3","","","1","3","training","adjacent","BA","2","1","N.jpg","L.jpg","0","0","1","",""
"","feedback","","html-keyboard-response","27","112462","0.0-1.0-33.0-0.0","0","0","70842","","null","","","null","3","","","","","","","","","","","","","","","",""
"","ITI","","html-keyboard-response","28","113466","0.0-1.0-36.0","0","0","70842","","null","","","null","3","","","","","","","","","","","","","","","NaN",""
"","S1","","html-keyboard-response","29","113621","0.0-1.0-38.0","0","0","70842","","null","","","null","4","","","","","","","","","","","","","","","",""
"","ISI","","html-keyboard-response","30","115626","0.0-1.0-39.0","0","0","70842","","null","","","null","4","NaN","","","","","","","","","","","","","","",""
"","S2","","html-keyboard-response","31","115781","0.0-1.0-40.0","0","0","70842","","null","","","null","4","","NaN","","","","","","","","","","","","","",""
"","response","","html-keyboard-response","32","116130","0.0-1.0-41.0-0.0","0","0","70842","","347","","","75","4","","","1","4","training","adjacent","BC","2","3","N.jpg","Q.jpg","0","1","0","",""
"","feedback","","html-keyboard-response","33","117133","0.0-1.0-42.0-0.0","0","0","70842","","null","","","null","4","","","","","","","","","","","","","","","",""
"","time_out","","html-keyboard-response","34","119138","0.0-1.0-44.0-0.0","0","0","70842","","null","","","null","4","","","","","","","","","","","","","","","",""
"","ITI","","html-keyboard-response","35","120140","0.0-1.0-45.0","0","0","70842","","null","","","null","4","","","","","","","","","","","","","","","NaN",""
"","S1","","html-keyboard-response","36","120293","0.0-1.0-47.0","0","0","70842","","null","","","null","5","","","","","","","","","","","","","","","",""
"","ISI","","html-keyboard-response","37","122295","0.0-1.0-48.0","0","0","70842","","null","","","null","5","NaN","","","","","","","","","","","","","","",""
"","S2","","html-keyboard-response","38","122447","0.0-1.0-49.0","0","0","70842","","null","","","null","5","","NaN","","","","","","","","","","","","","",""
"","response","","html-keyboard-response","39","122718","0.0-1.0-50.0-0.0","0","0","70842","","270","","","75","5","","","1","5","training","adjacent","CD","3","4","Q.jpg","O.jpg","0","1","0","",""
"","feedback","","html-keyboard-response","40","123721","0.0-1.0-51.0-0.0","0","0","70842","","null","","","null","5","","","","","","","","","","","","","","","",""
"","time_out","","html-keyboard-response","41","125726","0.0-1.0-53.0-0.0","0","0","70842","","null","","","null","5","","","","","","","","","","","","","","","",""
"","ITI","","html-keyboard-response","42","126728","0.0-1.0-54.0","0","0","70842","","null","","","null","5","","","","","","","","","","","","","","","NaN",""
"","S1","","html-keyboard-response","43","126881","0.0-1.0-56.0","0","0","70842","","null","","","null","6","","","","","","","","","","","","","","","",""
"","ISI","","html-keyboard-response","44","128883","0.0-1.0-57.0","0","0","70842","","null","","","null","6","NaN","","","","","","","","","","","","","","",""
"","S2","","html-keyboard-response","45","129036","0.0-1.0-58.0","0","0","70842","","null","","","null","6","","NaN","","","","","","","","","","","","","",""
"","response","","html-keyboard-response","46","129234","0.0-1.0-59.0-0.0","0","0","70842","","197","","","75","6","","","1","6","training","adjacent","ED","5","4","P.jpg","O.jpg","0","0","1","",""
"","feedback","","html-keyboard-response","47","130248","0.0-1.0-60.0-0.0","0","0","70842","","null","","","null","6","","","","","","","","","","","","","","","",""
"","ITI","","html-keyboard-response","48","131250","0.0-1.0-63.0","0","0","70842","","null","","","null","6","","","","","","","","","","","","","","","NaN",""
"","S1","","html-keyboard-response","49","131402","0.0-1.0-65.0","0","0","70842","","null","","","null","7","","","","","","","","","","","","","","","",""
"","ISI","","html-keyboard-response","50","133406","0.0-1.0-66.0","0","0","70842","","null","","","null","7","NaN","","","","","","","","","","","","","","",""
"","S2","","html-keyboard-response","51","133561","0.0-1.0-67.0","0","0","70842","","null","","","null","7","","NaN","","","","","","","","","","","","","",""
"","response","","html-keyboard-response","52","133701","0.0-1.0-68.0-0.0","0","0","70842","","138","","","68","7","","","1","7","training","adjacent","BC","2","3","N.jpg","Q.jpg","1","1","1","",""
"","feedback","","html-keyboard-response","53","134703","0.0-1.0-69.0-0.0","0","0","70842","","null","","","null","7","","","","","","","","","","","","","","","",""
"","ITI","","html-keyboard-response","54","135705","0.0-1.0-72.0","0","0","70842","","null","","","null","7","","","","","","","","","","","","","","","NaN",""
"","S1","","html-keyboard-response","55","135857","0.0-1.0-74.0","0","0","70842","","null","","","null","8","","","","","","","","","","","","","","","",""
"","ISI","","html-keyboard-response","56","137858","0.0-1.0-75.0","0","0","70842","","null","","","null","8","NaN","","","","","","","","","","","","","","",""
"","S2","","html-keyboard-response","57","138011","0.0-1.0-76.0","0","0","70842","","null","","","null","8","","NaN","","","","","","","","","","","","","",""
"","response","","html-keyboard-response","58","138082","0.0-1.0-77.0-0.0","0","0","70842","","70","","","68","8","","","1","8","training","adjacent","AB","1","2","L.jpg","N.jpg","1","1","1","",""
"","feedback","","html-keyboard-response","59","139085","0.0-1.0-78.0-0.0","0","0","70842","","null","","","null","8","","","","","","","","","","","","","","","",""
"","ITI","","html-keyboard-response","60","140089","0.0-1.0-81.0","0","0","70842","","null","","","null","8","","","","","","","","","","","","","","","NaN",""
"","S1","","html-keyboard-response","61","140245","0.0-1.0-83.0","0","0","70842","","null","","","null","9","","","","","","","","","","","","","","","",""
"","ISI","","html-keyboard-response","62","142248","0.0-1.0-84.0","0","0","70842","","null","","","null","9","NaN","","","","","","","","","","","","","","",""
"","S2","","html-keyboard-response","63","142402","0.0-1.0-85.0","0","0","70842","","null","","","null","9","","NaN","","","","","","","","","","","","","",""
"","response","","html-keyboard-response","64","142855","0.0-1.0-86.0-0.0","0","0","70842","","451","","","68","9","","","1","9","training","adjacent","FE","6","5","R.jpg","P.jpg","1","0","0","",""
"","feedback","","html-keyboard-response","65","143859","0.0-1.0-87.0-0.0","0","0","70842","","null","","","null","9","","","","","","","","","","","","","","","",""
"","time_out","","html-keyboard-response","66","145862","0.0-1.0-89.0-0.0","0","0","70842","","null","","","null","9","","","","","","","","","","","","","","","",""
"","ITI","","html-keyboard-response","67","146865","0.0-1.0-90.0","0","0","70842","","null","","","null","9","","","","","","","","","","","","","","","NaN",""
"","S1","","html-keyboard-response","68","147018","0.0-1.0-92.0","0","0","70842","","null","","","null","10","","","","","","","","","","","","","","","",""
"","ISI","","html-keyboard-response","69","149020","0.0-1.0-93.0","0","0","70842","","null","","","null","10","NaN","","","","","","","","","","","","","","",""
"","S2","","html-keyboard-response","70","149172","0.0-1.0-94.0","0","0","70842","","null","","","null","10","","NaN","","","","","","","","","","","","","",""
"","response","","html-keyboard-response","71","149271","0.0-1.0-95.0-0.0","0","0","70842","","98","","","75","10","","","1","10","training","adjacent","CB","3","2","Q.jpg","N.jpg","0","0","1","",""
"","feedback","","html-keyboard-response","72","150275","0.0-1.0-96.0-0.0","0","0","70842","","null","","","null","10","","","","","","","","","","","","","","","",""
"","ITI","","html-keyboard-response","73","151279","0.0-1.0-99.0","0","0","70842","","null","","","null","10","","","","","","","","","","","","","","","NaN",""
"","S1","","html-keyboard-response","74","151438","0.0-1.0-101.0","0","0","70842","","null","","","null","11","","","","","","","","","","","","","","","",""
"","ISI","","html-keyboard-response","75","153442","0.0-1.0-102.0","0","0","70842","","null","","","null","11","NaN","","","","","","","","","","","","","","",""
"","S2","","html-keyboard-response","76","153599","0.0-1.0-103.0","0","0","70842","","null","","","null","11","","NaN","","","","","","","","","","","","","",""
"","response","","html-keyboard-response","77","153749","0.0-1.0-104.0-0.0","0","0","70842","","146","","","68","11","","","1","11","training","adjacent","AB","1","2","L.jpg","N.jpg","1","1","1","",""
"","feedback","","html-keyboard-response","78","154755","0.0-1.0-105.0-0.0","0","0","70842","","null","","","null","11","","","","","","","","","","","","","","","",""
"","ITI","","html-keyboard-response","79","155757","0.0-1.0-108.0","0","0","70842","","null","","","null","11","","","","","","","","","","","","","","","NaN",""
"","S1","","html-keyboard-response","80","155909","0.0-1.0-110.0","0","0","70842","","null","","","null","12","","","","","","","","","","","","","","","",""
"","ISI","","html-keyboard-response","81","157913","0.0-1.0-111.0","0","0","70842","","null","","","null","12","NaN","","","","","","","","","","","","","","",""
"","S2","","html-keyboard-response","82","158069","0.0-1.0-112.0","0","0","70842","","null","","","null","12","","NaN","","","","","","","","","","","","","",""
"","response","","html-keyboard-response","83","158190","0.0-1.0-113.0-0.0","0","0","70842","","117","","","68","12","","","1","12","training","adjacent","AB","1","2","L.jpg","N.jpg","1","1","1","",""
"","feedback","","html-keyboard-response","84","159195","0.0-1.0-114.0-0.0","0","0","70842","","null","","","null","12","","","","","","","","","","","","","","","",""
"","ITI","","html-keyboard-response","85","160201","0.0-1.0-117.0","0","0","70842","","null","","","null","12","","","","","","","","","","","","","","","NaN",""
"","S1","","html-keyboard-response","86","160359","0.0-1.0-119.0","0","0","70842","","null","","","null","13","","","","","","","","","","","","","","","",""
"","ISI","","html-keyboard-response","87","162364","0.0-1.0-120.0","0","0","70842","","null","","","null","13","NaN","","","","","","","","","","","","","","",""
"","S2","","html-keyboard-response","88","162517","0.0-1.0-121.0","0","0","70842","","null","","","null","13","","NaN","","","","","","","","","","","","","",""
"","response","","html-keyboard-response","89","162687","0.0-1.0-122.0-0.0","0","0","70842","","169","","","75","13","","","1","13","training","adjacent","CD","3","4","Q.jpg","O.jpg","0","1","0","",""
"","feedback","","html-keyboard-response","90","163690","0.0-1.0-123.0-0.0","0","0","70842","","null","","","null","13","","","","","","","","","","","","","","","",""
"","time_out","","html-keyboard-response","91","165694","0.0-1.0-125.0-0.0","0","0","70842","","null","","","null","13","","","","","","","","","","","","","","","",""
"","ITI","","html-keyboard-response","92","166698","0.0-1.0-126.0","0","0","70842","","null","","","null","13","","","","","","","","","","","","","","","NaN",""
"","S1","","html-keyboard-response","93","166853","0.0-1.0-128.0","0","0","70842","","null","","","null","14","","","","","","","","","","","","","","","",""
"","ISI","","html-keyboard-response","94","168856","0.0-1.0-129.0","0","0","70842","","null","","","null","14","NaN","","","","","","","","","","","","","","",""
"","S2","","html-keyboard-response","95","169008","0.0-1.0-130.0","0","0","70842","","null","","","null","14","","NaN","","","","","","","","","","","","","",""
"","response","","html-keyboard-response","96","169112","0.0-1.0-131.0-0.0","0","0","70842","","102","","","75","14","","","1","14","training","adjacent","EF","5","6","P.jpg","R.jpg","0","1","0","",""
"","feedback","","html-keyboard-response","97","170114","0.0-1.0-132.0-0.0","0","0","70842","","null","","","null","14","","","","","","","","","","","","","","","",""
"","time_out","","html-keyboard-response","98","172119","0.0-1.0-134.0-0.0","0","0","70842","","null","","","null","14","","","","","","","","","","","","","","","",""
"","ITI","","html-keyboard-response","99","173123","0.0-1.0-135.0","0","0","70842","","null","","","null","14","","","","","","","","","","","","","","","NaN",""
"","S1","","html-keyboard-response","100","173278","0.0-1.0-137.0","0","0","70842","","null","","","null","15","","","","","","","","","","","","","","","",""
"","ISI","","html-keyboard-response","101","175280","0.0-1.0-138.0","0","0","70842","","null","","","null","15","NaN","","","","","","","","","","","","","","",""
"","S2","","html-keyboard-response","102","175433","0.0-1.0-139.0","0","0","70842","","null","","","null","15","","NaN","","","","","","","","","","","","","",""
"","response","","html-keyboard-response","103","175522","0.0-1.0-140.0-0.0","0","0","70842","","88","","","68","15","","","1","15","training","adjacent","GF","7","6","M.jpg","R.jpg","1","0","0","",""
"","feedback","","html-keyboard-response","104","176534","0.0-1.0-141.0-0.0","0","0","70842","","null","","","null","15","","","","","","","","","","","","","","","",""
"","time_out","","html-keyboard-response","105","178539","0.0-1.0-143.0-0.0","0","0","70842","","null","","","null","15","","","","","","","","","","","","","","","",""
"","ITI","","html-keyboard-response","106","179543","0.0-1.0-144.0","0","0","70842","","null","","","null","15","","","","","","","","","","","","","","","NaN",""
"","S1","","html-keyboard-response","107","179698","0.0-1.0-146.0","0","0","70842","","null","","","null","16","","","","","","","","","","","","","","","",""
"","ISI","","html-keyboard-response","108","181703","0.0-1.0-147.0","0","0","70842","","null","","","null","16","NaN","","","","","","","","","","","","","","",""
"","S2","","html-keyboard-response","109","181859","0.0-1.0-148.0","0","0","70842","","null","","","null","16","","NaN","","","","","","","","","","","","","",""
"","response","","html-keyboard-response","110","182128","0.0-1.0-149.0-0.0","0","0","70842","","267","","","68","16","","","1","16","training","adjacent","BC","2","3","N.jpg","Q.jpg","1","1","1","",""
"","feedback","","html-keyboard-response","111","183130","0.0-1.0-150.0-0.0","0","0","70842","","null","","","null","16","","","","","","","","","","","","","","","",""
"","ITI","","html-keyboard-response","112","184133","0.0-1.0-153.0","0","0","70842","","null","","","null","16","","","","","","","","","","","","","","","NaN",""
"","S1","","html-keyboard-response","113","184287","0.0-1.0-155.0","0","0","70842","","null","","","null","17","","","","","","","","","","","","","","","",""
"","ISI","","html-keyboard-response","114","186290","0.0-1.0-156.0","0","0","70842","","null","","","null","17","NaN","","","","","","","","","","","","","","",""
"","S2","","html-keyboard-response","115","186446","0.0-1.0-157.0","0","0","70842","","null","","","null","17","","NaN","","","","","","","","","","","","","",""
"","response","","html-keyboard-response","116","186581","0.0-1.0-158.0-0.0","0","0","70842","","133","","","75","17","","","1","17","training","adjacent","FG","6","7","R.jpg","M.jpg","0","1","0","",""
"","feedback","","html-keyboard-response","117","187585","0.0-1.0-159.0-0.0","0","0","70842","","null","","","null","17","","","","","","","","","","","","","","","",""
"","time_out","","html-keyboard-response","118","189589","0.0-1.0-161.0-0.0","0","0","70842","","null","","","null","17","","","","","","","","","","","","","","","",""
"","ITI","","html-keyboard-response","119","190593","0.0-1.0-162.0","0","0","70842","","null","","","null","17","","","","","","","","","","","","","","","NaN",""
"","S1","","html-keyboard-response","120","190748","0.0-1.0-164.0","0","0","70842","","null","","","null","18","","","","","","","","","","","","","","","",""
"","ISI","","html-keyboard-response","121","192752","0.0-1.0-165.0","0","0","70842","","null","","","null","18","NaN","","","","","","","","","","","","","","",""
"","S2","","html-keyboard-response","122","192907","0.0-1.0-166.0","0","0","70842","","null","","","null","18","","NaN","","","","","","","","","","","","","",""
"","response","","html-keyboard-response","123","193018","0.0-1.0-167.0-0.0","0","0","70842","","108","","","75","18","","","1","18","training","adjacent","DE","4","5","O.jpg","P.jpg","0","1","0","",""
"","feedback","","html-keyboard-response","124","194024","0.0-1.0-168.0-0.0","0","0","70842","","null","","","null","18","","","","","","","","","","","","","","","",""
"","time_out","","html-keyboard-response","125","196029","0.0-1.0-170.0-0.0","0","0","70842","","null","","","null","18","","","","","","","","","","","","","","","",""
"","ITI","","html-keyboard-response","126","197033","0.0-1.0-171.0","0","0","70842","","null","","","null","18","","","","","","","","","","","","","","","NaN",""
"","S1","","html-keyboard-response","127","197188","0.0-1.0-173.0","0","0","70842","","null","","","null","19","","","","","","","","","","","","","","","",""
"","ISI","","html-keyboard-response","128","199191","0.0-1.0-174.0","0","0","70842","","null","","","null","19","NaN","","","","","","","","","","","","","","",""
"","S2","","html-keyboard-response","129","199344","0.0-1.0-175.0","0","0","70842","","null","","","null","19","","NaN","","","","","","","","","","","","","",""
"","response","","html-keyboard-response","130","199509","0.0-1.0-176.0-0.0","0","0","70842","","162","","","75","19","","","1","19","training","adjacent","DE","4","5","O.jpg","P.jpg","0","1","0","",""
"","feedback","","html-keyboard-response","131","200513","0.0-1.0-177.0-0.0","0","0","70842","","null","","","null","19","","","","","","","","","","","","","","","",""
"","time_out","","html-keyboard-response","132","202518","0.0-1.0-179.0-0.0","0","0","70842","","null","","","null","19","","","","","","","","","","","","","","","",""
"","ITI","","html-keyboard-response","133","203523","0.0-1.0-180.0","0","0","70842","","null","","","null","19","","","","","","","","","","","","","","","NaN",""
"","S1","","html-keyboard-response","134","203676","0.0-1.0-182.0","0","0","70842","","null","","","null","20","","","","","","","","","","","","","","","",""
"","ISI","","html-keyboard-response","135","205678","0.0-1.0-183.0","0","0","70842","","null","","","null","20","NaN","","","","","","","","","","","","","","",""
"","S2","","html-keyboard-response","136","205830","0.0-1.0-184.0","0","0","70842","","null","","","null","20","","NaN","","","","","","","","","","","","","",""
"","response","","html-keyboard-response","137","206058","0.0-1.0-185.0-0.0","0","0","70842","","226","","","68","20","","","1","20","training","adjacent","BC","2","3","N.jpg","Q.jpg","1","1","1","",""
"","feedback","","html-keyboard-response","138","207061","0.0-1.0-186.0-0.0","0","0","70842","","null","","","null","20","","","","","","","","","","","","","","","",""
"","ITI","","html-keyboard-response","139","208065","0.0-1.0-189.0","0","0","70842","","null","","","null","20","","","","","","","","","","","","","","","NaN",""
"","S1","","html-keyboard-response","140","208221","0.0-1.0-191.0","0","0","70842","","null","","","null","21","","","","","","","","","","","","","","","",""
"","ISI","","html-keyboard-response","141","210225","0.0-1.0-192.0","0","0","70842","","null","","","null","21","NaN","","","","","","","","","","","","","","",""
"","S2","","html-keyboard-response","142","210380","0.0-1.0-193.0","0","0","70842","","null","","","null","21","","NaN","","","","","","","","","","","","","",""
"","response","","html-keyboard-response","143","210597","0.0-1.0-194.0-0.0","0","0","70842","","213","","","68","21","","","1","21","training","adjacent","EF","5","6","P.jpg","R.jpg","1","1","1","",""
"","feedback","","html-keyboard-response","144","211600","0.0-1.0-195.0-0.0","0","0","70842","","null","","","null","21","","","","","","","","","","","","","","","",""
"","ITI","","html-keyboard-response","145","212605","0.0-1.0-198.0","0","0","70842","","null","","","null","21","","","","","","","","","","","","","","","NaN",""
"","S1","","html-keyboard-response","146","212759","0.0-1.0-200.0","0","0","70842","","null","","","null","22","","","","","","","","","","","","","","","",""
"","ISI","","html-keyboard-response","147","214763","0.0-1.0-201.0","0","0","70842","","null","","","null","22","NaN","","","","","","","","","","","","","","",""
"","S2","","html-keyboard-response","148","214918","0.0-1.0-202.0","0","0","70842","","null","","","null","22","","NaN","","","","","","","","","","","","","",""
"","response","","html-keyboard-response","149","215246","0.0-1.0-203.0-0.0","0","0","70842","","324","","","68","22","","","1","22","training","adjacent","DC","4","3","O.jpg","Q.jpg","1","0","0","",""
"","feedback","","html-keyboard-response","150","216252","0.0-1.0-204.0-0.0","0","0","70842","","null","","","null","22","","","","","","","","","","","","","","","",""
"","time_out","","html-keyboard-response","151","218256","0.0-1.0-206.0-0.0","0","0","70842","","null","","","null","22","","","","","","","","","","","","","","","",""
"","ITI","","html-keyboard-response","152","219261","0.0-1.0-207.0","0","0","70842","","null","","","null","22","","","","","","","","","","","","","","","NaN",""
"","S1","","html-keyboard-response","153","219417","0.0-1.0-209.0","0","0","70842","","null","","","null","23","","","","","","","","","","","","","","","",""
"","ISI","","html-keyboard-response","154","221421","0.0-1.0-210.0","0","0","70842","","null","","","null","23","NaN","","","","","","","","","","","","","","",""
"","S2","","html-keyboard-response","155","221578","0.0-1.0-211.0","0","0","70842","","null","","","null","23","","NaN","","","","","","","","","","","","","",""
"","response","","html-keyboard-response","156","221749","0.0-1.0-212.0-0.0","0","0","70842","","167","","","75","23","","","1","23","training","adjacent","CB","3","2","Q.jpg","N.jpg","0","0","1","",""
"","feedback","","html-keyboard-response","157","222753","0.0-1.0-213.0-0.0","0","0","70842","","null","","","null","23","","","","","","","","","","","","","","","",""
"","ITI","","html-keyboard-response","158","223758","0.0-1.0-216.0","0","0","70842","","null","","","null","23","","","","","","","","","","","","","","","NaN",""
"","S1","","html-keyboard-response","159","223913","0.0-1.0-218.0","0","0","70842","","null","","","null","24","","","","","","","","","","","","","","","",""
"","ISI","","html-keyboard-response","160","225918","0.0-1.0-219.0","0","0","70842","","null","","","null","24","NaN","","","","","","","","","","","","","","",""
"","S2","","html-keyboard-response","161","226073","0.0-1.0-220.0","0","0","70842","","null","","","null","24","","NaN","","","","","","","","","","","","","",""
"","response","","html-keyboard-response","162","226612","0.0-1.0-221.0-0.0","0","0","70842","","535","","","75","24","","","1","24","training","adjacent","FG","6","7","R.jpg","M.jpg","0","1","0","",""
"","feedback","","html-keyboard-response","163","227615","0.0-1.0-222.0-0.0","0","0","70842","","null","","","null","24","","","","","","","","","","","","","","","",""
"","time_out","","html-keyboard-response","164","229617","0.0-1.0-224.0-0.0","0","0","70842","","null","","","null","24","","","","","","","","","","","","","","","",""
"","ITI","","html-keyboard-response","165","230620","0.0-1.0-225.0","0","0","70842","","null","","","null","24","","","","","","","","","","","","","","","NaN",""
"","S1","","html-keyboard-response","166","230774","0.0-1.0-227.0","0","0","70842","","null","","","null","25","","","","","","","","","","","","","","","",""
"","ISI","","html-keyboard-response","167","232779","0.0-1.0-228.0","0","0","70842","","null","","","null","25","NaN","","","","","","","","","","","","","","",""
"","S2","","html-keyboard-response","168","232945","0.0-1.0-229.0","0","0","70842","","null","","","null","25","","NaN","","","","","","","","","","","","","",""
"","response","","html-keyboard-response","169","233424","0.0-1.0-230.0-0.0","0","0","70842","","475","","","68","25","","","1","25","training","adjacent","CD","3","4","Q.jpg","O.jpg","1","1","1","",""
"","feedback","","html-keyboard-response","170","234427","0.0-1.0-231.0-0.0","0","0","70842","","null","","","null","25","","","","","","","","","","","","","","","",""
"","ITI","","html-keyboard-response","171","235430","0.0-1.0-234.0","0","0","70842","","null","","","null","25","","","","","","","","","","","","","","","NaN",""
"","S1","","html-keyboard-response","172","235583","0.0-1.0-236.0","0","0","70842","","null","","","null","26","","","","","","","","","","","","","","","",""
"","ISI","","html-keyboard-response","173","237587","0.0-1.0-237.0","0","0","70842","","null","","","null","26","NaN","","","","","","","","","","","","","","",""
"","S2","","html-keyboard-response","174","237743","0.0-1.0-238.0","0","0","70842","","null","","","null","26","","NaN","","","","","","","","","","","","","",""
"","response","","html-keyboard-response","175","238247","0.0-1.0-239.0-0.0","0","0","70842","","501","","","68","26","","","1","26","training","adjacent","CD","3","4","Q.jpg","O.jpg","1","1","1","",""
"","feedback","","html-keyboard-response","176","239253","0.0-1.0-240.0-0.0","0","0","70842","","null","","","null","26","","","","","","","","","","","","","","","",""
"","ITI","","html-keyboard-response","177","240259","0.0-1.0-243.0","0","0","70842","","null","","","null","26","","","","","","","","","","","","","","","NaN",""
"","S1","","html-keyboard-response","178","240415","0.0-1.0-245.0","0","0","70842","","null","","","null","27","","","","","","","","","","","","","","","",""
"","ISI","","html-keyboard-response","179","242419","0.0-1.0-246.0","0","0","70842","","null","","","null","27","NaN","","","","","","","","","","","","","","",""
"","S2","","html-keyboard-response","180","242572","0.0-1.0-247.0","0","0","70842","","null","","","null","27","","NaN","","","","","","","","","","","","","",""
"","response","","html-keyboard-response","181","243176","0.0-1.0-248.0-0.0","0","0","70842","","601","","","75","27","","","1","27","training","adjacent","BA","2","1","N.jpg","L.jpg","0","0","1","",""
"","feedback","","html-keyboard-response","182","244181","0.0-1.0-249.0-0.0","0","0","70842","","null","","","null","27","","","","","","","","","","","","","","","",""
"","ITI","","html-keyboard-response","183","245197","0.0-1.0-252.0","0","0","70842","","null","","","null","27","","","","","","","","","","","","","","","NaN",""
"","S1","","html-keyboard-response","184","245352","0.0-1.0-254.0","0","0","70842","","null","","","null","28","","","","","","","","","","","","","","","",""
"","ISI","","html-keyboard-response","185","247355","0.0-1.0-255.0","0","0","70842","","null","","","null","28","NaN","","","","","","","","","","","","","","",""
"","S2","","html-keyboard-response","186","247507","0.0-1.0-256.0","0","0","70842","","null","","","null","28","","NaN","","","","","","","","","","","","","",""
"","response","","html-keyboard-response","187","248346","0.0-1.0-257.0-0.0","0","0","70842","","837","","","68","28","","","1","28","training","adjacent","AB","1","2","L.jpg","N.jpg","1","1","1","",""
"","feedback","","html-keyboard-response","188","249349","0.0-1.0-258.0-0.0","0","0","70842","","null","","","null","28","","","","","","","","","","","","","","","",""
"","ITI","","html-keyboard-response","189","250351","0.0-1.0-261.0","0","0","70842","","null","","","null","28","","","","","","","","","","","","","","","NaN",""
"","S1","","html-keyboard-response","190","250503","0.0-1.0-263.0","0","0","70842","","null","","","null","29","","","","","","","","","","","","","","","",""
"","ISI","","html-keyboard-response","191","252506","0.0-1.0-264.0","0","0","70842","","null","","","null","29","NaN","","","","","","","","","","","","","","",""
"","S2","","html-keyboard-response","192","252658","0.0-1.0-265.0","0","0","70842","","null","","","null","29","","NaN","","","","","","","","","","","","","",""
"","response","","html-keyboard-response","193","253163","0.0-1.0-266.0-0.0","0","0","70842","","503","","","68","29","","","1","29","training","adjacent","ED","5","4","P.jpg","O.jpg","1","0","0","",""
"","feedback","","html-keyboard-response","194","254166","0.0-1.0-267.0-0.0","0","0","70842","","null","","","null","29","","","","","","","","","","","","","","","",""
"","time_out","","html-keyboard-response","195","256169","0.0-1.0-269.0-0.0","0","0","70842","","null","","","null","29","","","","","","","","","","","","","","","",""
"","ITI","","html-keyboard-response","196","257172","0.0-1.0-270.0","0","0","70842","","null","","","null","29","","","","","","","","","","","","","","","NaN",""
"","S1","","html-keyboard-response","197","257325","0.0-1.0-272.0","0","0","70842","","null","","","null","30","","","","","","","","","","","","","","","",""
"","ISI","","html-keyboard-response","198","259330","0.0-1.0-273.0","0","0","70842","","null","","","null","30","NaN","","","","","","","","","","","","","","",""
"","S2","","html-keyboard-response","199","259486","0.0-1.0-274.0","0","0","70842","","null","","","null","30","","NaN","","","","","","","","","","","","","",""
"","response","","html-keyboard-response","200","260151","0.0-1.0-275.0-0.0","0","0","70842","","661","","","75","30","","","1","30","training","adjacent","ED","5","4","P.jpg","O.jpg","0","0","1","",""
"","feedback","","html-keyboard-response","201","261155","0.0-1.0-276.0-0.0","0","0","70842","","null","","","null","30","","","","","","","","","","","","","","","",""
"","ITI","","html-keyboard-response","202","262158","0.0-1.0-279.0","0","0","70842","","null","","","null","30","","","","","","","","","","","","","","","NaN",""
"","S1","","html-keyboard-response","203","262311","0.0-1.0-281.0","0","0","70842","","null","","","null","31","","","","","","","","","","","","","","","",""
"","ISI","","html-keyboard-response","204","264315","0.0-1.0-282.0","0","0","70842","","null","","","null","31","NaN","","","","","","","","","","","","","","",""
"","S2","","html-keyboard-response","205","264471","0.0-1.0-283.0","0","0","70842","","null","","","null","31","","NaN","","","","","","","","","","","","","",""
"","response","","html-keyboard-response","206","264922","0.0-1.0-284.0-0.0","0","0","70842","","448","","","68","31","","","1","31","training","adjacent","FE","6","5","R.jpg","P.jpg","1","0","0","",""
"","feedback","","html-keyboard-response","207","265928","0.0-1.0-285.0-0.0","0","0","70842","","null","","","null","31","","","","","","","","","","","","","","","",""
"","time_out","","html-keyboard-response","208","267932","0.0-1.0-287.0-0.0","0","0","70842","","null","","","null","31","","","","","","","","","","","","","","","",""
"","ITI","","html-keyboard-response","209","268935","0.0-1.0-288.0","0","0","70842","","null","","","null","31","","","","","","","","","","","","","","","NaN",""
"","S1","","html-keyboard-response","210","269088","0.0-1.0-290.0","0","0","70842","","null","","","null","32","","","","","","","","","","","","","","","",""
"","ISI","","html-keyboard-response","211","271090","0.0-1.0-291.0","0","0","70842","","null","","","null","32","NaN","","","","","","","","","","","","","","",""
"","S2","","html-keyboard-response","212","271247","0.0-1.0-292.0","0","0","70842","","null","","","null","32","","NaN","","","","","","","","","","","","","",""
"","response","","html-keyboard-response","213","271639","0.0-1.0-293.0-0.0","0","0","70842","","390","","","75","32","","","1","32","training","adjacent","CB","3","2","Q.jpg","N.jpg","0","0","1","",""
"","feedback","","html-keyboard-response","214","272643","0.0-1.0-294.0-0.0","0","0","70842","","null","","","null","32","","","","","","","","","","","","","","","",""
"","ITI","","html-keyboard-response","215","273648","0.0-1.0-297.0","0","0","70842","","null","","","null","32","","","","","","","","","","","","","","","NaN",""
"","S1","","html-keyboard-response","216","273803","0.0-1.0-299.0","0","0","70842","","null","","","null","33","","","","","","","","","","","","","","","",""
"","ISI","","html-keyboard-response","217","275808","0.0-1.0-300.0","0","0","70842","","397","","","75","33","k","","","","","","","","","","","","","","",""
"","S2","","html-keyboard-response","218","275969","0.0-1.0-301.0","0","0","70842","","null","","","null","33","","NaN","","","","","","","","","","","","","",""
"","response","","html-keyboard-response","219","276753","0.0-1.0-302.0-0.0","0","0","70842","","781","","","75","33","","","1","33","training","adjacent","ED","5","4","P.jpg","O.jpg","0","0","1","",""
"","feedback","","html-keyboard-response","220","277756","0.0-1.0-303.0-0.0","0","0","70842","","null","","","null","33","","","","","","","","","","","","","","","",""
"","ITI","","html-keyboard-response","221","278760","0.0-1.0-306.0","0","0","70842","","null","","","null","33","","","","","","","","","","","","","","","NaN",""
"","S1","","html-keyboard-response","222","278916","0.0-1.0-308.0","0","0","70842","","null","","","null","34","","","","","","","","","","","","","","","",""
"","ISI","","html-keyboard-response","223","280920","0.0-1.0-309.0","0","0","70842","","null","","","null","34","NaN","","","","","","","","","","","","","","",""
"","S2","","html-keyboard-response","224","281076","0.0-1.0-310.0","0","0","70842","","null","","","null","34","","NaN","","","","","","","","","","","","","",""
"","response","","html-keyboard-response","225","281938","0.0-1.0-311.0-0.0","0","0","70842","","859","","","68","34","","","1","34","training","adjacent","DE","4","5","O.jpg","P.jpg","1","1","1","",""
"","feedback","","html-keyboard-response","226","282945","0.0-1.0-312.0-0.0","0","0","70842","","null","","","null","34","","","","","","","","","","","","","","","",""
"","ITI","","html-keyboard-response","227","283949","0.0-1.0-315.0","0","0","70842","","null","","","null","34","","","","","","","","","","","","","","","NaN",""
"","S1","","html-keyboard-response","228","284102","0.0-1.0-317.0","0","0","70842","","null","","","null","35","","","","","","","","","","","","","","","",""
"","ISI","","html-keyboard-response","229","286105","0.0-1.0-318.0","0","0","70842","","null","","","null","35","NaN","","","","","","","","","","","","","","",""
"","S2","","html-keyboard-response","230","286261","0.0-1.0-319.0","0","0","70842","","null","","","null","35","","NaN","","","","","","","","","","","","","",""
"","response","","html-keyboard-response","231","286735","0.0-1.0-320.0-0.0","0","0","70842","","470","","","75","35","","","1","35","training","adjacent","CB","3","2","Q.jpg","N.jpg","0","0","1","",""
"","feedback","","html-keyboard-response","232","287740","0.0-1.0-321.0-0.0","0","0","70842","","null","","","null","35","","","","","","","","","","","","","","","",""
"","ITI","","html-keyboard-response","233","288754","0.0-1.0-324.0","0","0","70842","","null","","","null","35","","","","","","","","","","","","","","","NaN",""
"","S1","","html-keyboard-response","234","288911","0.0-1.0-326.0","0","0","70842","","null","","","null","36","","","","","","","","","","","","","","","",""
"","ISI","","html-keyboard-response","235","290915","0.0-1.0-327.0","0","0","70842","","null","","","null","36","NaN","","","","","","","","","","","","","","",""
"","S2","","html-keyboard-response","236","291069","0.0-1.0-328.0","0","0","70842","","null","","","null","36","","NaN","","","","","","","","","","","","","",""
"","response","","html-keyboard-response","237","291491","0.0-1.0-329.0-0.0","0","0","70842","","419","","","68","36","","","1","36","training","adjacent","DC","4","3","O.jpg","Q.jpg","1","0","0","",""
"","feedback","","html-keyboard-response","238","292494","0.0-1.0-330.0-0.0","0","0","70842","","null","","","null","36","","","","","","","","","","","","","","","",""
"","time_out","","html-keyboard-response","239","294498","0.0-1.0-332.0-0.0","0","0","70842","","null","","","null","36","","","","","","","","","","","","","","","",""
"","ITI","","html-keyboard-response","240","295502","0.0-1.0-333.0","0","0","70842","","null","","","null","36","","","","","","","","","","","","","","","NaN",""
"","S1","","html-keyboard-response","241","295658","0.0-1.0-335.0","0","0","70842","","null","","","null","37","","","","","","","","","","","","","","","",""
"","ISI","","html-keyboard-response","242","297663","0.0-1.0-336.0","0","0","70842","","null","","","null","37","NaN","","","","","","","","","","","","","","",""
"","S2","","html-keyboard-response","243","297819","0.0-1.0-337.0","0","0","70842","","null","","","null","37","","NaN","","","","","","","","","","","","","",""
"","response","","html-keyboard-response","244","298097","0.0-1.0-338.0-0.0","0","0","70842","","276","","","68","37","","","1","37","training","adjacent","GF","7","6","M.jpg","R.jpg","1","0","0","",""
"","feedback","","html-keyboard-response","245","299100","0.0-1.0-339.0-0.0","0","0","70842","","null","","","null","37","","","","","","","","","","","","","","","",""
"","time_out","","html-keyboard-response","246","301104","0.0-1.0-341.0-0.0","0","0","70842","","null","","","null","37","","","","","","","","","","","","","","","",""
"","ITI","","html-keyboard-response","247","302109","0.0-1.0-342.0","0","0","70842","","null","","","null","37","","","","","","","","","","","","","","","NaN",""
"","S1","","html-keyboard-response","248","302265","0.0-1.0-344.0","0","0","70842","","null","","","null","38","","","","","","","","","","","","","","","",""
"","ISI","","html-keyboard-response","249","304269","0.0-1.0-345.0","0","0","70842","","null","","","null","38","NaN","","","","","","","","","","","","","","",""
"","S2","","html-keyboard-response","250","304434","0.0-1.0-346.0","0","0","70842","","null","","","null","38","","NaN","","","","","","","","","","","","","",""
"","response","","html-keyboard-response","251","304962","0.0-1.0-347.0-0.0","0","0","70842","","525","","","68","38","","","1","38","training","adjacent","DC","4","3","O.jpg","Q.jpg","1","0","0","",""
"","feedback","","html-keyboard-response","252","305966","0.0-1.0-348.0-0.0","0","0","70842","","null","","","null","38","","","","","","","","","","","","","","","",""
"","time_out","","html-keyboard-response","253","307970","0.0-1.0-350.0-0.0","0","0","70842","","null","","","null","38","","","","","","","","","","","","","","","",""
"","ITI","","html-keyboard-response","254","308974","0.0-1.0-351.0","0","0","70842","","null","","","null","38","","","","","","","","","","","","","","","NaN",""
"","S1","","html-keyboard-response","255","309130","0.0-1.0-353.0","0","0","70842","","null","","","null","39","","","","","","","","","","","","","","","",""
"","ISI","","html-keyboard-response","256","311134","0.0-1.0-354.0","0","0","70842","","null","","","null","39","NaN","","","","","","","","","","","","","","",""
"","S2","","html-keyboard-response","257","311290","0.0-1.0-355.0","0","0","70842","","null","","","null","39","","NaN","","","","","","","","","","","","","",""
"","response","","html-keyboard-response","258","311804","0.0-1.0-356.0-0.0","0","0","70842","","512","","","75","39","","","1","39","training","adjacent","GF","7","6","M.jpg","R.jpg","0","0","1","",""
"","feedback","","html-keyboard-response","259","312806","0.0-1.0-357.0-0.0","0","0","70842","","null","","","null","39","","","","","","","","","","","","","","","",""
"","ITI","","html-keyboard-response","260","313809","0.0-1.0-360.0","0","0","70842","","null","","","null","39","","","","","","","","","","","","","","","NaN",""
"","S1","","html-keyboard-response","261","313962","0.0-1.0-362.0","0","0","70842","","null","","","null","40","","","","","","","","","","","","","","","",""
"","ISI","","html-keyboard-response","262","315966","0.0-1.0-363.0","0","0","70842","","null","","","null","40","NaN","","","","","","","","","","","","","","",""
"","S2","","html-keyboard-response","263","316122","0.0-1.0-364.0","0","0","70842","","null","","","null","40","","NaN","","","","","","","","","","","","","",""
"","response","","html-keyboard-response","264","316625","0.0-1.0-365.0-0.0","0","0","70842","","500","","","68","40","","","1","40","training","adjacent","FG","6","7","R.jpg","M.jpg","1","1","1","",""
"","feedback","","html-keyboard-response","265","317630","0.0-1.0-366.0-0.0","0","0","70842","","null","","","null","40","","","","","","","","","","","","","","","",""
"","ITI","","html-keyboard-response","266","318635","0.0-1.0-369.0","0","0","70842","","null","","","null","40","","","","","","","","","","","","","","","NaN",""
"","S1","","html-keyboard-response","267","318790","0.0-1.0-371.0","0","0","70842","","null","","","null","41","","","","","","","","","","","","","","","",""
"","ISI","","html-keyboard-response","268","320793","0.0-1.0-372.0","0","0","70842","","null","","","null","41","NaN","","","","","","","","","","","","","","",""
"","S2","","html-keyboard-response","269","320946","0.0-1.0-373.0","0","0","70842","","null","","","null","41","","NaN","","","","","","","","","","","","","",""
"","response","","html-keyboard-response","270","321318","0.0-1.0-374.0-0.0","0","0","70842","","371","","","68","41","","","1","41","training","adjacent","FG","6","7","R.jpg","M.jpg","1","1","1","",""
"","feedback","","html-keyboard-response","271","322322","0.0-1.0-375.0-0.0","0","0","70842","","null","","","null","41","","","","","","","","","","","","","","","",""
"","ITI","","html-keyboard-response","272","323328","0.0-1.0-378.0","0","0","70842","","null","","","null","41","","","","","","","","","","","","","","","NaN",""
"","S1","","html-keyboard-response","273","323483","0.0-1.0-380.0","0","0","70842","","null","","","null","42","","","","","","","","","","","","","","","",""
"","ISI","","html-keyboard-response","274","325488","0.0-1.0-381.0","0","0","70842","","null","","","null","42","NaN","","","","","","","","","","","","","","",""
"","S2","","html-keyboard-response","275","325643","0.0-1.0-382.0","0","0","70842","","null","","","null","42","","NaN","","","","","","","","","","","","","",""
"","response","","html-keyboard-response","276","326095","0.0-1.0-383.0-0.0","0","0","70842","","450","","","68","42","","","1","42","training","adjacent","DE","4","5","O.jpg","P.jpg","1","1","1","",""
"","feedback","","html-keyboard-response","277","327098","0.0-1.0-384.0-0.0","0","0","70842","","null","","","null","42","","","","","","","","","","","","","","","",""
"","ITI","","html-keyboard-response","278","328103","0.0-1.0-387.0","0","0","70842","","null","","","null","42","","","","","","","","","","","","","","","NaN",""
"","S1","","html-keyboard-response","279","328258","0.0-1.0-389.0","0","0","70842","","null","","","null","43","","","","","","","","","","","","","","","",""
"","ISI","","html-keyboard-response","280","330262","0.0-1.0-390.0","0","0","70842","","null","","","null","43","NaN","","","","","","","","","","","","","","",""
"","S2","","html-keyboard-response","281","330418","0.0-1.0-391.0","0","0","70842","","null","","","null","43","","NaN","","","","","","","","","","","","","",""
"","response","","html-keyboard-response","282","330856","0.0-1.0-392.0-0.0","0","0","70842","","435","","","68","43","","","1","43","training","adjacent","FE","6","5","R.jpg","P.jpg","1","0","0","",""
"","feedback","","html-keyboard-response","283","331858","0.0-1.0-393.0-0.0","0","0","70842","","null","","","null","43","","","","","","","","","","","","","","","",""
"","time_out","","html-keyboard-response","284","333861","0.0-1.0-395.0-0.0","0","0","70842","","null","","","null","43","","","","","","","","","","","","","","","",""
"","ITI","","html-keyboard-response","285","334864","0.0-1.0-396.0","0","0","70842","","null","","","null","43","","","","","","","","","","","","","","","NaN",""
"","S1","","html-keyboard-response","286","335017","0.0-1.0-398.0","0","0","70842","","null","","","null","44","","","","","","","","","","","","","","","",""
"","ISI","","html-keyboard-response","287","337021","0.0-1.0-399.0","0","0","70842","","null","","","null","44","NaN","","","","","","","","","","","","","","",""
"","S2","","html-keyboard-response","288","337175","0.0-1.0-400.0","0","0","70842","","null","","","null","44","","NaN","","","","","","","","","","","","","",""
"","response","","html-keyboard-response","289","337712","0.0-1.0-401.0-0.0","0","0","70842","","536","","","68","44","","","1","44","training","adjacent","FE","6","5","R.jpg","P.jpg","1","0","0","",""
"","feedback","","html-keyboard-response","290","338716","0.0-1.0-402.0-0.0","0","0","70842","","null","","","null","44","","","","","","","","","","","","","","","",""
"","time_out","","html-keyboard-response","291","340720","0.0-1.0-404.0-0.0","0","0","70842","","null","","","null","44","","","","","","","","","","","","","","","",""
"","ITI","","html-keyboard-response","292","341724","0.0-1.0-405.0","0","0","70842","","null","","","null","44","","","","","","","","","","","","","","","NaN",""
"","S1","","html-keyboard-response","293","341876","0.0-1.0-407.0","0","0","70842","","null","","","null","45","","","","","","","","","","","","","","","",""
"","ISI","","html-keyboard-response","294","343880","0.0-1.0-408.0","0","0","70842","","null","","","null","45","NaN","","","","","","","","","","","","","","",""
"","S2","","html-keyboard-response","295","344036","0.0-1.0-409.0","0","0","70842","","null","","","null","45","","NaN","","","","","","","","","","","","","",""
"","response","","html-keyboard-response","296","344585","0.0-1.0-410.0-0.0","0","0","70842","","547","","","75","45","","","1","45","training","adjacent","DC","4","3","O.jpg","Q.jpg","0","0","1","",""
"","feedback","","html-keyboard-response","297","345588","0.0-1.0-411.0-0.0","0","0","70842","","null","","","null","45","","","","","","","","","","","","","","","",""
"","ITI","","html-keyboard-response","298","346594","0.0-1.0-414.0","0","0","70842","","null","","","null","45","","","","","","","","","","","","","","","NaN",""
"","S1","","html-keyboard-response","299","346749","0.0-1.0-416.0","0","0","70842","","null","","","null","46","","","","","","","","","","","","","","","",""
"","ISI","","html-keyboard-response","300","348751","0.0-1.0-417.0","0","0","70842","","null","","","null","46","NaN","","","","","","","","","","","","","","",""
"","S2","","html-keyboard-response","301","348905","0.0-1.0-418.0","0","0","70842","","null","","","null","46","","NaN","","","","","","","","","","","","","",""
"","response","","html-keyboard-response","302","349228","0.0-1.0-419.0-0.0","0","0","70842","","322","","","75","46","","","1","46","training","adjacent","EF","5","6","P.jpg","R.jpg","0","1","0","",""
"","feedback","","html-keyboard-response","303","350231","0.0-1.0-420.0-0.0","0","0","70842","","null","","","null","46","","","","","","","","","","","","","","","",""
"","time_out","","html-keyboard-response","304","352235","0.0-1.0-422.0-0.0","0","0","70842","","null","","","null","46","","","","","","","","","","","","","","","",""
"","ITI","","html-keyboard-response","305","353239","0.0-1.0-423.0","0","0","70842","","null","","","null","46","","","","","","","","","","","","","","","NaN",""
"","S1","","html-keyboard-response","306","353395","0.0-1.0-425.0","0","0","70842","","null","","","null","47","","","","","","","","","","","","","","","",""
"","ISI","","html-keyboard-response","307","355398","0.0-1.0-426.0","0","0","70842","","120","","","68","47","d","","","","","","","","","","","","","","",""
"","S2","","html-keyboard-response","308","355550","0.0-1.0-427.0","0","0","70842","","null","","","null","47","","NaN","","","","","","","","","","","","","",""
"","response","","html-keyboard-response","309","355808","0.0-1.0-428.0-0.0","0","0","70842","","256","","","68","47","","","1","47","training","adjacent","BA","2","1","N.jpg","L.jpg","1","0","0","",""
"","feedback","","html-keyboard-response","310","356810","0.0-1.0-429.0-0.0","0","0","70842","","null","","","null","47","","","","","","","","","","","","","","","",""
"","time_out","","html-keyboard-response","311","358814","0.0-1.0-431.0-0.0","0","0","70842","","null","","","null","47","","","","","","","","","","","","","","","",""
"","ITI","","html-keyboard-response","312","359819","0.0-1.0-432.0","0","0","70842","","null","","","null","47","","","","","","","","","","","","","","","NaN",""
"","block_over","","html-keyboard-response","313","369594","0.0-1.0-433.0-0.0","0","0","70842","","9769","","","32","47","","","","","","","","","","","","","","","",""
"","S1","","html-keyboard-response","314","369748","0.0-1.0-434.0","0","0","70842","","null","","","null","48","","","","","","","","","","","","","","","",""
"","ISI","","html-keyboard-response","315","371752","0.0-1.0-435.0","0","0","70842","","null","","","null","48","NaN","","","","","","","","","","","","","","",""
"","S2","","html-keyboard-response","316","371909","0.0-1.0-436.0","0","0","70842","","null","","","null","48","","NaN","","","","","","","","","","","","","",""
"","response","","html-keyboard-response","317","372239","0.0-1.0-437.0-0.0","0","0","70842","","326","","","75","48","","","2","48","training","adjacent","BC","2","3","N.jpg","Q.jpg","0","1","0","",""
"","feedback","","html-keyboard-response","318","373245","0.0-1.0-438.0-0.0","0","0","70842","","null","","","null","48","","","","","","","","","","","","","","","",""
"","time_out","","html-keyboard-response","319","375249","0.0-1.0-440.0-0.0","0","0","70842","","null","","","null","48","","","","","","","","","","","","","","","",""
"","ITI","","html-keyboard-response","320","376254","0.0-1.0-441.0","0","0","70842","","null","","","null","48","","","","","","","","","","","","","","","NaN",""
"","S1","","html-keyboard-response","321","376409","0.0-1.0-443.0","0","0","70842","","null","","","null","49","","","","","","","","","","","","","","","",""
"","ISI","","html-keyboard-response","322","378413","0.0-1.0-444.0","0","0","70842","","null","","","null","49","NaN","","","","","","","","","","","","","","",""
"","S2","","html-keyboard-response","323","378568","0.0-1.0-445.0","0","0","70842","","null","","","null","49","","NaN","","","","","","","","","","","","","",""
"","response","","html-keyboard-response","324","379029","0.0-1.0-446.0-0.0","0","0","70842","","456","","","68","49","","","2","49","training","adjacent","FE","6","5","R.jpg","P.jpg","1","0","0","",""
"","feedback","","html-keyboard-response","325","380034","0.0-1.0-447.0-0.0","0","0","70842","","null","","","null","49","","","","","","","","","","","","","","","",""
"","time_out","","html-keyboard-response","326","382040","0.0-1.0-449.0-0.0","0","0","70842","","null","","","null","49","","","","","","","","","","","","","","","",""
"","ITI","","html-keyboard-response","327","383045","0.0-1.0-450.0","0","0","70842","","null","","","null","49","","","","","","","","","","","","","","","NaN",""
"","S1","","html-keyboard-response","328","383201","0.0-1.0-452.0","0","0","70842","","null","","","null","50","","","","","","","","","","","","","","","",""
"","ISI","","html-keyboard-response","329","385204","0.0-1.0-453.0","0","0","70842","","null","","","null","50","NaN","","","","","","","","","","","","","","",""
"","S2","","html-keyboard-response","330","385357","0.0-1.0-454.0","0","0","70842","","null","","","null","50","","NaN","","","","","","","","","","","","","",""
"","response","","html-keyboard-response","331","385818","0.0-1.0-455.0-0.0","0","0","70842","","458","","","75","50","","","2","50","training","adjacent","BA","2","1","N.jpg","L.jpg","0","0","1","",""
"","feedback","","html-keyboard-response","332","386822","0.0-1.0-456.0-0.0","0","0","70842","","null","","","null","50","","","","","","","","","","","","","","","",""
"","ITI","","html-keyboard-response","333","387825","0.0-1.0-459.0","0","0","70842","","null","","","null","50","","","","","","","","","","","","","","","NaN",""
"","S1","","html-keyboard-response","334","387978","0.0-1.0-461.0","0","0","70842","","null","","","null","51","","","","","","","","","","","","","","","",""
"","ISI","","html-keyboard-response","335","389982","0.0-1.0-462.0","0","0","70842","","null","","","null","51","NaN","","","","","","","","","","","","","","",""
"","S2","","html-keyboard-response","336","390137","0.0-1.0-463.0","0","0","70842","","null","","","null","51","","NaN","","","","","","","","","","","","","",""
"","response","","html-keyboard-response","337","390420","0.0-1.0-464.0-0.0","0","0","70842","","280","","","75","51","","","2","51","training","adjacent","FG","6","7","R.jpg","M.jpg","0","1","0","",""
"","feedback","","html-keyboard-response","338","391423","0.0-1.0-465.0-0.0","0","0","70842","","null","","","null","51","","","","","","","","","","","","","","","",""
"","time_out","","html-keyboard-response","339","393428","0.0-1.0-467.0-0.0","0","0","70842","","null","","","null","51","","","","","","","","","","","","","","","",""
"","ITI","","html-keyboard-response","340","394431","0.0-1.0-468.0","0","0","70842","","null","","","null","51","","","","","","","","","","","","","","","NaN",""
"","S1","","html-keyboard-response","341","394583","0.0-1.0-470.0","0","0","70842","","null","","","null","52","","","","","","","","","","","","","","","",""
"","ISI","","html-keyboard-response","342","396587","0.0-1.0-471.0","0","0","70842","","null","","","null","52","NaN","","","","","","","","","","","","","","",""
"","S2","","html-keyboard-response","343","396743","0.0-1.0-472.0","0","0","70842","","null","","","null","52","","NaN","","","","","","","","","","","","","",""
"","response","","html-keyboard-response","344","397359","0.0-1.0-473.0-0.0","0","0","70842","","613","","","68","52","","","2","52","training","adjacent","GF","7","6","M.jpg","R.jpg","1","0","0","",""
"","feedback","","html-keyboard-response","345","398364","0.0-1.0-474.0-0.0","0","0","70842","","null","","","null","52","","","","","","","","","","","","","","","",""
"","time_out","","html-keyboard-response","346","400369","0.0-1.0-476.0-0.0","0","0","70842","","null","","","null","52","","","","","","","","","","","","","","","",""
"","ITI","","html-keyboard-response","347","401374","0.0-1.0-477.0","0","0","70842","","null","","","null","52","","","","","","","","","","","","","","","NaN",""
"","S1","","html-keyboard-response","348","401530","0.0-1.0-479.0","0","0","70842","","null","","","null","53","","","","","","","","","","","","","","","",""
"","ISI","","html-keyboard-response","349","403534","0.0-1.0-480.0","0","0","70842","","null","","","null","53","NaN","","","","","","","","","","","","","","",""
"","S2","","html-keyboard-response","350","403690","0.0-1.0-481.0","0","0","70842","","null","","","null","53","","NaN","","","","","","","","","","","","","",""
"","response","","html-keyboard-response","351","404251","0.0-1.0-482.0-0.0","0","0","70842","","557","","","68","53","","","2","53","training","adjacent","DC","4","3","O.jpg","Q.jpg","1","0","0","",""
"","feedback","","html-keyboard-response","352","405257","0.0-1.0-483.0-0.0","0","0","70842","","null","","","null","53","","","","","","","","","","","","","","","",""
"","time_out","","html-keyboard-response","353","407262","0.0-1.0-485.0-0.0","0","0","70842","","null","","","null","53","","","","","","","","","","","","","","","",""
"","ITI","","html-keyboard-response","354","408279","0.0-1.0-486.0","0","0","70842","","null","","","null","53","","","","","","","","","","","","","","","NaN",""
"","S1","","html-keyboard-response","355","408432","0.0-1.0-488.0","0","0","70842","","null","","","null","54","","","","","","","","","","","","","","","",""
"","ISI","","html-keyboard-response","356","410434","0.0-1.0-489.0","0","0","70842","","null","","","null","54","NaN","","","","","","","","","","","","","","",""
"","S2","","html-keyboard-response","357","410588","0.0-1.0-490.0","0","0","70842","","null","","","null","54","","NaN","","","","","","","","","","","","","",""
"","response","","html-keyboard-response","358","410843","0.0-1.0-491.0-0.0","0","0","70842","","252","","","68","54","","","2","54","training","adjacent","AB","1","2","L.jpg","N.jpg","1","1","1","",""
"","feedback","","html-keyboard-response","359","411848","0.0-1.0-492.0-0.0","0","0","70842","","null","","","null","54","","","","","","","","","","","","","","","",""
"","ITI","","html-keyboard-response","360","412851","0.0-1.0-495.0","0","0","70842","","null","","","null","54","","","","","","","","","","","","","","","NaN",""
"","S1","","html-keyboard-response","361","413003","0.0-1.0-497.0","0","0","70842","","null","","","null","55","","","","","","","","","","","","","","","",""
"","ISI","","html-keyboard-response","362","415007","0.0-1.0-498.0","0","0","70842","","null","","","null","55","NaN","","","","","","","","","","","","","","",""
"","S2","","html-keyboard-response","363","415163","0.0-1.0-499.0","0","0","70842","","null","","","null","55","","NaN","","","","","","","","","","","","","",""
"","response","","html-keyboard-response","364","415740","0.0-1.0-500.0-0.0","0","0","70842","","572","","","75","55","","","2","55","training","adjacent","EF","5","6","P.jpg","R.jpg","0","1","0","",""
"","feedback","","html-keyboard-response","365","416744","0.0-1.0-501.0-0.0","0","0","70842","","null","","","null","55","","","","","","","","","","","","","","","",""
"","time_out","","html-keyboard-response","366","418749","0.0-1.0-503.0-0.0","0","0","70842","","null","","","null","55","","","","","","","","","","","","","","","",""
"","ITI","","html-keyboard-response","367","419755","0.0-1.0-504.0","0","0","70842","","null","","","null","55","","","","","","","","","","","","","","","NaN",""
"","S1","","html-keyboard-response","368","419908","0.0-1.0-506.0","0","0","70842","","null","","","null","56","","","","","","","","","","","","","","","",""
"","ISI","","html-keyboard-response","369","421912","0.0-1.0-507.0","0","0","70842","","null","","","null","56","NaN","","","","","","","","","","","","","","",""
"","S2","","html-keyboard-response","370","422067","0.0-1.0-508.0","0","0","70842","","null","","","null","56","","NaN","","","","","","","","","","","","","",""
"","response","","html-keyboard-response","371","422645","0.0-1.0-509.0-0.0","0","0","70842","","574","","","68","56","","","2","56","training","adjacent","FG","6","7","R.jpg","M.jpg","1","1","1","",""
"","feedback","","html-keyboard-response","372","423651","0.0-1.0-510.0-0.0","0","0","70842","","null","","","null","56","","","","","","","","","","","","","","","",""
"","ITI","","html-keyboard-response","373","424656","0.0-1.0-513.0","0","0","70842","","null","","","null","56","","","","","","","","","","","","","","","NaN",""
"","S1","","html-keyboard-response","374","424812","0.0-1.0-515.0","0","0","70842","","null","","","null","57","","","","","","","","","","","","","","","",""
"","ISI","","html-keyboard-response","375","426816","0.0-1.0-516.0","0","0","70842","","null","","","null","57","NaN","","","","","","","","","","","","","","",""
"","S2","","html-keyboard-response","376","426971","0.0-1.0-517.0","0","0","70842","","null","","","null","57","","NaN","","","","","","","","","","","","","",""
"","response","","html-keyboard-response","377","427471","0.0-1.0-518.0-0.0","0","0","70842","","497","","","75","57","","","2","57","training","adjacent","CB","3","2","Q.jpg","N.jpg","0","0","1","",""
"","feedback","","html-keyboard-response","378","428474","0.0-1.0-519.0-0.0","0","0","70842","","null","","","null","57","","","","","","","","","","","","","","","",""
"","ITI","","html-keyboard-response","379","429480","0.0-1.0-522.0","0","0","70842","","null","","","null","57","","","","","","","","","","","","","","","NaN",""
"","S1","","html-keyboard-response","380","429636","0.0-1.0-524.0","0","0","70842","","null","","","null","58","","","","","","","","","","","","","","","",""
"","ISI","","html-keyboard-response","381","431640","0.0-1.0-525.0","0","0","70842","","null","","","null","58","NaN","","","","","","","","","","","","","","",""
"","S2","","html-keyboard-response","382","431795","0.0-1.0-526.0","0","0","70842","","null","","","null","58","","NaN","","","","","","","","","","","","","",""
"","response","","html-keyboard-response","383","432129","0.0-1.0-527.0-0.0","0","0","70842","","329","","","68","58","","","2","58","training","adjacent","DE","4","5","O.jpg","P.jpg","1","1","1","",""
"","feedback","","html-keyboard-response","384","433133","0.0-1.0-528.0-0.0","0","0","70842","","null","","","null","58","","","","","","","","","","","","","","","",""
"","ITI","","html-keyboard-response","385","434138","0.0-1.0-531.0","0","0","70842","","null","","","null","58","","","","","","","","","","","","","","","NaN",""
"","S1","","html-keyboard-response","386","434292","0.0-1.0-533.0","0","0","70842","","null","","","null","59","","","","","","","","","","","","","","","",""
"","ISI","","html-keyboard-response","387","436296","0.0-1.0-534.0","0","0","70842","","null","","","null","59","NaN","","","","","","","","","","","","","","",""
"","S2","","html-keyboard-response","388","436451","0.0-1.0-535.0","0","0","70842","","null","","","null","59","","NaN","","","","","","","","","","","","","",""
"","response","","html-keyboard-response","389","436691","0.0-1.0-536.0-0.0","0","0","70842","","237","","","75","59","","","2","59","training","adjacent","CB","3","2","Q.jpg","N.jpg","0","0","1","",""
"","feedback","","html-keyboard-response","390","437694","0.0-1.0-537.0-0.0","0","0","70842","","null","","","null","59","","","","","","","","","","","","","","","",""
"","ITI","","html-keyboard-response","391","438697","0.0-1.0-540.0","0","0","70842","","null","","","null","59","","","","","","","","","","","","","","","NaN",""
"","S1","","html-keyboard-response","392","438851","0.0-1.0-542.0","0","0","70842","","null","","","null","60","","","","","","","","","","","","","","","",""
"","ISI","","html-keyboard-response","393","440853","0.0-1.0-543.0","0","0","70842","","null","","","null","60","NaN","","","","","","","","","","","","","","",""
"","S2","","html-keyboard-response","394","441006","0.0-1.0-544.0","0","0","70842","","null","","","null","60","","NaN","","","","","","","","","","","","","",""
"","response","","html-keyboard-response","395","441514","0.0-1.0-545.0-0.0","0","0","70842","","507","","","68","60","","","2","60","training","adjacent","CD","3","4","Q.jpg","O.jpg","1","1","1","",""
"","feedback","","html-keyboard-response","396","442517","0.0-1.0-546.0-0.0","0","0","70842","","null","","","null","60","","","","","","","","","","","","","","","",""
"","ITI","","html-keyboard-response","397","443522","0.0-1.0-549.0","0","0","70842","","null","","","null","60","","","","","","","","","","","","","","","NaN",""
"","S1","","html-keyboard-response","398","443677","0.0-1.0-551.0","0","0","70842","","null","","","null","61","","","","","","","","","","","","","","","",""
"","ISI","","html-keyboard-response","399","445682","0.0-1.0-552.0","0","0","70842","","null","","","null","61","NaN","","","","","","","","","","","","","","",""
"","S2","","html-keyboard-response","400","445837","0.0-1.0-553.0","0","0","70842","","null","","","null","61","","NaN","","","","","","","","","","","","","",""
"","response","","html-keyboard-response","401","446353","0.0-1.0-554.0-0.0","0","0","70842","","513","","","68","61","","","2","61","training","adjacent","CD","3","4","Q.jpg","O.jpg","1","1","1","",""
"","feedback","","html-keyboard-response","402","447357","0.0-1.0-555.0-0.0","0","0","70842","","null","","","null","61","","","","","","","","","","","","","","","",""
"","ITI","","html-keyboard-response","403","448362","0.0-1.0-558.0","0","0","70842","","null","","","null","61","","","","","","","","","","","","","","","NaN",""
"","S1","","html-keyboard-response","404","448518","0.0-1.0-560.0","0","0","70842","","null","","","null","62","","","","","","","","","","","","","","","",""
"","ISI","","html-keyboard-response","405","450523","0.0-1.0-561.0","0","0","70842","","null","","","null","62","NaN","","","","","","","","","","","","","","",""
"","S2","","html-keyboard-response","406","450679","0.0-1.0-562.0","0","0","70842","","null","","","null","62","","NaN","","","","","","","","","","","","","",""
"","response","","html-keyboard-response","407","450893","0.0-1.0-563.0-0.0","0","0","70842","","210","","","68","62","","","2","62","training","adjacent","AB","1","2","L.jpg","N.jpg","1","1","1","",""
"","feedback","","html-keyboard-response","408","451897","0.0-1.0-564.0-0.0","0","0","70842","","null","","","null","62","","","","","","","","","","","","","","","",""
"","ITI","","html-keyboard-response","409","452900","0.0-1.0-567.0","0","0","70842","","null","","","null","62","","","","","","","","","","","","","","","NaN",""
"","S1","","html-keyboard-response","410","453052","0.0-1.0-569.0","0","0","70842","","null","","","null","63","","","","","","","","","","","","","","","",""
"","ISI","","html-keyboard-response","411","455057","0.0-1.0-570.0","0","0","70842","","null","","","null","63","NaN","","","","","","","","","","","","","","",""
"","S2","","html-keyboard-response","412","455212","0.0-1.0-571.0","0","0","70842","","null","","","null","63","","NaN","","","","","","","","","","","","","",""
"","response","","html-keyboard-response","413","455944","0.0-1.0-572.0-0.0","0","0","70842","","730","","","75","63","","","2","63","training","adjacent","ED","5","4","P.jpg","O.jpg","0","0","1","",""
"","feedback","","html-keyboard-response","414","456947","0.0-1.0-573.0-0.0","0","0","70842","","null","","","null","63","","","","","","","","","","","","","","","",""
"","ITI","","html-keyboard-response","415","457952","0.0-1.0-576.0","0","0","70842","","null","","","null","63","","","","","","","","","","","","","","","NaN",""
"","S1","","html-keyboard-response","416","458106","0.0-1.0-578.0","0","0","70842","","null","","","null","64","","","","","","","","","","","","","","","",""
"","ISI","","html-keyboard-response","417","460110","0.0-1.0-579.0","0","0","70842","","null","","","null","64","NaN","","","","","","","","","","","","","","",""
"","S2","","html-keyboard-response","418","460270","0.0-1.0-580.0","0","0","70842","","null","","","null","64","","NaN","","","","","","","","","","","","","",""
"","response","","html-keyboard-response","419","460671","0.0-1.0-581.0-0.0","0","0","70842","","397","","","75","64","","","2","64","training","adjacent","CB","3","2","Q.jpg","N.jpg","0","0","1","",""
"","feedback","","html-keyboard-response","420","461676","0.0-1.0-582.0-0.0","0","0","70842","","null","","","null","64","","","","","","","","","","","","","","","",""
"","ITI","","html-keyboard-response","421","462680","0.0-1.0-585.0","0","0","70842","","null","","","null","64","","","","","","","","","","","","","","","NaN",""
"","S1","","html-keyboard-response","422","462847","0.0-1.0-587.0","0","0","70842","","null","","","null","65","","","","","","","","","","","","","","","",""
"","ISI","","html-keyboard-response","423","464851","0.0-1.0-588.0","0","0","70842","","null","","","null","65","NaN","","","","","","","","","","","","","","",""
"","S2","","html-keyboard-response","424","465007","0.0-1.0-589.0","0","0","70842","","null","","","null","65","","NaN","","","","","","","","","","","","","",""
"","response","","html-keyboard-response","425","465415","0.0-1.0-590.0-0.0","0","0","70842","","405","","","68","65","","","2","65","training","adjacent","DE","4","5","O.jpg","P.jpg","1","1","1","",""
"","feedback","","html-keyboard-response","426","466421","0.0-1.0-591.0-0.0","0","0","70842","","null","","","null","65","","","","","","","","","","","","","","","",""
"","ITI","","html-keyboard-response","427","467427","0.0-1.0-594.0","0","0","70842","","null","","","null","65","","","","","","","","","","","","","","","NaN",""
"","S1","","html-keyboard-response","428","467582","0.0-1.0-596.0","0","0","70842","","null","","","null","66","","","","","","","","","","","","","","","",""
"","ISI","","html-keyboard-response","429","469585","0.0-1.0-597.0","0","0","70842","","null","","","null","66","NaN","","","","","","","","","","","","","","",""
"","S2","","html-keyboard-response","430","469738","0.0-1.0-598.0","0","0","70842","","null","","","null","66","","NaN","","","","","","","","","","","","","",""
"","response","","html-keyboard-response","431","470200","0.0-1.0-599.0-0.0","0","0","70842","","461","","","68","66","","","2","66","training","adjacent","DE","4","5","O.jpg","P.jpg","1","1","1","",""
"","feedback","","html-keyboard-response","432","471202","0.0-1.0-600.0-0.0","0","0","70842","","null","","","null","66","","","","","","","","","","","","","","","",""
"","ITI","","html-keyboard-response","433","472206","0.0-1.0-603.0","0","0","70842","","null","","","null","66","","","","","","","","","","","","","","","NaN",""
"","S1","","html-keyboard-response","434","472359","0.0-1.0-605.0","0","0","70842","","null","","","null","67","","","","","","","","","","","","","","","",""
"","ISI","","html-keyboard-response","435","474363","0.0-1.0-606.0","0","0","70842","","null","","","null","67","NaN","","","","","","","","","","","","","","",""
"","S2","","html-keyboard-response","436","474518","0.0-1.0-607.0","0","0","70842","","null","","","null","67","","NaN","","","","","","","","","","","","","",""
"","response","","html-keyboard-response","437","475069","0.0-1.0-608.0-0.0","0","0","70842","","546","","","75","67","","","2","67","training","adjacent","BA","2","1","N.jpg","L.jpg","0","0","1","",""
"","feedback","","html-keyboard-response","438","476075","0.0-1.0-609.0-0.0","0","0","70842","","null","","","null","67","","","","","","","","","","","","","","","",""
"","ITI","","html-keyboard-response","439","477081","0.0-1.0-612.0","0","0","70842","","null","","","null","67","","","","","","","","","","","","","","","NaN",""
"","S1","","html-keyboard-response","440","477238","0.0-1.0-614.0","0","0","70842","","null","","","null","68","","","","","","","","","","","","","","","",""
"","ISI","","html-keyboard-response","441","479243","0.0-1.0-615.0","0","0","70842","","null","","","null","68","NaN","","","","","","","","","","","","","","",""
"","S2","","html-keyboard-response","442","479399","0.0-1.0-616.0","0","0","70842","","null","","","null","68","","NaN","","","","","","","","","","","","","",""
"","response","","html-keyboard-response","443","479901","0.0-1.0-617.0-0.0","0","0","70842","","500","","","75","68","","","2","68","training","adjacent","AB","1","2","L.jpg","N.jpg","0","1","0","",""
"","feedback","","html-keyboard-response","444","480904","0.0-1.0-618.0-0.0","0","0","70842","","null","","","null","68","","","","","","","","","","","","","","","",""
"","time_out","","html-keyboard-response","445","482908","0.0-1.0-620.0-0.0","0","0","70842","","null","","","null","68","","","","","","","","","","","","","","","",""
"","ITI","","html-keyboard-response","446","483913","0.0-1.0-621.0","0","0","70842","","null","","","null","68","","","","","","","","","","","","","","","NaN",""
"","S1","","html-keyboard-response","447","484068","0.0-1.0-623.0","0","0","70842","","null","","","null","69","","","","","","","","","","","","","","","",""
"","ISI","","html-keyboard-response","448","486071","0.0-1.0-624.0","0","0","70842","","null","","","null","69","NaN","","","","","","","","","","","","","","",""
"","S2","","html-keyboard-response","449","486225","0.0-1.0-625.0","0","0","70842","","null","","","null","69","","NaN","","","","","","","","","","","","","",""
"","response","","html-keyboard-response","450","486802","0.0-1.0-626.0-0.0","0","0","70842","","575","","","75","69","","","2","69","training","adjacent","EF","5","6","P.jpg","R.jpg","0","1","0","",""
"","feedback","","html-keyboard-response","451","487805","0.0-1.0-627.0-0.0","0","0","70842","","null","","","null","69","","","","","","","","","","","","","","","",""
"","time_out","","html-keyboard-response","452","489810","0.0-1.0-629.0-0.0","0","0","70842","","null","","","null","69","","","","","","","","","","","","","","","",""
"","ITI","","html-keyboard-response","453","490815","0.0-1.0-630.0","0","0","70842","","null","","","null","69","","","","","","","","","","","","","","","NaN",""
"","S1","","html-keyboard-response","454","490970","0.0-1.0-632.0","0","0","70842","","null","","","null","70","","","","","","","","","","","","","","","",""
"","ISI","","html-keyboard-response","455","492974","0.0-1.0-633.0","0","0","70842","","null","","","null","70","NaN","","","","","","","","","","","","","","",""
"","S2","","html-keyboard-response","456","493128","0.0-1.0-634.0","0","0","70842","","null","","","null","70","","NaN","","","","","","","","","","","","","",""
"","response","","html-keyboard-response","457","493500","0.0-1.0-635.0-0.0","0","0","70842","","368","","","68","70","","","2","70","training","adjacent","BC","2","3","N.jpg","Q.jpg","1","1","1","",""
"","feedback","","html-keyboard-response","458","494504","0.0-1.0-636.0-0.0","0","0","70842","","null","","","null","70","","","","","","","","","","","","","","","",""
"","ITI","","html-keyboard-response","459","495509","0.0-1.0-639.0","0","0","70842","","null","","","null","70","","","","","","","","","","","","","","","NaN",""
"","S1","","html-keyboard-response","460","495664","0.0-1.0-641.0","0","0","70842","","null","","","null","71","","","","","","","","","","","","","","","",""
"","ISI","","html-keyboard-response","461","497669","0.0-1.0-642.0","0","0","70842","","null","","","null","71","NaN","","","","","","","","","","","","","","",""
"","S2","","html-keyboard-response","462","497824","0.0-1.0-643.0","0","0","70842","","null","","","null","71","","NaN","","","","","","","","","","","","","",""
"","response","","html-keyboard-response","463","498144","0.0-1.0-644.0-0.0","0","0","70842","","318","","","68","71","","","2","71","training","adjacent","BC","2","3","N.jpg","Q.jpg","1","1","1","",""
"","feedback","","html-keyboard-response","464","499146","0.0-1.0-645.0-0.0","0","0","70842","","null","","","null","71","","","","","","","","","","","","","","","",""
"","ITI","","html-keyboard-response","465","500149","0.0-1.0-648.0","0","0","70842","","null","","","null","71","","","","","","","","","","","","","","","NaN",""
"","S1","","html-keyboard-response","466","500302","0.0-1.0-650.0","0","0","70842","","null","","","null","72","","","","","","","","","","","","","","","",""
"","ISI","","html-keyboard-response","467","502308","0.0-1.0-651.0","0","0","70842","","null","","","null","72","NaN","","","","","","","","","","","","","","",""
"","S2","","html-keyboard-response","468","502464","0.0-1.0-652.0","0","0","70842","","null","","","null","72","","NaN","","","","","","","","","","","","","",""
"","response","","html-keyboard-response","469","502990","0.0-1.0-653.0-0.0","0","0","70842","","522","","","68","72","","","2","72","training","adjacent","BC","2","3","N.jpg","Q.jpg","1","1","1","",""
"","feedback","","html-keyboard-response","470","503994","0.0-1.0-654.0-0.0","0","0","70842","","null","","","null","72","","","","","","","","","","","","","","","",""
"","ITI","","html-keyboard-response","471","504999","0.0-1.0-657.0","0","0","70842","","null","","","null","72","","","","","","","","","","","","","","","NaN",""
"","S1","","html-keyboard-response","472","505154","0.0-1.0-659.0","0","0","70842","","null","","","null","73","","","","","","","","","","","","","","","",""
"","ISI","","html-keyboard-response","473","507157","0.0-1.0-660.0","0","0","70842","","null","","","null","73","NaN","","","","","","","","","","","","","","",""
"","S2","","html-keyboard-response","474","507310","0.0-1.0-661.0","0","0","70842","","null","","","null","73","","NaN","","","","","","","","","","","","","",""
"","response","","html-keyboard-response","475","507801","0.0-1.0-662.0-0.0","0","0","70842","","488","","","68","73","","","2","73","training","adjacent","DC","4","3","O.jpg","Q.jpg","1","0","0","",""
"","feedback","","html-keyboard-response","476","508806","0.0-1.0-663.0-0.0","0","0","70842","","null","","","null","73","","","","","","","","","","","","","","","",""
"","time_out","","html-keyboard-response","477","510812","0.0-1.0-665.0-0.0","0","0","70842","","null","","","null","73","","","","","","","","","","","","","","","",""
"","ITI","","html-keyboard-response","478","511816","0.0-1.0-666.0","0","0","70842","","null","","","null","73","","","","","","","","","","","","","","","NaN",""
"","S1","","html-keyboard-response","479","511971","0.0-1.0-668.0","0","0","70842","","null","","","null","74","","","","","","","","","","","","","","","",""
"","ISI","","html-keyboard-response","480","513974","0.0-1.0-669.0","0","0","70842","","null","","","null","74","NaN","","","","","","","","","","","","","","",""
"","S2","","html-keyboard-response","481","514127","0.0-1.0-670.0","0","0","70842","","null","","","null","74","","NaN","","","","","","","","","","","","","",""
"","response","","html-keyboard-response","482","514770","0.0-1.0-671.0-0.0","0","0","70842","","641","","","68","74","","","2","74","training","adjacent","ED","5","4","P.jpg","O.jpg","1","0","0","",""
"","feedback","","html-keyboard-response","483","515773","0.0-1.0-672.0-0.0","0","0","70842","","null","","","null","74","","","","","","","","","","","","","","","",""
"","time_out","","html-keyboard-response","484","517778","0.0-1.0-674.0-0.0","0","0","70842","","null","","","null","74","","","","","","","","","","","","","","","",""
"","ITI","","html-keyboard-response","485","518783","0.0-1.0-675.0","0","0","70842","","null","","","null","74","","","","","","","","","","","","","","","NaN",""
"","S1","","html-keyboard-response","486","518939","0.0-1.0-677.0","0","0","70842","","null","","","null","75","","","","","","","","","","","","","","","",""
"","ISI","","html-keyboard-response","487","520942","0.0-1.0-678.0","0","0","70842","","778","","","68","75","d","","","","","","","","","","","","","","",""
"","S2","","html-keyboard-response","488","521094","0.0-1.0-679.0","0","0","70842","","null","","","null","75","","NaN","","","","","","","","","","","","","",""
"","response","","html-keyboard-response","489","521839","0.0-1.0-680.0-0.0","0","0","70842","","743","","","75","75","","","2","75","training","adjacent","CD","3","4","Q.jpg","O.jpg","0","1","0","",""
"","feedback","","html-keyboard-response","490","522844","0.0-1.0-681.0-0.0","0","0","70842","","null","","","null","75","","","","","","","","","","","","","","","",""
"","time_out","","html-keyboard-response","491","524849","0.0-1.0-683.0-0.0","0","0","70842","","null","","","null","75","","","","","","","","","","","","","","","",""
"","ITI","","html-keyboard-response","492","525853","0.0-1.0-684.0","0","0","70842","","null","","","null","75","","","","","","","","","","","","","","","NaN",""
"","S1","","html-keyboard-response","493","526009","0.0-1.0-686.0","0","0","70842","","null","","","null","76","","","","","","","","","","","","","","","",""
"","ISI","","html-keyboard-response","494","528012","0.0-1.0-687.0","0","0","70842","","null","","","null","76","NaN","","","","","","","","","","","","","","",""
"","S2","","html-keyboard-response","495","528175","0.0-1.0-688.0","0","0","70842","","null","","","null","76","","NaN","","","","","","","","","","","","","",""
"","response","","html-keyboard-response","496","528818","0.0-1.0-689.0-0.0","0","0","70842","","641","","","68","76","","","2","76","training","adjacent","CD","3","4","Q.jpg","O.jpg","1","1","1","",""
"","feedback","","html-keyboard-response","497","529820","0.0-1.0-690.0-0.0","0","0","70842","","null","","","null","76","","","","","","","","","","","","","","","",""
"","ITI","","html-keyboard-response","498","530824","0.0-1.0-693.0","0","0","70842","","null","","","null","76","","","","","","","","","","","","","","","NaN",""
"","S1","","html-keyboard-response","499","530980","0.0-1.0-695.0","0","0","70842","","null","","","null","77","","","","","","","","","","","","","","","",""
"","ISI","","html-keyboard-response","500","532984","0.0-1.0-696.0","0","0","70842","","null","","","null","77","NaN","","","","","","","","","","","","","","",""
"","S2","","html-keyboard-response","501","533140","0.0-1.0-697.0","0","0","70842","","null","","","null","77","","NaN","","","","","","","","","","","","","",""
"","response","","html-keyboard-response","502","533633","0.0-1.0-698.0-0.0","0","0","70842","","490","","","75","77","","","2","77","training","adjacent","CB","3","2","Q.jpg","N.jpg","0","0","1","",""
"","feedback","","html-keyboard-response","503","534640","0.0-1.0-699.0-0.0","0","0","70842","","null","","","null","77","","","","","","","","","","","","","","","",""
"","ITI","","html-keyboard-response","504","535644","0.0-1.0-702.0","0","0","70842","","null","","","null","77","","","","","","","","","","","","","","","NaN",""
"","S1","","html-keyboard-response","505","535797","0.0-1.0-704.0","0","0","70842","","null","","","null","78","","","","","","","","","","","","","","","",""
"","ISI","","html-keyboard-response","506","537800","0.0-1.0-705.0","0","0","70842","","null","","","null","78","NaN","","","","","","","","","","","","","","",""
"","S2","","html-keyboard-response","507","537955","0.0-1.0-706.0","0","0","70842","","null","","","null","78","","NaN","","","","","","","","","","","","","",""
"","response","","html-keyboard-response","508","538489","0.0-1.0-707.0-0.0","0","0","70842","","529","","","68","78","","","2","78","training","adjacent","EF","5","6","P.jpg","R.jpg","1","1","1","",""
"","feedback","","html-keyboard-response","509","539493","0.0-1.0-708.0-0.0","0","0","70842","","null","","","null","78","","","","","","","","","","","","","","","",""
"","ITI","","html-keyboard-response","510","540498","0.0-1.0-711.0","0","0","70842","","null","","","null","78","","","","","","","","","","","","","","","NaN",""
"","S1","","html-keyboard-response","511","540654","0.0-1.0-713.0","0","0","70842","","null","","","null","79","","","","","","","","","","","","","","","",""
"","ISI","","html-keyboard-response","512","542656","0.0-1.0-714.0","0","0","70842","","null","","","null","79","NaN","","","","","","","","","","","","","","",""
"","S2","","html-keyboard-response","513","542809","0.0-1.0-715.0","0","0","70842","","null","","","null","79","","NaN","","","","","","","","","","","","","",""
"","response","","html-keyboard-response","514","543194","0.0-1.0-716.0-0.0","0","0","70842","","382","","","75","79","","","2","79","training","adjacent","GF","7","6","M.jpg","R.jpg","0","0","1","",""
"","feedback","","html-keyboard-response","515","544199","0.0-1.0-717.0-0.0","0","0","70842","","null","","","null","79","","","","","","","","","","","","","","","",""
"","ITI","","html-keyboard-response","516","545204","0.0-1.0-720.0","0","0","70842","","null","","","null","79","","","","","","","","","","","","","","","NaN",""
"","S1","","html-keyboard-response","517","545360","0.0-1.0-722.0","0","0","70842","","null","","","null","80","","","","","","","","","","","","","","","",""
"","ISI","","html-keyboard-response","518","547364","0.0-1.0-723.0","0","0","70842","","null","","","null","80","NaN","","","","","","","","","","","","","","",""
"","S2","","html-keyboard-response","519","547517","0.0-1.0-724.0","0","0","70842","","null","","","null","80","","NaN","","","","","","","","","","","","","",""
"","response","","html-keyboard-response","520","547904","0.0-1.0-725.0-0.0","0","0","70842","","385","","","75","80","","","2","80","training","adjacent","GF","7","6","M.jpg","R.jpg","0","0","1","",""
"","feedback","","html-keyboard-response","521","548908","0.0-1.0-726.0-0.0","0","0","70842","","null","","","null","80","","","","","","","","","","","","","","","",""
"","ITI","","html-keyboard-response","522","549912","0.0-1.0-729.0","0","0","70842","","null","","","null","80","","","","","","","","","","","","","","","NaN",""
"","S1","","html-keyboard-response","523","550066","0.0-1.0-731.0","0","0","70842","","null","","","null","81","","","","","","","","","","","","","","","",""
"","ISI","","html-keyboard-response","524","552070","0.0-1.0-732.0","0","0","70842","","null","","","null","81","NaN","","","","","","","","","","","","","","",""
"","S2","","html-keyboard-response","525","552228","0.0-1.0-733.0","0","0","70842","","null","","","null","81","","NaN","","","","","","","","","","","","","",""
"","response","","html-keyboard-response","526","552574","0.0-1.0-734.0-0.0","0","0","70842","","343","","","68","81","","","2","81","training","adjacent","AB","1","2","L.jpg","N.jpg","1","1","1","",""
"","feedback","","html-keyboard-response","527","553577","0.0-1.0-735.0-0.0","0","0","70842","","null","","","null","81","","","","","","","","","","","","","","","",""
"","ITI","","html-keyboard-response","528","554581","0.0-1.0-738.0","0","0","70842","","null","","","null","81","","","","","","","","","","","","","","","NaN",""
"","S1","","html-keyboard-response","529","554737","0.0-1.0-740.0","0","0","70842","","null","","","null","82","","","","","","","","","","","","","","","",""
"","ISI","","html-keyboard-response","530","556739","0.0-1.0-741.0","0","0","70842","","null","","","null","82","NaN","","","","","","","","","","","","","","",""
"","S2","","html-keyboard-response","531","556892","0.0-1.0-742.0","0","0","70842","","null","","","null","82","","NaN","","","","","","","","","","","","","",""
"","response","","html-keyboard-response","532","557563","0.0-1.0-743.0-0.0","0","0","70842","","670","","","68","82","","","2","82","training","adjacent","EF","5","6","P.jpg","R.jpg","1","1","1","",""
"","feedback","","html-keyboard-response","533","558569","0.0-1.0-744.0-0.0","0","0","70842","","null","","","null","82","","","","","","","","","","","","","","","",""
"","ITI","","html-keyboard-response","534","559575","0.0-1.0-747.0","0","0","70842","","null","","","null","82","","","","","","","","","","","","","","","NaN",""
"","S1","","html-keyboard-response","535","559730","0.0-1.0-749.0","0","0","70842","","null","","","null","83","","","","","","","","","","","","","","","",""
"","ISI","","html-keyboard-response","536","561734","0.0-1.0-750.0","0","0","70842","","null","","","null","83","NaN","","","","","","","","","","","","","","",""
"","S2","","html-keyboard-response","537","561890","0.0-1.0-751.0","0","0","70842","","null","","","null","83","","NaN","","","","","","","","","","","","","",""
"","response","","html-keyboard-response","538","562139","0.0-1.0-752.0-0.0","0","0","70842","","245","","","75","83","","","2","83","training","adjacent","FE","6","5","R.jpg","P.jpg","0","0","1","",""
"","feedback","","html-keyboard-response","539","563144","0.0-1.0-753.0-0.0","0","0","70842","","null","","","null","83","","","","","","","","","","","","","","","",""
"","ITI","","html-keyboard-response","540","564147","0.0-1.0-756.0","0","0","70842","","null","","","null","83","","","","","","","","","","","","","","","NaN",""
"","S1","","html-keyboard-response","541","564300","0.0-1.0-758.0","0","0","70842","","null","","","null","84","","","","","","","","","","","","","","","",""
"","ISI","","html-keyboard-response","542","566304","0.0-1.0-759.0","0","0","70842","","null","","","null","84","NaN","","","","","","","","","","","","","","",""
"","S2","","html-keyboard-response","543","566460","0.0-1.0-760.0","0","0","70842","","null","","","null","84","","NaN","","","","","","","","","","","","","",""
"","response","","html-keyboard-response","544","567789","0.0-1.0-761.0-0.0","0","0","70842","","1324","","","75","84","","","2","84","training","adjacent","DC","4","3","O.jpg","Q.jpg","0","0","1","",""
"","feedback","","html-keyboard-response","545","568793","0.0-1.0-762.0-0.0","0","0","70842","","null","","","null","84","","","","","","","","","","","","","","","",""
"","ITI","","html-keyboard-response","546","569798","0.0-1.0-765.0","0","0","70842","","null","","","null","84","","","","","","","","","","","","","","","NaN",""
"","S1","","html-keyboard-response","547","569954","0.0-1.0-767.0","0","0","70842","","null","","","null","85","","","","","","","","","","","","","","","",""
"","ISI","","html-keyboard-response","548","571958","0.0-1.0-768.0","0","0","70842","","null","","","null","85","NaN","","","","","","","","","","","","","","",""
"","S2","","html-keyboard-response","549","572111","0.0-1.0-769.0","0","0","70842","","null","","","null","85","","NaN","","","","","","","","","","","","","",""
"","response","","html-keyboard-response","550","572618","0.0-1.0-770.0-0.0","0","0","70842","","504","","","75","85","","","2","85","training","adjacent","FE","6","5","R.jpg","P.jpg","0","0","1","",""
"","feedback","","html-keyboard-response","551","573624","0.0-1.0-771.0-0.0","0","0","70842","","null","","","null","85","","","","","","","","","","","","","","","",""
"","ITI","","html-keyboard-response","552","574629","0.0-1.0-774.0","0","0","70842","","null","","","null","85","","","","","","","","","","","","","","","NaN",""
"","S1","","html-keyboard-response","553","574788","0.0-1.0-776.0","0","0","70842","","null","","","null","86","","","","","","","","","","","","","","","",""
"","ISI","","html-keyboard-response","554","576792","0.0-1.0-777.0","0","0","70842","","null","","","null","86","NaN","","","","","","","","","","","","","","",""
"","S2","","html-keyboard-response","555","576947","0.0-1.0-778.0","0","0","70842","","null","","","null","86","","NaN","","","","","","","","","","","","","",""
"","response","","html-keyboard-response","556","577285","0.0-1.0-779.0-0.0","0","0","70842","","334","","","75","86","","","2","86","training","adjacent","FE","6","5","R.jpg","P.jpg","0","0","1","",""
"","feedback","","html-keyboard-response","557","578290","0.0-1.0-780.0-0.0","0","0","70842","","null","","","null","86","","","","","","","","","","","","","","","",""
"","ITI","","html-keyboard-response","558","579293","0.0-1.0-783.0","0","0","70842","","null","","","null","86","","","","","","","","","","","","","","","NaN",""
"","S1","","html-keyboard-response","559","579447","0.0-1.0-785.0","0","0","70842","","null","","","null","87","","","","","","","","","","","","","","","",""
"","ISI","","html-keyboard-response","560","581451","0.0-1.0-786.0","0","0","70842","","null","","","null","87","NaN","","","","","","","","","","","","","","",""
"","S2","","html-keyboard-response","561","581607","0.0-1.0-787.0","0","0","70842","","null","","","null","87","","NaN","","","","","","","","","","","","","",""
"","response","","html-keyboard-response","562","582299","0.0-1.0-788.0-0.0","0","0","70842","","688","","","68","87","","","2","87","training","adjacent","DE","4","5","O.jpg","P.jpg","1","1","1","",""
"","feedback","","html-keyboard-response","563","583303","0.0-1.0-789.0-0.0","0","0","70842","","null","","","null","87","","","","","","","","","","","","","","","",""
"","ITI","","html-keyboard-response","564","584308","0.0-1.0-792.0","0","0","70842","","null","","","null","87","","","","","","","","","","","","","","","NaN",""
"","S1","","html-keyboard-response","565","584462","0.0-1.0-794.0","0","0","70842","","null","","","null","88","","","","","","","","","","","","","","","",""
"","ISI","","html-keyboard-response","566","586467","0.0-1.0-795.0","0","0","70842","","null","","","null","88","NaN","","","","","","","","","","","","","","",""
"","S2","","html-keyboard-response","567","586623","0.0-1.0-796.0","0","0","70842","","null","","","null","88","","NaN","","","","","","","","","","","","","",""
"","response","","html-keyboard-response","568","586978","0.0-1.0-797.0-0.0","0","0","70842","","353","","","75","88","","","2","88","training","adjacent","ED","5","4","P.jpg","O.jpg","0","0","1","",""
"","feedback","","html-keyboard-response","569","587981","0.0-1.0-798.0-0.0","0","0","70842","","null","","","null","88","","","","","","","","","","","","","","","",""
"","ITI","","html-keyboard-response","570","588984","0.0-1.0-801.0","0","0","70842","","null","","","null","88","","","","","","","","","","","","","","","NaN",""
"","S1","","html-keyboard-response","571","589137","0.0-1.0-803.0","0","0","70842","","null","","","null","89","","","","","","","","","","","","","","","",""
"","ISI","","html-keyboard-response","572","591142","0.0-1.0-804.0","0","0","70842","","null","","","null","89","NaN","","","","","","","","","","","","","","",""
"","S2","","html-keyboard-response","573","591298","0.0-1.0-805.0","0","0","70842","","null","","","null","89","","NaN","","","","","","","","","","","","","",""
"","response","","html-keyboard-response","574","592041","0.0-1.0-806.0-0.0","0","0","70842","","740","","","68","89","","","2","89","training","adjacent","FG","6","7","R.jpg","M.jpg","1","1","1","",""
"","feedback","","html-keyboard-response","575","593045","0.0-1.0-807.0-0.0","0","0","70842","","null","","","null","89","","","","","","","","","","","","","","","",""
"","ITI","","html-keyboard-response","576","594049","0.0-1.0-810.0","0","0","70842","","null","","","null","89","","","","","","","","","","","","","","","NaN",""
"","S1","","html-keyboard-response","577","594204","0.0-1.0-812.0","0","0","70842","","null","","","null","90","","","","","","","","","","","","","","","",""
"","ISI","","html-keyboard-response","578","596208","0.0-1.0-813.0","0","0","70842","","null","","","null","90","NaN","","","","","","","","","","","","","","",""
"","S2","","html-keyboard-response","579","596364","0.0-1.0-814.0","0","0","70842","","null","","","null","90","","NaN","","","","","","","","","","","","","",""
"","response","","html-keyboard-response","580","597326","0.0-1.0-815.0-0.0","0","0","70842","","959","","","75","90","","","2","90","training","adjacent","BA","2","1","N.jpg","L.jpg","0","0","1","",""
"","feedback","","html-keyboard-response","581","598331","0.0-1.0-816.0-0.0","0","0","70842","","null","","","null","90","","","","","","","","","","","","","","","",""
"","ITI","","html-keyboard-response","582","599333","0.0-1.0-819.0","0","0","70842","","null","","","null","90","","","","","","","","","","","","","","","NaN",""
