"success","ttype","start_time","trial_type","trial_index","time_elapsed","internal_node_id","warning","missed_checkup","PID","view_history","rt","responses","repeat_instructions","key_press","index","keypress_isi","keypress_S2","block","trial_num","phase","group_type","pair_type","S1_stim","S2_stim","S1_img","S2_img","S1_chosen","S1_higher","accuracy","keypress_iti","total_bonus_tally"
"true","full_screen","d07282022hr2132","fullscreen","0","9141","0.0-0.0","0","0","38343","","","","","","","","","","","","","","","","","","","","","",""
"","instructions","","instructions","1","23324","0.0-1.0-0.0-0.0","0","0","38343","[{""page_index"":0,""viewing_time"":2451},{""page_index"":1,""viewing_time"":4844},{""page_index"":2,""viewing_time"":5687},{""page_index"":3,""viewing_time"":1199}]","14181","","","","","","","","","","","","","","","","","","","",""
"","comprehension_check","","survey-multi-choice","2","45677","0.0-1.0-0.0-1.0","0","0","38343","","22348","{""Q0"":""True"",""Q1"":""True"",""Q2"":"""",""Q3"":""Green mark"",""Q4"":""either D or K""}","1","","","","","","","","","","","","","","","","","",""
"","missed_instruction_checkup","","html-keyboard-response","3","47751","0.0-1.0-0.0-2.0-0.0","0","1","38343","","2072","","","32","","","","","","","","","","","","","","","","",""
"","instructions","","instructions","4","56792","0.0-1.0-0.1-0.1","0","0","38343","[{""page_index"":0,""viewing_time"":1660},{""page_index"":1,""viewing_time"":2476},{""page_index"":2,""viewing_time"":4352},{""page_index"":3,""viewing_time"":552}]","9041","","","","","","","","","","","","","","","","","","","",""
"","comprehension_check","","survey-multi-choice","5","74021","0.0-1.0-0.1-1.1","0","0","38343","","17224","{""Q0"":""True"",""Q1"":""True"",""Q2"":""When you see the prompt 'MAKE A CHOICE' after the second image was presented"",""Q3"":""Green mark"",""Q4"":""either D or K""}","0","","","","","","","","","","","","","","","","","",""
"","start_exp","","html-keyboard-response","6","75469","0.0-1.0-1.0","0","0","38343","","1447","","","32","","","","","","","","","","","","","","","","",""
"","S1","","html-keyboard-response","7","75728","0.0-1.0-2.0","0","0","38343","","null","","","null","0","","","","","","","","","","","","","","","",""
"","ISI","","html-keyboard-response","8","77730","0.0-1.0-3.0","0","0","38343","","null","","","null","0","NaN","","","","","","","","","","","","","","",""
"","S2","","html-keyboard-response","9","77982","0.0-1.0-4.0","0","0","38343","","null","","","null","0","","NaN","","","","","","","","","","","","","",""
"","response","","html-keyboard-response","10","79119","0.0-1.0-5.0","0","0","38343","","1135","","","68","0","","","1","0","training","adjacent","EF","5","6","Q.jpg","L.jpg","0","1","0","",""
"","feedback","","html-keyboard-response","11","80121","0.0-1.0-6.0-0.0","0","0","38343","","null","","","null","0","","","","","","","","","","","","","","","",""
"","time_out","","html-keyboard-response","12","82123","0.0-1.0-8.0-0.0","0","0","38343","","null","","","null","0","","","","","","","","","","","","","","","",""
"","ITI","","html-keyboard-response","13","83124","0.0-1.0-9.0","0","0","38343","","null","","","null","0","","","","","","","","","","","","","","","NaN",""
"","S1","","html-keyboard-response","14","83389","0.0-1.0-11.0","0","0","38343","","null","","","null","1","","","","","","","","","","","","","","","",""
"","ISI","","html-keyboard-response","15","85392","0.0-1.0-12.0","0","0","38343","","null","","","null","1","NaN","","","","","","","","","","","","","","",""
"","S2","","html-keyboard-response","16","85644","0.0-1.0-13.0","0","0","38343","","null","","","null","1","","NaN","","","","","","","","","","","","","",""
"","response","","html-keyboard-response","17","86074","0.0-1.0-14.0","0","0","38343","","429","","","68","1","","","1","1","training","adjacent","EF","5","6","Q.jpg","L.jpg","0","1","0","",""
"","feedback","","html-keyboard-response","18","87078","0.0-1.0-15.0-0.0","0","0","38343","","null","","","null","1","","","","","","","","","","","","","","","",""
"","time_out","","html-keyboard-response","19","89081","0.0-1.0-17.0-0.0","0","0","38343","","null","","","null","1","","","","","","","","","","","","","","","",""
"","ITI","","html-keyboard-response","20","90085","0.0-1.0-18.0","0","0","38343","","null","","","null","1","","","","","","","","","","","","","","","NaN",""
"","S1","","html-keyboard-response","21","90347","0.0-1.0-20.0","0","0","38343","","null","","","null","2","","","","","","","","","","","","","","","",""
"","ISI","","html-keyboard-response","22","92349","0.0-1.0-21.0","0","0","38343","","null","","","null","2","NaN","","","","","","","","","","","","","","",""
"","S2","","html-keyboard-response","23","92601","0.0-1.0-22.0","0","0","38343","","null","","","null","2","","NaN","","","","","","","","","","","","","",""
"","response","","html-keyboard-response","24","93174","0.0-1.0-23.0","0","0","38343","","571","","","75","2","","","1","2","training","adjacent","GF","7","6","P.jpg","L.jpg","1","0","0","",""
"","feedback","","html-keyboard-response","25","94176","0.0-1.0-24.0-0.0","0","0","38343","","null","","","null","2","","","","","","","","","","","","","","","",""
"","time_out","","html-keyboard-response","26","96179","0.0-1.0-26.0-0.0","0","0","38343","","null","","","null","2","","","","","","","","","","","","","","","",""
"","ITI","","html-keyboard-response","27","97182","0.0-1.0-27.0","0","0","38343","","null","","","null","2","","","","","","","","","","","","","","","NaN",""
"","S1","","html-keyboard-response","28","97434","0.0-1.0-29.0","0","0","38343","","null","","","null","3","","","","","","","","","","","","","","","",""
"","ISI","","html-keyboard-response","29","99437","0.0-1.0-30.0","0","0","38343","","null","","","null","3","NaN","","","","","","","","","","","","","","",""
"","S2","","html-keyboard-response","30","99689","0.0-1.0-31.0","0","0","38343","","12","","","75","3","","k","","","","","","","","","","","","","",""
"","response","","html-keyboard-response","31","99791","0.0-1.0-32.0","0","0","38343","","101","","","75","3","","","1","3","training","adjacent","CB","3","2","R.jpg","N.jpg","1","0","0","",""
"","feedback","","html-keyboard-response","32","100794","0.0-1.0-33.0-0.0","0","0","38343","","null","","","null","3","","","","","","","","","","","","","","","",""
"","time_out","","html-keyboard-response","33","102796","0.0-1.0-35.0-0.0","0","0","38343","","null","","","null","3","","","","","","","","","","","","","","","",""
"","ITI","","html-keyboard-response","34","103799","0.0-1.0-36.0","0","0","38343","","null","","","null","3","","","","","","","","","","","","","","","NaN",""
"","S1","","html-keyboard-response","35","104051","0.0-1.0-38.0","0","0","38343","","null","","","null","4","","","","","","","","","","","","","","","",""
"","ISI","","html-keyboard-response","36","106053","0.0-1.0-39.0","0","0","38343","","null","","","null","4","NaN","","","","","","","","","","","","","","",""
"","S2","","html-keyboard-response","37","106306","0.0-1.0-40.0","0","0","38343","","null","","","null","4","","NaN","","","","","","","","","","","","","",""
"","response","","html-keyboard-response","38","106474","0.0-1.0-41.0","0","0","38343","","166","","","68","4","","","1","4","training","adjacent","DE","4","5","M.jpg","Q.jpg","0","1","0","",""
"","feedback","","html-keyboard-response","39","107477","0.0-1.0-42.0-0.0","0","0","38343","","null","","","null","4","","","","","","","","","","","","","","","",""
"","time_out","","html-keyboard-response","40","109480","0.0-1.0-44.0-0.0","0","0","38343","","null","","","null","4","","","","","","","","","","","","","","","",""
"","ITI","","html-keyboard-response","41","110482","0.0-1.0-45.0","0","0","38343","","null","","","null","4","","","","","","","","","","","","","","","NaN",""
"","S1","","html-keyboard-response","42","110734","0.0-1.0-47.0","0","0","38343","","null","","","null","5","","","","","","","","","","","","","","","",""
"","ISI","","html-keyboard-response","43","112737","0.0-1.0-48.0","0","0","38343","","null","","","null","5","NaN","","","","","","","","","","","","","","",""
"","S2","","html-keyboard-response","44","112990","0.0-1.0-49.0","0","0","38343","","null","","","null","5","","NaN","","","","","","","","","","","","","",""
"","response","","html-keyboard-response","45","113047","0.0-1.0-50.0","0","0","38343","","56","","","75","5","","","1","5","training","adjacent","DC","4","3","M.jpg","R.jpg","1","0","0","",""
"","feedback","","html-keyboard-response","46","114049","0.0-1.0-51.0-0.0","0","0","38343","","null","","","null","5","","","","","","","","","","","","","","","",""
"","time_out","","html-keyboard-response","47","116052","0.0-1.0-53.0-0.0","0","0","38343","","null","","","null","5","","","","","","","","","","","","","","","",""
"","ITI","","html-keyboard-response","48","117055","0.0-1.0-54.0","0","0","38343","","null","","","null","5","","","","","","","","","","","","","","","NaN",""
"","S1","","html-keyboard-response","49","117307","0.0-1.0-56.0","0","0","38343","","null","","","null","6","","","","","","","","","","","","","","","",""
"","ISI","","html-keyboard-response","50","119310","0.0-1.0-57.0","0","0","38343","","202","","","75","6","k","","","","","","","","","","","","","","",""
"","S2","","html-keyboard-response","51","119562","0.0-1.0-58.0","0","0","38343","","null","","","null","6","","NaN","","","","","","","","","","","","","",""
"","response","","html-keyboard-response","52","119804","0.0-1.0-59.0","0","0","38343","","241","","","68","6","","","1","6","training","adjacent","ED","5","4","Q.jpg","M.jpg","0","0","1","",""
"","feedback","","html-keyboard-response","53","120806","0.0-1.0-60.0-0.0","0","0","38343","","null","","","null","6","","","","","","","","","","","","","","","",""
"","ITI","","html-keyboard-response","54","121809","0.0-1.0-63.0","0","0","38343","","null","","","null","6","","","","","","","","","","","","","","","NaN",""
"","S1","","html-keyboard-response","55","122062","0.0-1.0-65.0","0","0","38343","","null","","","null","7","","","","","","","","","","","","","","","",""
"","ISI","","html-keyboard-response","56","124079","0.0-1.0-66.0","0","0","38343","","null","","","null","7","NaN","","","","","","","","","","","","","","",""
"","S2","","html-keyboard-response","57","124331","0.0-1.0-67.0","0","0","38343","","null","","","null","7","","NaN","","","","","","","","","","","","","",""
"","response","","html-keyboard-response","58","124985","0.0-1.0-68.0","0","0","38343","","653","","","68","7","","","1","7","training","adjacent","GF","7","6","P.jpg","L.jpg","0","0","1","",""
"","feedback","","html-keyboard-response","59","125987","0.0-1.0-69.0-0.0","0","0","38343","","null","","","null","7","","","","","","","","","","","","","","","",""
"","ITI","","html-keyboard-response","60","126988","0.0-1.0-72.0","0","0","38343","","null","","","null","7","","","","","","","","","","","","","","","NaN",""
"","S1","","html-keyboard-response","61","127241","0.0-1.0-74.0","0","0","38343","","null","","","null","8","","","","","","","","","","","","","","","",""
"","ISI","","html-keyboard-response","62","129243","0.0-1.0-75.0","0","0","38343","","null","","","null","8","NaN","","","","","","","","","","","","","","",""
"","S2","","html-keyboard-response","63","129497","0.0-1.0-76.0","0","0","38343","","null","","","null","8","","NaN","","","","","","","","","","","","","",""
"","response","","html-keyboard-response","64","130058","0.0-1.0-77.0","0","0","38343","","559","","","75","8","","","1","8","training","adjacent","DC","4","3","M.jpg","R.jpg","1","0","0","",""
"","feedback","","html-keyboard-response","65","131060","0.0-1.0-78.0-0.0","0","0","38343","","null","","","null","8","","","","","","","","","","","","","","","",""
"","time_out","","html-keyboard-response","66","133063","0.0-1.0-80.0-0.0","0","0","38343","","null","","","null","8","","","","","","","","","","","","","","","",""
"","ITI","","html-keyboard-response","67","134065","0.0-1.0-81.0","0","0","38343","","null","","","null","8","","","","","","","","","","","","","","","NaN",""
"","S1","","html-keyboard-response","68","134317","0.0-1.0-83.0","0","0","38343","","null","","","null","9","","","","","","","","","","","","","","","",""
"","ISI","","html-keyboard-response","69","136319","0.0-1.0-84.0","0","0","38343","","null","","","null","9","NaN","","","","","","","","","","","","","","",""
"","S2","","html-keyboard-response","70","136571","0.0-1.0-85.0","0","0","38343","","null","","","null","9","","NaN","","","","","","","","","","","","","",""
"","response","","html-keyboard-response","71","137170","0.0-1.0-86.0","0","0","38343","","597","","","75","9","","","1","9","training","adjacent","BC","2","3","N.jpg","R.jpg","1","1","1","",""
"","feedback","","html-keyboard-response","72","138172","0.0-1.0-87.0-0.0","0","0","38343","","null","","","null","9","","","","","","","","","","","","","","","",""
"","ITI","","html-keyboard-response","73","139174","0.0-1.0-90.0","0","0","38343","","null","","","null","9","","","","","","","","","","","","","","","NaN",""
"","S1","","html-keyboard-response","74","139426","0.0-1.0-92.0","0","0","38343","","null","","","null","10","","","","","","","","","","","","","","","",""
"","ISI","","html-keyboard-response","75","141428","0.0-1.0-93.0","0","0","38343","","null","","","null","10","NaN","","","","","","","","","","","","","","",""
"","S2","","html-keyboard-response","76","141679","0.0-1.0-94.0","0","0","38343","","null","","","null","10","","NaN","","","","","","","","","","","","","",""
"","response","","html-keyboard-response","77","142238","0.0-1.0-95.0","0","0","38343","","556","","","75","10","","","1","10","training","adjacent","FE","6","5","L.jpg","Q.jpg","1","0","0","",""
"","feedback","","html-keyboard-response","78","143240","0.0-1.0-96.0-0.0","0","0","38343","","null","","","null","10","","","","","","","","","","","","","","","",""
"","time_out","","html-keyboard-response","79","145242","0.0-1.0-98.0-0.0","0","0","38343","","null","","","null","10","","","","","","","","","","","","","","","",""
"","ITI","","html-keyboard-response","80","146245","0.0-1.0-99.0","0","0","38343","","null","","","null","10","","","","","","","","","","","","","","","NaN",""
"","S1","","html-keyboard-response","81","146498","0.0-1.0-101.0","0","0","38343","","null","","","null","11","","","","","","","","","","","","","","","",""
"","ISI","","html-keyboard-response","82","148500","0.0-1.0-102.0","0","0","38343","","null","","","null","11","NaN","","","","","","","","","","","","","","",""
"","S2","","html-keyboard-response","83","148753","0.0-1.0-103.0","0","0","38343","","null","","","null","11","","NaN","","","","","","","","","","","","","",""
"","response","","html-keyboard-response","84","149313","0.0-1.0-104.0","0","0","38343","","558","","","68","11","","","1","11","training","adjacent","AB","1","2","O.jpg","N.jpg","0","1","0","",""
"","feedback","","html-keyboard-response","85","150316","0.0-1.0-105.0-0.0","0","0","38343","","null","","","null","11","","","","","","","","","","","","","","","",""
"","time_out","","html-keyboard-response","86","152318","0.0-1.0-107.0-0.0","0","0","38343","","null","","","null","11","","","","","","","","","","","","","","","",""
"","ITI","","html-keyboard-response","87","153321","0.0-1.0-108.0","0","0","38343","","null","","","null","11","","","","","","","","","","","","","","","NaN",""
"","S1","","html-keyboard-response","88","153573","0.0-1.0-110.0","0","0","38343","","null","","","null","12","","","","","","","","","","","","","","","",""
"","ISI","","html-keyboard-response","89","155576","0.0-1.0-111.0","0","0","38343","","null","","","null","12","NaN","","","","","","","","","","","","","","",""
"","S2","","html-keyboard-response","90","155829","0.0-1.0-112.0","0","0","38343","","null","","","null","12","","NaN","","","","","","","","","","","","","",""
"","response","","html-keyboard-response","91","156079","0.0-1.0-113.0","0","0","38343","","248","","","75","12","","","1","12","training","adjacent","AB","1","2","O.jpg","N.jpg","1","1","1","",""
"","feedback","","html-keyboard-response","92","157082","0.0-1.0-114.0-0.0","0","0","38343","","null","","","null","12","","","","","","","","","","","","","","","",""
"","ITI","","html-keyboard-response","93","158101","0.0-1.0-117.0","0","0","38343","","null","","","null","12","","","","","","","","","","","","","","","NaN",""
"","S1","","html-keyboard-response","94","158362","0.0-1.0-119.0","0","0","38343","","null","","","null","13","","","","","","","","","","","","","","","",""
"","ISI","","html-keyboard-response","95","160365","0.0-1.0-120.0","0","0","38343","","null","","","null","13","NaN","","","","","","","","","","","","","","",""
"","S2","","html-keyboard-response","96","160630","0.0-1.0-121.0","0","0","38343","","null","","","null","13","","NaN","","","","","","","","","","","","","",""
"","response","","html-keyboard-response","97","160804","0.0-1.0-122.0","0","0","38343","","172","","","75","13","","","1","13","training","adjacent","GF","7","6","P.jpg","L.jpg","1","0","0","",""
"","feedback","","html-keyboard-response","98","161806","0.0-1.0-123.0-0.0","0","0","38343","","null","","","null","13","","","","","","","","","","","","","","","",""
"","time_out","","html-keyboard-response","99","163809","0.0-1.0-125.0-0.0","0","0","38343","","null","","","null","13","","","","","","","","","","","","","","","",""
"","ITI","","html-keyboard-response","100","164811","0.0-1.0-126.0","0","0","38343","","null","","","null","13","","","","","","","","","","","","","","","NaN",""
"","S1","","html-keyboard-response","101","165064","0.0-1.0-128.0","0","0","38343","","null","","","null","14","","","","","","","","","","","","","","","",""
"","ISI","","html-keyboard-response","102","167067","0.0-1.0-129.0","0","0","38343","","null","","","null","14","NaN","","","","","","","","","","","","","","",""
"","S2","","html-keyboard-response","103","167321","0.0-1.0-130.0","0","0","38343","","null","","","null","14","","NaN","","","","","","","","","","","","","",""
"","response","","html-keyboard-response","104","169334","0.0-1.0-131.0","0","0","38343","","null","","","null","14","","","1","14","training","adjacent","FG","6","7","L.jpg","P.jpg","NaN","1","0","",""
"","too_slow_prompt","","html-keyboard-response","105","170337","0.0-1.0-133.0-0.0","1","0","38343","","null","","","null","","","","","","","","","","","","","","","","",""
"","time_out","","html-keyboard-response","106","172340","0.0-1.0-134.0-0.0","0","0","38343","","null","","","null","14","","","","","","","","","","","","","","","",""
"","ITI","","html-keyboard-response","107","173342","0.0-1.0-135.0","0","0","38343","","null","","","null","14","","","","","","","","","","","","","","","NaN",""
"","S1","","html-keyboard-response","108","173595","0.0-1.0-137.0","0","0","38343","","null","","","null","15","","","","","","","","","","","","","","","",""
"","ISI","","html-keyboard-response","109","175607","0.0-1.0-138.0","0","0","38343","","842","","","75","15","k","","","","","","","","","","","","","","",""
"","S2","","html-keyboard-response","110","175859","0.0-1.0-139.0","0","0","38343","","226","","","68","15","","d","","","","","","","","","","","","","",""
"","response","","html-keyboard-response","111","176729","0.0-1.0-140.0","0","0","38343","","868","","","68","15","","","1","15","training","adjacent","BC","2","3","N.jpg","R.jpg","0","1","0","",""
"","feedback","","html-keyboard-response","112","177732","0.0-1.0-141.0-0.0","0","0","38343","","null","","","null","15","","","","","","","","","","","","","","","",""
"","time_out","","html-keyboard-response","113","179734","0.0-1.0-143.0-0.0","0","0","38343","","null","","","null","15","","","","","","","","","","","","","","","",""
"","ITI","","html-keyboard-response","114","180736","0.0-1.0-144.0","0","0","38343","","null","","","null","15","","","","","","","","","","","","","","","NaN",""
"","S1","","html-keyboard-response","115","180988","0.0-1.0-146.0","0","0","38343","","null","","","null","16","","","","","","","","","","","","","","","",""
"","ISI","","html-keyboard-response","116","182989","0.0-1.0-147.0","0","0","38343","","null","","","null","16","NaN","","","","","","","","","","","","","","",""
"","S2","","html-keyboard-response","117","183242","0.0-1.0-148.0","0","0","38343","","null","","","null","16","","NaN","","","","","","","","","","","","","",""
"","response","","html-keyboard-response","118","183367","0.0-1.0-149.0","0","0","38343","","124","","","75","16","","","1","16","training","adjacent","CB","3","2","R.jpg","N.jpg","1","0","0","",""
"","feedback","","html-keyboard-response","119","184368","0.0-1.0-150.0-0.0","0","0","38343","","null","","","null","16","","","","","","","","","","","","","","","",""
"","time_out","","html-keyboard-response","120","186371","0.0-1.0-152.0-0.0","0","0","38343","","null","","","null","16","","","","","","","","","","","","","","","",""
"","ITI","","html-keyboard-response","121","187374","0.0-1.0-153.0","0","0","38343","","null","","","null","16","","","","","","","","","","","","","","","NaN",""
"","S1","","html-keyboard-response","122","187625","0.0-1.0-155.0","0","0","38343","","null","","","null","17","","","","","","","","","","","","","","","",""
"","ISI","","html-keyboard-response","123","189628","0.0-1.0-156.0","0","0","38343","","null","","","null","17","NaN","","","","","","","","","","","","","","",""
"","S2","","html-keyboard-response","124","189881","0.0-1.0-157.0","0","0","38343","","242","","","68","17","","d","","","","","","","","","","","","","",""
"","response","","html-keyboard-response","125","190527","0.0-1.0-158.0","0","0","38343","","644","","","68","17","","","1","17","training","adjacent","CD","3","4","R.jpg","M.jpg","0","1","0","",""
"","feedback","","html-keyboard-response","126","191529","0.0-1.0-159.0-0.0","0","0","38343","","null","","","null","17","","","","","","","","","","","","","","","",""
"","time_out","","html-keyboard-response","127","193532","0.0-1.0-161.0-0.0","0","0","38343","","null","","","null","17","","","","","","","","","","","","","","","",""
"","ITI","","html-keyboard-response","128","194534","0.0-1.0-162.0","0","0","38343","","null","","","null","17","","","","","","","","","","","","","","","NaN",""
"","S1","","html-keyboard-response","129","194794","0.0-1.0-164.0","0","0","38343","","null","","","null","18","","","","","","","","","","","","","","","",""
"","ISI","","html-keyboard-response","130","196796","0.0-1.0-165.0","0","0","38343","","null","","","null","18","NaN","","","","","","","","","","","","","","",""
"","S2","","html-keyboard-response","131","197048","0.0-1.0-166.0","0","0","38343","","null","","","null","18","","NaN","","","","","","","","","","","","","",""
"","response","","html-keyboard-response","132","197412","0.0-1.0-167.0","0","0","38343","","362","","","75","18","","","1","18","training","adjacent","BA","2","1","N.jpg","O.jpg","1","0","0","",""
"","feedback","","html-keyboard-response","133","198416","0.0-1.0-168.0-0.0","0","0","38343","","null","","","null","18","","","","","","","","","","","","","","","",""
"","time_out","","html-keyboard-response","134","200419","0.0-1.0-170.0-0.0","0","0","38343","","null","","","null","18","","","","","","","","","","","","","","","",""
"","ITI","","html-keyboard-response","135","201422","0.0-1.0-171.0","0","0","38343","","null","","","null","18","","","","","","","","","","","","","","","NaN",""
"","S1","","html-keyboard-response","136","201675","0.0-1.0-173.0","0","0","38343","","null","","","null","19","","","","","","","","","","","","","","","",""
"","ISI","","html-keyboard-response","137","203678","0.0-1.0-174.0","0","0","38343","","723","","","68","19","d","","","","","","","","","","","","","","",""
"","S2","","html-keyboard-response","138","203931","0.0-1.0-175.0","0","0","38343","","null","","","null","19","","NaN","","","","","","","","","","","","","",""
"","response","","html-keyboard-response","139","204370","0.0-1.0-176.0","0","0","38343","","438","","","68","19","","","1","19","training","adjacent","CD","3","4","R.jpg","M.jpg","0","1","0","",""
"","feedback","","html-keyboard-response","140","205373","0.0-1.0-177.0-0.0","0","0","38343","","null","","","null","19","","","","","","","","","","","","","","","",""
"","time_out","","html-keyboard-response","141","207374","0.0-1.0-179.0-0.0","0","0","38343","","null","","","null","19","","","","","","","","","","","","","","","",""
"","ITI","","html-keyboard-response","142","208376","0.0-1.0-180.0","0","0","38343","","null","","","null","19","","","","","","","","","","","","","","","NaN",""
"","S1","","html-keyboard-response","143","208628","0.0-1.0-182.0","0","0","38343","","null","","","null","20","","","","","","","","","","","","","","","",""
"","ISI","","html-keyboard-response","144","210631","0.0-1.0-183.0","0","0","38343","","null","","","null","20","NaN","","","","","","","","","","","","","","",""
"","S2","","html-keyboard-response","145","210884","0.0-1.0-184.0","0","0","38343","","null","","","null","20","","NaN","","","","","","","","","","","","","",""
"","response","","html-keyboard-response","146","211929","0.0-1.0-185.0","0","0","38343","","1043","","","75","20","","","1","20","training","adjacent","AB","1","2","O.jpg","N.jpg","1","1","1","",""
"","feedback","","html-keyboard-response","147","212932","0.0-1.0-186.0-0.0","0","0","38343","","null","","","null","20","","","","","","","","","","","","","","","",""
"","ITI","","html-keyboard-response","148","213934","0.0-1.0-189.0","0","0","38343","","null","","","null","20","","","","","","","","","","","","","","","NaN",""
"","S1","","html-keyboard-response","149","214190","0.0-1.0-191.0","0","0","38343","","null","","","null","21","","","","","","","","","","","","","","","",""
"","ISI","","html-keyboard-response","150","216192","0.0-1.0-192.0","0","0","38343","","null","","","null","21","NaN","","","","","","","","","","","","","","",""
"","S2","","html-keyboard-response","151","216444","0.0-1.0-193.0","0","0","38343","","null","","","null","21","","NaN","","","","","","","","","","","","","",""
"","response","","html-keyboard-response","152","216928","0.0-1.0-194.0","0","0","38343","","481","","","75","21","","","1","21","training","adjacent","ED","5","4","Q.jpg","M.jpg","1","0","0","",""
"","feedback","","html-keyboard-response","153","217929","0.0-1.0-195.0-0.0","0","0","38343","","null","","","null","21","","","","","","","","","","","","","","","",""
"","time_out","","html-keyboard-response","154","219931","0.0-1.0-197.0-0.0","0","0","38343","","null","","","null","21","","","","","","","","","","","","","","","",""
"","ITI","","html-keyboard-response","155","220933","0.0-1.0-198.0","0","0","38343","","null","","","null","21","","","","","","","","","","","","","","","NaN",""
"","S1","","html-keyboard-response","156","221185","0.0-1.0-200.0","0","0","38343","","null","","","null","22","","","","","","","","","","","","","","","",""
"","ISI","","html-keyboard-response","157","223187","0.0-1.0-201.0","0","0","38343","","null","","","null","22","NaN","","","","","","","","","","","","","","",""
"","S2","","html-keyboard-response","158","223439","0.0-1.0-202.0","0","0","38343","","null","","","null","22","","NaN","","","","","","","","","","","","","",""
"","response","","html-keyboard-response","159","223694","0.0-1.0-203.0","0","0","38343","","253","","","68","22","","","1","22","training","adjacent","BA","2","1","N.jpg","O.jpg","0","0","1","",""
"","feedback","","html-keyboard-response","160","224695","0.0-1.0-204.0-0.0","0","0","38343","","null","","","null","22","","","","","","","","","","","","","","","",""
"","ITI","","html-keyboard-response","161","225697","0.0-1.0-207.0","0","0","38343","","null","","","null","22","","","","","","","","","","","","","","","NaN",""
"","S1","","html-keyboard-response","162","225949","0.0-1.0-209.0","0","0","38343","","null","","","null","23","","","","","","","","","","","","","","","",""
"","ISI","","html-keyboard-response","163","227951","0.0-1.0-210.0","0","0","38343","","null","","","null","23","NaN","","","","","","","","","","","","","","",""
"","S2","","html-keyboard-response","164","228204","0.0-1.0-211.0","0","0","38343","","245","","","68","23","","d","","","","","","","","","","","","","",""
"","response","","html-keyboard-response","165","228688","0.0-1.0-212.0","0","0","38343","","483","","","68","23","","","1","23","training","adjacent","DC","4","3","M.jpg","R.jpg","0","0","1","",""
"","feedback","","html-keyboard-response","166","229691","0.0-1.0-213.0-0.0","0","0","38343","","null","","","null","23","","","","","","","","","","","","","","","",""
"","ITI","","html-keyboard-response","167","230695","0.0-1.0-216.0","0","0","38343","","null","","","null","23","","","","","","","","","","","","","","","NaN",""
"","S1","","html-keyboard-response","168","230947","0.0-1.0-218.0","0","0","38343","","null","","","null","24","","","","","","","","","","","","","","","",""
"","ISI","","html-keyboard-response","169","232949","0.0-1.0-219.0","0","0","38343","","null","","","null","24","NaN","","","","","","","","","","","","","","",""
"","S2","","html-keyboard-response","170","233201","0.0-1.0-220.0","0","0","38343","","null","","","null","24","","NaN","","","","","","","","","","","","","",""
"","response","","html-keyboard-response","171","233308","0.0-1.0-221.0","0","0","38343","","105","","","68","24","","","1","24","training","adjacent","AB","1","2","O.jpg","N.jpg","0","1","0","",""
"","feedback","","html-keyboard-response","172","234311","0.0-1.0-222.0-0.0","0","0","38343","","null","","","null","24","","","","","","","","","","","","","","","",""
"","time_out","","html-keyboard-response","173","236314","0.0-1.0-224.0-0.0","0","0","38343","","null","","","null","24","","","","","","","","","","","","","","","",""
"","ITI","","html-keyboard-response","174","237317","0.0-1.0-225.0","0","0","38343","","null","","","null","24","","","","","","","","","","","","","","","NaN",""
"","S1","","html-keyboard-response","175","237570","0.0-1.0-227.0","0","0","38343","","null","","","null","25","","","","","","","","","","","","","","","",""
"","ISI","","html-keyboard-response","176","239572","0.0-1.0-228.0","0","0","38343","","null","","","null","25","NaN","","","","","","","","","","","","","","",""
"","S2","","html-keyboard-response","177","239824","0.0-1.0-229.0","0","0","38343","","null","","","null","25","","NaN","","","","","","","","","","","","","",""
"","response","","html-keyboard-response","178","239866","0.0-1.0-230.0","0","0","38343","","40","","","68","25","","","1","25","training","adjacent","FG","6","7","L.jpg","P.jpg","0","1","0","",""
"","feedback","","html-keyboard-response","179","240871","0.0-1.0-231.0-0.0","0","0","38343","","null","","","null","25","","","","","","","","","","","","","","","",""
"","time_out","","html-keyboard-response","180","242872","0.0-1.0-233.0-0.0","0","0","38343","","null","","","null","25","","","","","","","","","","","","","","","",""
"","ITI","","html-keyboard-response","181","243875","0.0-1.0-234.0","0","0","38343","","null","","","null","25","","","","","","","","","","","","","","","NaN",""
"","S1","","html-keyboard-response","182","244128","0.0-1.0-236.0","0","0","38343","","null","","","null","26","","","","","","","","","","","","","","","",""
"","ISI","","html-keyboard-response","183","246130","0.0-1.0-237.0","0","0","38343","","60","","","75","26","k","","","","","","","","","","","","","","",""
"","S2","","html-keyboard-response","184","246383","0.0-1.0-238.0","0","0","38343","","86","","","75","26","","k","","","","","","","","","","","","","",""
"","response","","html-keyboard-response","185","246712","0.0-1.0-239.0","0","0","38343","","328","","","75","26","","","1","26","training","adjacent","DE","4","5","M.jpg","Q.jpg","1","1","1","",""
"","feedback","","html-keyboard-response","186","247714","0.0-1.0-240.0-0.0","0","0","38343","","null","","","null","26","","","","","","","","","","","","","","","",""
"","ITI","","html-keyboard-response","187","248716","0.0-1.0-243.0","0","0","38343","","null","","","null","26","","","","","","","","","","","","","","","NaN",""
"","S1","","html-keyboard-response","188","248970","0.0-1.0-245.0","0","0","38343","","null","","","null","27","","","","","","","","","","","","","","","",""
"","ISI","","html-keyboard-response","189","250971","0.0-1.0-246.0","0","0","38343","","null","","","null","27","NaN","","","","","","","","","","","","","","",""
"","S2","","html-keyboard-response","190","251224","0.0-1.0-247.0","0","0","38343","","null","","","null","27","","NaN","","","","","","","","","","","","","",""
"","response","","html-keyboard-response","191","251421","0.0-1.0-248.0","0","0","38343","","196","","","75","27","","","1","27","training","adjacent","CB","3","2","R.jpg","N.jpg","1","0","0","",""
"","feedback","","html-keyboard-response","192","252423","0.0-1.0-249.0-0.0","0","0","38343","","null","","","null","27","","","","","","","","","","","","","","","",""
"","time_out","","html-keyboard-response","193","254426","0.0-1.0-251.0-0.0","0","0","38343","","null","","","null","27","","","","","","","","","","","","","","","",""
"","ITI","","html-keyboard-response","194","255431","0.0-1.0-252.0","0","0","38343","","null","","","null","27","","","","","","","","","","","","","","","NaN",""
"","S1","","html-keyboard-response","195","255683","0.0-1.0-254.0","0","0","38343","","null","","","null","28","","","","","","","","","","","","","","","",""
"","ISI","","html-keyboard-response","196","257686","0.0-1.0-255.0","0","0","38343","","null","","","null","28","NaN","","","","","","","","","","","","","","",""
"","S2","","html-keyboard-response","197","257939","0.0-1.0-256.0","0","0","38343","","null","","","null","28","","NaN","","","","","","","","","","","","","",""
"","response","","html-keyboard-response","198","258100","0.0-1.0-257.0","0","0","38343","","160","","","68","28","","","1","28","training","adjacent","FG","6","7","L.jpg","P.jpg","0","1","0","",""
"","feedback","","html-keyboard-response","199","259103","0.0-1.0-258.0-0.0","0","0","38343","","null","","","null","28","","","","","","","","","","","","","","","",""
"","time_out","","html-keyboard-response","200","261106","0.0-1.0-260.0-0.0","0","0","38343","","null","","","null","28","","","","","","","","","","","","","","","",""
"","ITI","","html-keyboard-response","201","262108","0.0-1.0-261.0","0","0","38343","","null","","","null","28","","","","","","","","","","","","","","","NaN",""
"","S1","","html-keyboard-response","202","262360","0.0-1.0-263.0","0","0","38343","","null","","","null","29","","","","","","","","","","","","","","","",""
"","ISI","","html-keyboard-response","203","264364","0.0-1.0-264.0","0","0","38343","","null","","","null","29","NaN","","","","","","","","","","","","","","",""
"","S2","","html-keyboard-response","204","264615","0.0-1.0-265.0","0","0","38343","","null","","","null","29","","NaN","","","","","","","","","","","","","",""
"","response","","html-keyboard-response","205","264620","0.0-1.0-266.0","0","0","38343","","4","","","68","29","","","1","29","training","adjacent","CB","3","2","R.jpg","N.jpg","0","0","1","",""
"","feedback","","html-keyboard-response","206","265623","0.0-1.0-267.0-0.0","0","0","38343","","null","","","null","29","","","","","","","","","","","","","","","",""
"","ITI","","html-keyboard-response","207","266626","0.0-1.0-270.0","0","0","38343","","null","","","null","29","","","","","","","","","","","","","","","NaN",""
"","S1","","html-keyboard-response","208","266878","0.0-1.0-272.0","0","0","38343","","null","","","null","30","","","","","","","","","","","","","","","",""
"","ISI","","html-keyboard-response","209","268880","0.0-1.0-273.0","0","0","38343","","null","","","null","30","NaN","","","","","","","","","","","","","","",""
"","S2","","html-keyboard-response","210","269132","0.0-1.0-274.0","0","0","38343","","null","","","null","30","","NaN","","","","","","","","","","","","","",""
"","response","","html-keyboard-response","211","269522","0.0-1.0-275.0","0","0","38343","","388","","","68","30","","","1","30","training","adjacent","FE","6","5","L.jpg","Q.jpg","0","0","1","",""
"","feedback","","html-keyboard-response","212","270525","0.0-1.0-276.0-0.0","0","0","38343","","null","","","null","30","","","","","","","","","","","","","","","",""
"","ITI","","html-keyboard-response","213","271527","0.0-1.0-279.0","0","0","38343","","null","","","null","30","","","","","","","","","","","","","","","NaN",""
"","S1","","html-keyboard-response","214","271779","0.0-1.0-281.0","0","0","38343","","null","","","null","31","","","","","","","","","","","","","","","",""
"","ISI","","html-keyboard-response","215","273781","0.0-1.0-282.0","0","0","38343","","null","","","null","31","NaN","","","","","","","","","","","","","","",""
"","S2","","html-keyboard-response","216","274034","0.0-1.0-283.0","0","0","38343","","null","","","null","31","","NaN","","","","","","","","","","","","","",""
"","response","","html-keyboard-response","217","274168","0.0-1.0-284.0","0","0","38343","","130","","","68","31","","","1","31","training","adjacent","BC","2","3","N.jpg","R.jpg","0","1","0","",""
"","feedback","","html-keyboard-response","218","275171","0.0-1.0-285.0-0.0","0","0","38343","","null","","","null","31","","","","","","","","","","","","","","","",""
"","time_out","","html-keyboard-response","219","277173","0.0-1.0-287.0-0.0","0","0","38343","","null","","","null","31","","","","","","","","","","","","","","","",""
"","ITI","","html-keyboard-response","220","278175","0.0-1.0-288.0","0","0","38343","","null","","","null","31","","","","","","","","","","","","","","","NaN",""
"","S1","","html-keyboard-response","221","278437","0.0-1.0-290.0","0","0","38343","","null","","","null","32","","","","","","","","","","","","","","","",""
"","ISI","","html-keyboard-response","222","280439","0.0-1.0-291.0","0","0","38343","","null","","","null","32","NaN","","","","","","","","","","","","","","",""
"","S2","","html-keyboard-response","223","280692","0.0-1.0-292.0","0","0","38343","","null","","","null","32","","NaN","","","","","","","","","","","","","",""
"","response","","html-keyboard-response","224","280790","0.0-1.0-293.0","0","0","38343","","95","","","68","32","","","1","32","training","adjacent","BA","2","1","N.jpg","O.jpg","0","0","1","",""
"","feedback","","html-keyboard-response","225","281792","0.0-1.0-294.0-0.0","0","0","38343","","null","","","null","32","","","","","","","","","","","","","","","",""
"","ITI","","html-keyboard-response","226","282795","0.0-1.0-297.0","0","0","38343","","null","","","null","32","","","","","","","","","","","","","","","NaN",""
"","S1","","html-keyboard-response","227","283057","0.0-1.0-299.0","0","0","38343","","null","","","null","33","","","","","","","","","","","","","","","",""
"","ISI","","html-keyboard-response","228","285058","0.0-1.0-300.0","0","0","38343","","null","","","null","33","NaN","","","","","","","","","","","","","","",""
"","S2","","html-keyboard-response","229","285311","0.0-1.0-301.0","0","0","38343","","null","","","null","33","","NaN","","","","","","","","","","","","","",""
"","response","","html-keyboard-response","230","286036","0.0-1.0-302.0","0","0","38343","","723","","","75","33","","","1","33","training","adjacent","ED","5","4","Q.jpg","M.jpg","1","0","0","",""
"","feedback","","html-keyboard-response","231","287039","0.0-1.0-303.0-0.0","0","0","38343","","null","","","null","33","","","","","","","","","","","","","","","",""
"","time_out","","html-keyboard-response","232","289041","0.0-1.0-305.0-0.0","0","0","38343","","null","","","null","33","","","","","","","","","","","","","","","",""
"","ITI","","html-keyboard-response","233","290043","0.0-1.0-306.0","0","0","38343","","null","","","null","33","","","","","","","","","","","","","","","NaN",""
"","S1","","html-keyboard-response","234","290300","0.0-1.0-308.0","0","0","38343","","null","","","null","34","","","","","","","","","","","","","","","",""
"","ISI","","html-keyboard-response","235","292302","0.0-1.0-309.0","0","0","38343","","null","","","null","34","NaN","","","","","","","","","","","","","","",""
"","S2","","html-keyboard-response","236","292555","0.0-1.0-310.0","0","0","38343","","null","","","null","34","","NaN","","","","","","","","","","","","","",""
"","response","","html-keyboard-response","237","292736","0.0-1.0-311.0","0","0","38343","","180","","","68","34","","","1","34","training","adjacent","CD","3","4","R.jpg","M.jpg","0","1","0","",""
"","feedback","","html-keyboard-response","238","293740","0.0-1.0-312.0-0.0","0","0","38343","","null","","","null","34","","","","","","","","","","","","","","","",""
"","time_out","","html-keyboard-response","239","295741","0.0-1.0-314.0-0.0","0","0","38343","","null","","","null","34","","","","","","","","","","","","","","","",""
"","ITI","","html-keyboard-response","240","296743","0.0-1.0-315.0","0","0","38343","","null","","","null","34","","","","","","","","","","","","","","","NaN",""
"","S1","","html-keyboard-response","241","296996","0.0-1.0-317.0","0","0","38343","","null","","","null","35","","","","","","","","","","","","","","","",""
"","ISI","","html-keyboard-response","242","298999","0.0-1.0-318.0","0","0","38343","","null","","","null","35","NaN","","","","","","","","","","","","","","",""
"","S2","","html-keyboard-response","243","299251","0.0-1.0-319.0","0","0","38343","","null","","","null","35","","NaN","","","","","","","","","","","","","",""
"","response","","html-keyboard-response","244","299426","0.0-1.0-320.0","0","0","38343","","174","","","75","35","","","1","35","training","adjacent","DE","4","5","M.jpg","Q.jpg","1","1","1","",""
"","feedback","","html-keyboard-response","245","300430","0.0-1.0-321.0-0.0","0","0","38343","","null","","","null","35","","","","","","","","","","","","","","","",""
"","ITI","","html-keyboard-response","246","301436","0.0-1.0-324.0","0","0","38343","","null","","","null","35","","","","","","","","","","","","","","","NaN",""
"","S1","","html-keyboard-response","247","301703","0.0-1.0-326.0","0","0","38343","","null","","","null","36","","","","","","","","","","","","","","","",""
"","ISI","","html-keyboard-response","248","303706","0.0-1.0-327.0","0","0","38343","","null","","","null","36","NaN","","","","","","","","","","","","","","",""
"","S2","","html-keyboard-response","249","303959","0.0-1.0-328.0","0","0","38343","","null","","","null","36","","NaN","","","","","","","","","","","","","",""
"","response","","html-keyboard-response","250","304314","0.0-1.0-329.0","0","0","38343","","354","","","75","36","","","1","36","training","adjacent","FE","6","5","L.jpg","Q.jpg","1","0","0","",""
"","feedback","","html-keyboard-response","251","305317","0.0-1.0-330.0-0.0","0","0","38343","","null","","","null","36","","","","","","","","","","","","","","","",""
"","time_out","","html-keyboard-response","252","307319","0.0-1.0-332.0-0.0","0","0","38343","","null","","","null","36","","","","","","","","","","","","","","","",""
"","ITI","","html-keyboard-response","253","308320","0.0-1.0-333.0","0","0","38343","","null","","","null","36","","","","","","","","","","","","","","","NaN",""
"","S1","","html-keyboard-response","254","308573","0.0-1.0-335.0","0","0","38343","","null","","","null","37","","","","","","","","","","","","","","","",""
"","ISI","","html-keyboard-response","255","310576","0.0-1.0-336.0","0","0","38343","","null","","","null","37","NaN","","","","","","","","","","","","","","",""
"","S2","","html-keyboard-response","256","310828","0.0-1.0-337.0","0","0","38343","","null","","","null","37","","NaN","","","","","","","","","","","","","",""
"","response","","html-keyboard-response","257","311127","0.0-1.0-338.0","0","0","38343","","298","","","68","37","","","1","37","training","adjacent","EF","5","6","Q.jpg","L.jpg","0","1","0","",""
"","feedback","","html-keyboard-response","258","312130","0.0-1.0-339.0-0.0","0","0","38343","","null","","","null","37","","","","","","","","","","","","","","","",""
"","time_out","","html-keyboard-response","259","314132","0.0-1.0-341.0-0.0","0","0","38343","","null","","","null","37","","","","","","","","","","","","","","","",""
"","ITI","","html-keyboard-response","260","315135","0.0-1.0-342.0","0","0","38343","","null","","","null","37","","","","","","","","","","","","","","","NaN",""
"","S1","","html-keyboard-response","261","315390","0.0-1.0-344.0","0","0","38343","","null","","","null","38","","","","","","","","","","","","","","","",""
"","ISI","","html-keyboard-response","262","317391","0.0-1.0-345.0","0","0","38343","","null","","","null","38","NaN","","","","","","","","","","","","","","",""
"","S2","","html-keyboard-response","263","317642","0.0-1.0-346.0","0","0","38343","","null","","","null","38","","NaN","","","","","","","","","","","","","",""
"","response","","html-keyboard-response","264","318071","0.0-1.0-347.0","0","0","38343","","427","","","75","38","","","1","38","training","adjacent","BC","2","3","N.jpg","R.jpg","1","1","1","",""
"","feedback","","html-keyboard-response","265","319074","0.0-1.0-348.0-0.0","0","0","38343","","null","","","null","38","","","","","","","","","","","","","","","",""
"","ITI","","html-keyboard-response","266","320077","0.0-1.0-351.0","0","0","38343","","null","","","null","38","","","","","","","","","","","","","","","NaN",""
"","S1","","html-keyboard-response","267","320328","0.0-1.0-353.0","0","0","38343","","null","","","null","39","","","","","","","","","","","","","","","",""
"","ISI","","html-keyboard-response","268","322330","0.0-1.0-354.0","0","0","38343","","null","","","null","39","NaN","","","","","","","","","","","","","","",""
"","S2","","html-keyboard-response","269","322583","0.0-1.0-355.0","0","0","38343","","null","","","null","39","","NaN","","","","","","","","","","","","","",""
"","response","","html-keyboard-response","270","323096","0.0-1.0-356.0","0","0","38343","","512","","","68","39","","","1","39","training","adjacent","BA","2","1","N.jpg","O.jpg","0","0","1","",""
"","feedback","","html-keyboard-response","271","324098","0.0-1.0-357.0-0.0","0","0","38343","","null","","","null","39","","","","","","","","","","","","","","","",""
"","ITI","","html-keyboard-response","272","325100","0.0-1.0-360.0","0","0","38343","","null","","","null","39","","","","","","","","","","","","","","","NaN",""
"","block_over","","html-keyboard-response","273","348178","0.0-1.0-361.0-0.0","0","0","38343","","23076","","","32","39","","","","","","","","","","","","","","","",""
"","S1","","html-keyboard-response","274","348431","0.0-1.0-362.0","0","0","38343","","null","","","null","40","","","","","","","","","","","","","","","",""
"","ISI","","html-keyboard-response","275","350433","0.0-1.0-363.0","0","0","38343","","null","","","null","40","NaN","","","","","","","","","","","","","","",""
"","S2","","html-keyboard-response","276","350685","0.0-1.0-364.0","0","0","38343","","null","","","null","40","","NaN","","","","","","","","","","","","","",""
"","response","","html-keyboard-response","277","350903","0.0-1.0-365.0","0","0","38343","","216","","","75","40","","","2","40","training","adjacent","EF","5","6","Q.jpg","L.jpg","1","1","1","",""
"","feedback","","html-keyboard-response","278","351915","0.0-1.0-366.0-0.0","0","0","38343","","null","","","null","40","","","","","","","","","","","","","","","",""
"","ITI","","html-keyboard-response","279","352918","0.0-1.0-369.0","0","0","38343","","null","","","null","40","","","","","","","","","","","","","","","NaN",""
"","S1","","html-keyboard-response","280","353171","0.0-1.0-371.0","0","0","38343","","null","","","null","41","","","","","","","","","","","","","","","",""
"","ISI","","html-keyboard-response","281","355173","0.0-1.0-372.0","0","0","38343","","null","","","null","41","NaN","","","","","","","","","","","","","","",""
"","S2","","html-keyboard-response","282","355425","0.0-1.0-373.0","0","0","38343","","null","","","null","41","","NaN","","","","","","","","","","","","","",""
"","response","","html-keyboard-response","283","355764","0.0-1.0-374.0","0","0","38343","","338","","","68","41","","","2","41","training","adjacent","EF","5","6","Q.jpg","L.jpg","0","1","0","",""
"","feedback","","html-keyboard-response","284","356766","0.0-1.0-375.0-0.0","0","0","38343","","null","","","null","41","","","","","","","","","","","","","","","",""
"","time_out","","html-keyboard-response","285","358768","0.0-1.0-377.0-0.0","0","0","38343","","null","","","null","41","","","","","","","","","","","","","","","",""
"","ITI","","html-keyboard-response","286","359771","0.0-1.0-378.0","0","0","38343","","null","","","null","41","","","","","","","","","","","","","","","NaN",""
"","S1","","html-keyboard-response","287","360023","0.0-1.0-380.0","0","0","38343","","null","","","null","42","","","","","","","","","","","","","","","",""
"","ISI","","html-keyboard-response","288","362026","0.0-1.0-381.0","0","0","38343","","null","","","null","42","NaN","","","","","","","","","","","","","","",""
"","S2","","html-keyboard-response","289","362278","0.0-1.0-382.0","0","0","38343","","null","","","null","42","","NaN","","","","","","","","","","","","","",""
"","response","","html-keyboard-response","290","362883","0.0-1.0-383.0","0","0","38343","","604","","","75","42","","","2","42","training","adjacent","BC","2","3","N.jpg","R.jpg","1","1","1","",""
"","feedback","","html-keyboard-response","291","363885","0.0-1.0-384.0-0.0","0","0","38343","","null","","","null","42","","","","","","","","","","","","","","","",""
"","ITI","","html-keyboard-response","292","364887","0.0-1.0-387.0","0","0","38343","","null","","","null","42","","","","","","","","","","","","","","","NaN",""
"","S1","","html-keyboard-response","293","365140","0.0-1.0-389.0","0","0","38343","","null","","","null","43","","","","","","","","","","","","","","","",""
"","ISI","","html-keyboard-response","294","367142","0.0-1.0-390.0","0","0","38343","","null","","","null","43","NaN","","","","","","","","","","","","","","",""
"","S2","","html-keyboard-response","295","367394","0.0-1.0-391.0","0","0","38343","","null","","","null","43","","NaN","","","","","","","","","","","","","",""
"","response","","html-keyboard-response","296","367764","0.0-1.0-392.0","0","0","38343","","369","","","75","43","","","2","43","training","adjacent","FE","6","5","L.jpg","Q.jpg","1","0","0","",""
"","feedback","","html-keyboard-response","297","368766","0.0-1.0-393.0-0.0","0","0","38343","","null","","","null","43","","","","","","","","","","","","","","","",""
"","time_out","","html-keyboard-response","298","370768","0.0-1.0-395.0-0.0","0","0","38343","","null","","","null","43","","","","","","","","","","","","","","","",""
"","ITI","","html-keyboard-response","299","371770","0.0-1.0-396.0","0","0","38343","","null","","","null","43","","","","","","","","","","","","","","","NaN",""
"","S1","","html-keyboard-response","300","372023","0.0-1.0-398.0","0","0","38343","","null","","","null","44","","","","","","","","","","","","","","","",""
"","ISI","","html-keyboard-response","301","374026","0.0-1.0-399.0","0","0","38343","","null","","","null","44","NaN","","","","","","","","","","","","","","",""
"","S2","","html-keyboard-response","302","374278","0.0-1.0-400.0","0","0","38343","","null","","","null","44","","NaN","","","","","","","","","","","","","",""
"","response","","html-keyboard-response","303","375243","0.0-1.0-401.0","0","0","38343","","964","","","75","44","","","2","44","training","adjacent","DC","4","3","M.jpg","R.jpg","1","0","0","",""
"","feedback","","html-keyboard-response","304","376246","0.0-1.0-402.0-0.0","0","0","38343","","null","","","null","44","","","","","","","","","","","","","","","",""
"","time_out","","html-keyboard-response","305","378249","0.0-1.0-404.0-0.0","0","0","38343","","null","","","null","44","","","","","","","","","","","","","","","",""
"","ITI","","html-keyboard-response","306","379251","0.0-1.0-405.0","0","0","38343","","null","","","null","44","","","","","","","","","","","","","","","NaN",""
"","S1","","html-keyboard-response","307","379504","0.0-1.0-407.0","0","0","38343","","null","","","null","45","","","","","","","","","","","","","","","",""
"","ISI","","html-keyboard-response","308","381509","0.0-1.0-408.0","0","0","38343","","null","","","null","45","NaN","","","","","","","","","","","","","","",""
"","S2","","html-keyboard-response","309","381762","0.0-1.0-409.0","0","0","38343","","null","","","null","45","","NaN","","","","","","","","","","","","","",""
"","response","","html-keyboard-response","310","382084","0.0-1.0-410.0","0","0","38343","","321","","","75","45","","","2","45","training","adjacent","DE","4","5","M.jpg","Q.jpg","1","1","1","",""
"","feedback","","html-keyboard-response","311","383087","0.0-1.0-411.0-0.0","0","0","38343","","null","","","null","45","","","","","","","","","","","","","","","",""
"","ITI","","html-keyboard-response","312","384090","0.0-1.0-414.0","0","0","38343","","null","","","null","45","","","","","","","","","","","","","","","NaN",""
"","S1","","html-keyboard-response","313","384343","0.0-1.0-416.0","0","0","38343","","null","","","null","46","","","","","","","","","","","","","","","",""
"","ISI","","html-keyboard-response","314","386345","0.0-1.0-417.0","0","0","38343","","null","","","null","46","NaN","","","","","","","","","","","","","","",""
"","S2","","html-keyboard-response","315","386597","0.0-1.0-418.0","0","0","38343","","null","","","null","46","","NaN","","","","","","","","","","","","","",""
"","response","","html-keyboard-response","316","387004","0.0-1.0-419.0","0","0","38343","","404","","","68","46","","","2","46","training","adjacent","AB","1","2","O.jpg","N.jpg","0","1","0","",""
"","feedback","","html-keyboard-response","317","388006","0.0-1.0-420.0-0.0","0","0","38343","","null","","","null","46","","","","","","","","","","","","","","","",""
"","time_out","","html-keyboard-response","318","390008","0.0-1.0-422.0-0.0","0","0","38343","","null","","","null","46","","","","","","","","","","","","","","","",""
"","ITI","","html-keyboard-response","319","391010","0.0-1.0-423.0","0","0","38343","","null","","","null","46","","","","","","","","","","","","","","","NaN",""
"","S1","","html-keyboard-response","320","391262","0.0-1.0-425.0","0","0","38343","","null","","","null","47","","","","","","","","","","","","","","","",""
"","ISI","","html-keyboard-response","321","393264","0.0-1.0-426.0","0","0","38343","","1594","","","75","47","k","","","","","","","","","","","","","","",""
"","S2","","html-keyboard-response","322","393521","0.0-1.0-427.0","0","0","38343","","7","","","75","47","","k","","","","","","","","","","","","","",""
"","response","","html-keyboard-response","323","394389","0.0-1.0-428.0","0","0","38343","","866","","","75","47","","","2","47","training","adjacent","BA","2","1","N.jpg","O.jpg","1","0","0","",""
"","feedback","","html-keyboard-response","324","395392","0.0-1.0-429.0-0.0","0","0","38343","","null","","","null","47","","","","","","","","","","","","","","","",""
"","time_out","","html-keyboard-response","325","397394","0.0-1.0-431.0-0.0","0","0","38343","","null","","","null","47","","","","","","","","","","","","","","","",""
"","ITI","","html-keyboard-response","326","398397","0.0-1.0-432.0","0","0","38343","","null","","","null","47","","","","","","","","","","","","","","","NaN",""
"","S1","","html-keyboard-response","327","398649","0.0-1.0-434.0","0","0","38343","","null","","","null","48","","","","","","","","","","","","","","","",""
"","ISI","","html-keyboard-response","328","400652","0.0-1.0-435.0","0","0","38343","","null","","","null","48","NaN","","","","","","","","","","","","","","",""
"","S2","","html-keyboard-response","329","400905","0.0-1.0-436.0","0","0","38343","","null","","","null","48","","NaN","","","","","","","","","","","","","",""
"","response","","html-keyboard-response","330","401269","0.0-1.0-437.0","0","0","38343","","362","","","75","48","","","2","48","training","adjacent","DC","4","3","M.jpg","R.jpg","1","0","0","",""
"","feedback","","html-keyboard-response","331","402276","0.0-1.0-438.0-0.0","0","0","38343","","null","","","null","48","","","","","","","","","","","","","","","",""
"","time_out","","html-keyboard-response","332","404281","0.0-1.0-440.0-0.0","0","0","38343","","null","","","null","48","","","","","","","","","","","","","","","",""
"","ITI","","html-keyboard-response","333","405283","0.0-1.0-441.0","0","0","38343","","null","","","null","48","","","","","","","","","","","","","","","NaN",""
"","S1","","html-keyboard-response","334","405534","0.0-1.0-443.0","0","0","38343","","null","","","null","49","","","","","","","","","","","","","","","",""
"","ISI","","html-keyboard-response","335","407536","0.0-1.0-444.0","0","0","38343","","null","","","null","49","NaN","","","","","","","","","","","","","","",""
"","S2","","html-keyboard-response","336","407788","0.0-1.0-445.0","0","0","38343","","null","","","null","49","","NaN","","","","","","","","","","","","","",""
"","response","","html-keyboard-response","337","408657","0.0-1.0-446.0","0","0","38343","","868","","","75","49","","","2","49","training","adjacent","FE","6","5","L.jpg","Q.jpg","1","0","0","",""
"","feedback","","html-keyboard-response","338","409659","0.0-1.0-447.0-0.0","0","0","38343","","null","","","null","49","","","","","","","","","","","","","","","",""
"","time_out","","html-keyboard-response","339","411662","0.0-1.0-449.0-0.0","0","0","38343","","null","","","null","49","","","","","","","","","","","","","","","",""
"","ITI","","html-keyboard-response","340","412664","0.0-1.0-450.0","0","0","38343","","null","","","null","49","","","","","","","","","","","","","","","NaN",""
"","S1","","html-keyboard-response","341","412926","0.0-1.0-452.0","0","0","38343","","null","","","null","50","","","","","","","","","","","","","","","",""
"","ISI","","html-keyboard-response","342","414928","0.0-1.0-453.0","0","0","38343","","null","","","null","50","NaN","","","","","","","","","","","","","","",""
"","S2","","html-keyboard-response","343","415180","0.0-1.0-454.0","0","0","38343","","null","","","null","50","","NaN","","","","","","","","","","","","","",""
"","response","","html-keyboard-response","344","415577","0.0-1.0-455.0","0","0","38343","","396","","","75","50","","","2","50","training","adjacent","FG","6","7","L.jpg","P.jpg","1","1","1","",""
"","feedback","","html-keyboard-response","345","416579","0.0-1.0-456.0-0.0","0","0","38343","","null","","","null","50","","","","","","","","","","","","","","","",""
"","ITI","","html-keyboard-response","346","417582","0.0-1.0-459.0","0","0","38343","","null","","","null","50","","","","","","","","","","","","","","","NaN",""
"","S1","","html-keyboard-response","347","417834","0.0-1.0-461.0","0","0","38343","","null","","","null","51","","","","","","","","","","","","","","","",""
"","ISI","","html-keyboard-response","348","419837","0.0-1.0-462.0","0","0","38343","","null","","","null","51","NaN","","","","","","","","","","","","","","",""
"","S2","","html-keyboard-response","349","420091","0.0-1.0-463.0","0","0","38343","","null","","","null","51","","NaN","","","","","","","","","","","","","",""
"","response","","html-keyboard-response","350","420396","0.0-1.0-464.0","0","0","38343","","303","","","68","51","","","2","51","training","adjacent","FG","6","7","L.jpg","P.jpg","0","1","0","",""
"","feedback","","html-keyboard-response","351","421399","0.0-1.0-465.0-0.0","0","0","38343","","null","","","null","51","","","","","","","","","","","","","","","",""
"","time_out","","html-keyboard-response","352","423401","0.0-1.0-467.0-0.0","0","0","38343","","null","","","null","51","","","","","","","","","","","","","","","",""
"","ITI","","html-keyboard-response","353","424403","0.0-1.0-468.0","0","0","38343","","null","","","null","51","","","","","","","","","","","","","","","NaN",""
"","S1","","html-keyboard-response","354","424657","0.0-1.0-470.0","0","0","38343","","null","","","null","52","","","","","","","","","","","","","","","",""
"","ISI","","html-keyboard-response","355","426659","0.0-1.0-471.0","0","0","38343","","null","","","null","52","NaN","","","","","","","","","","","","","","",""
"","S2","","html-keyboard-response","356","426912","0.0-1.0-472.0","0","0","38343","","null","","","null","52","","NaN","","","","","","","","","","","","","",""
"","response","","html-keyboard-response","357","427009","0.0-1.0-473.0","0","0","38343","","96","","","68","52","","","2","52","training","adjacent","ED","5","4","Q.jpg","M.jpg","0","0","1","",""
"","feedback","","html-keyboard-response","358","428013","0.0-1.0-474.0-0.0","0","0","38343","","null","","","null","52","","","","","","","","","","","","","","","",""
"","ITI","","html-keyboard-response","359","429015","0.0-1.0-477.0","0","0","38343","","null","","","null","52","","","","","","","","","","","","","","","NaN",""
"","S1","","html-keyboard-response","360","429274","0.0-1.0-479.0","0","0","38343","","null","","","null","53","","","","","","","","","","","","","","","",""
"","ISI","","html-keyboard-response","361","431277","0.0-1.0-480.0","0","0","38343","","null","","","null","53","NaN","","","","","","","","","","","","","","",""
"","S2","","html-keyboard-response","362","431530","0.0-1.0-481.0","0","0","38343","","null","","","null","53","","NaN","","","","","","","","","","","","","",""
"","response","","html-keyboard-response","363","431614","0.0-1.0-482.0","0","0","38343","","83","","","68","53","","","2","53","training","adjacent","CD","3","4","R.jpg","M.jpg","0","1","0","",""
"","feedback","","html-keyboard-response","364","432618","0.0-1.0-483.0-0.0","0","0","38343","","null","","","null","53","","","","","","","","","","","","","","","",""
"","time_out","","html-keyboard-response","365","434620","0.0-1.0-485.0-0.0","0","0","38343","","null","","","null","53","","","","","","","","","","","","","","","",""
"","ITI","","html-keyboard-response","366","435638","0.0-1.0-486.0","0","0","38343","","null","","","null","53","","","","","","","","","","","","","","","NaN",""
"","S1","","html-keyboard-response","367","435894","0.0-1.0-488.0","0","0","38343","","null","","","null","54","","","","","","","","","","","","","","","",""
"","ISI","","html-keyboard-response","368","437897","0.0-1.0-489.0","0","0","38343","","null","","","null","54","NaN","","","","","","","","","","","","","","",""
"","S2","","html-keyboard-response","369","438149","0.0-1.0-490.0","0","0","38343","","null","","","null","54","","NaN","","","","","","","","","","","","","",""
"","response","","html-keyboard-response","370","438477","0.0-1.0-491.0","0","0","38343","","327","","","68","54","","","2","54","training","adjacent","BA","2","1","N.jpg","O.jpg","0","0","1","",""
"","feedback","","html-keyboard-response","371","439479","0.0-1.0-492.0-0.0","0","0","38343","","null","","","null","54","","","","","","","","","","","","","","","",""
"","ITI","","html-keyboard-response","372","440481","0.0-1.0-495.0","0","0","38343","","null","","","null","54","","","","","","","","","","","","","","","NaN",""
"","S1","","html-keyboard-response","373","440733","0.0-1.0-497.0","0","0","38343","","null","","","null","55","","","","","","","","","","","","","","","",""
"","ISI","","html-keyboard-response","374","442736","0.0-1.0-498.0","0","0","38343","","null","","","null","55","NaN","","","","","","","","","","","","","","",""
"","S2","","html-keyboard-response","375","442988","0.0-1.0-499.0","0","0","38343","","null","","","null","55","","NaN","","","","","","","","","","","","","",""
"","response","","html-keyboard-response","376","443322","0.0-1.0-500.0","0","0","38343","","331","","","75","55","","","2","55","training","adjacent","BC","2","3","N.jpg","R.jpg","1","1","1","",""
"","feedback","","html-keyboard-response","377","444325","0.0-1.0-501.0-0.0","0","0","38343","","null","","","null","55","","","","","","","","","","","","","","","",""
"","ITI","","html-keyboard-response","378","445327","0.0-1.0-504.0","0","0","38343","","null","","","null","55","","","","","","","","","","","","","","","NaN",""
"","S1","","html-keyboard-response","379","445580","0.0-1.0-506.0","0","0","38343","","null","","","null","56","","","","","","","","","","","","","","","",""
"","ISI","","html-keyboard-response","380","447582","0.0-1.0-507.0","0","0","38343","","null","","","null","56","NaN","","","","","","","","","","","","","","",""
"","S2","","html-keyboard-response","381","447834","0.0-1.0-508.0","0","0","38343","","null","","","null","56","","NaN","","","","","","","","","","","","","",""
"","response","","html-keyboard-response","382","448111","0.0-1.0-509.0","0","0","38343","","276","","","75","56","","","2","56","training","adjacent","FG","6","7","L.jpg","P.jpg","1","1","1","",""
"","feedback","","html-keyboard-response","383","449114","0.0-1.0-510.0-0.0","0","0","38343","","null","","","null","56","","","","","","","","","","","","","","","",""
"","ITI","","html-keyboard-response","384","450116","0.0-1.0-513.0","0","0","38343","","null","","","null","56","","","","","","","","","","","","","","","NaN",""
"","S1","","html-keyboard-response","385","450370","0.0-1.0-515.0","0","0","38343","","null","","","null","57","","","","","","","","","","","","","","","",""
"","ISI","","html-keyboard-response","386","452372","0.0-1.0-516.0","0","0","38343","","null","","","null","57","NaN","","","","","","","","","","","","","","",""
"","S2","","html-keyboard-response","387","452625","0.0-1.0-517.0","0","0","38343","","null","","","null","57","","NaN","","","","","","","","","","","","","",""
"","response","","html-keyboard-response","388","452703","0.0-1.0-518.0","0","0","38343","","77","","","68","57","","","2","57","training","adjacent","DC","4","3","M.jpg","R.jpg","0","0","1","",""
"","feedback","","html-keyboard-response","389","453706","0.0-1.0-519.0-0.0","0","0","38343","","null","","","null","57","","","","","","","","","","","","","","","",""
"","ITI","","html-keyboard-response","390","454709","0.0-1.0-522.0","0","0","38343","","null","","","null","57","","","","","","","","","","","","","","","NaN",""
"","S1","","html-keyboard-response","391","454961","0.0-1.0-524.0","0","0","38343","","null","","","null","58","","","","","","","","","","","","","","","",""
"","ISI","","html-keyboard-response","392","456963","0.0-1.0-525.0","0","0","38343","","null","","","null","58","NaN","","","","","","","","","","","","","","",""
"","S2","","html-keyboard-response","393","457216","0.0-1.0-526.0","0","0","38343","","null","","","null","58","","NaN","","","","","","","","","","","","","",""
"","response","","html-keyboard-response","394","457437","0.0-1.0-527.0","0","0","38343","","219","","","68","58","","","2","58","training","adjacent","CB","3","2","R.jpg","N.jpg","0","0","1","",""
"","feedback","","html-keyboard-response","395","458439","0.0-1.0-528.0-0.0","0","0","38343","","null","","","null","58","","","","","","","","","","","","","","","",""
"","ITI","","html-keyboard-response","396","459442","0.0-1.0-531.0","0","0","38343","","null","","","null","58","","","","","","","","","","","","","","","NaN",""
"","S1","","html-keyboard-response","397","459694","0.0-1.0-533.0","0","0","38343","","null","","","null","59","","","","","","","","","","","","","","","",""
"","ISI","","html-keyboard-response","398","461696","0.0-1.0-534.0","0","0","38343","","null","","","null","59","NaN","","","","","","","","","","","","","","",""
"","S2","","html-keyboard-response","399","461948","0.0-1.0-535.0","0","0","38343","","null","","","null","59","","NaN","","","","","","","","","","","","","",""
"","response","","html-keyboard-response","400","462351","0.0-1.0-536.0","0","0","38343","","401","","","68","59","","","2","59","training","adjacent","ED","5","4","Q.jpg","M.jpg","0","0","1","",""
"","feedback","","html-keyboard-response","401","463353","0.0-1.0-537.0-0.0","0","0","38343","","null","","","null","59","","","","","","","","","","","","","","","",""
"","ITI","","html-keyboard-response","402","464356","0.0-1.0-540.0","0","0","38343","","null","","","null","59","","","","","","","","","","","","","","","NaN",""
"","S1","","html-keyboard-response","403","464609","0.0-1.0-542.0","0","0","38343","","null","","","null","60","","","","","","","","","","","","","","","",""
"","ISI","","html-keyboard-response","404","466611","0.0-1.0-543.0","0","0","38343","","null","","","null","60","NaN","","","","","","","","","","","","","","",""
"","S2","","html-keyboard-response","405","466863","0.0-1.0-544.0","0","0","38343","","null","","","null","60","","NaN","","","","","","","","","","","","","",""
"","response","","html-keyboard-response","406","467209","0.0-1.0-545.0","0","0","38343","","345","","","75","60","","","2","60","training","adjacent","DC","4","3","M.jpg","R.jpg","1","0","0","",""
"","feedback","","html-keyboard-response","407","468211","0.0-1.0-546.0-0.0","0","0","38343","","null","","","null","60","","","","","","","","","","","","","","","",""
"","time_out","","html-keyboard-response","408","470212","0.0-1.0-548.0-0.0","0","0","38343","","null","","","null","60","","","","","","","","","","","","","","","",""
"","ITI","","html-keyboard-response","409","471214","0.0-1.0-549.0","0","0","38343","","null","","","null","60","","","","","","","","","","","","","","","NaN",""
"","S1","","html-keyboard-response","410","471466","0.0-1.0-551.0","0","0","38343","","null","","","null","61","","","","","","","","","","","","","","","",""
"","ISI","","html-keyboard-response","411","473469","0.0-1.0-552.0","0","0","38343","","null","","","null","61","NaN","","","","","","","","","","","","","","",""
"","S2","","html-keyboard-response","412","473721","0.0-1.0-553.0","0","0","38343","","null","","","null","61","","NaN","","","","","","","","","","","","","",""
"","response","","html-keyboard-response","413","474399","0.0-1.0-554.0","0","0","38343","","677","","","75","61","","","2","61","training","adjacent","BA","2","1","N.jpg","O.jpg","1","0","0","",""
"","feedback","","html-keyboard-response","414","475403","0.0-1.0-555.0-0.0","0","0","38343","","null","","","null","61","","","","","","","","","","","","","","","",""
"","time_out","","html-keyboard-response","415","477407","0.0-1.0-557.0-0.0","0","0","38343","","null","","","null","61","","","","","","","","","","","","","","","",""
"","ITI","","html-keyboard-response","416","478409","0.0-1.0-558.0","0","0","38343","","null","","","null","61","","","","","","","","","","","","","","","NaN",""
"","S1","","html-keyboard-response","417","478661","0.0-1.0-560.0","0","0","38343","","null","","","null","62","","","","","","","","","","","","","","","",""
"","ISI","","html-keyboard-response","418","480663","0.0-1.0-561.0","0","0","38343","","null","","","null","62","NaN","","","","","","","","","","","","","","",""
"","S2","","html-keyboard-response","419","480915","0.0-1.0-562.0","0","0","38343","","null","","","null","62","","NaN","","","","","","","","","","","","","",""
"","response","","html-keyboard-response","420","481044","0.0-1.0-563.0","0","0","38343","","128","","","68","62","","","2","62","training","adjacent","AB","1","2","O.jpg","N.jpg","0","1","0","",""
"","feedback","","html-keyboard-response","421","482047","0.0-1.0-564.0-0.0","0","0","38343","","null","","","null","62","","","","","","","","","","","","","","","",""
"","time_out","","html-keyboard-response","422","484048","0.0-1.0-566.0-0.0","0","0","38343","","null","","","null","62","","","","","","","","","","","","","","","",""
"","ITI","","html-keyboard-response","423","485050","0.0-1.0-567.0","0","0","38343","","null","","","null","62","","","","","","","","","","","","","","","NaN",""
"","S1","","html-keyboard-response","424","485303","0.0-1.0-569.0","0","0","38343","","null","","","null","63","","","","","","","","","","","","","","","",""
"","ISI","","html-keyboard-response","425","487305","0.0-1.0-570.0","0","0","38343","","null","","","null","63","NaN","","","","","","","","","","","","","","",""
"","S2","","html-keyboard-response","426","487557","0.0-1.0-571.0","0","0","38343","","null","","","null","63","","NaN","","","","","","","","","","","","","",""
"","response","","html-keyboard-response","427","487764","0.0-1.0-572.0","0","0","38343","","206","","","68","63","","","2","63","training","adjacent","ED","5","4","Q.jpg","M.jpg","0","0","1","",""
"","feedback","","html-keyboard-response","428","488767","0.0-1.0-573.0-0.0","0","0","38343","","null","","","null","63","","","","","","","","","","","","","","","",""
"","ITI","","html-keyboard-response","429","489768","0.0-1.0-576.0","0","0","38343","","null","","","null","63","","","","","","","","","","","","","","","NaN",""
"","S1","","html-keyboard-response","430","490022","0.0-1.0-578.0","0","0","38343","","null","","","null","64","","","","","","","","","","","","","","","",""
"","ISI","","html-keyboard-response","431","492024","0.0-1.0-579.0","0","0","38343","","null","","","null","64","NaN","","","","","","","","","","","","","","",""
"","S2","","html-keyboard-response","432","492276","0.0-1.0-580.0","0","0","38343","","null","","","null","64","","NaN","","","","","","","","","","","","","",""
"","response","","html-keyboard-response","433","492456","0.0-1.0-581.0","0","0","38343","","178","","","75","64","","","2","64","training","adjacent","EF","5","6","Q.jpg","L.jpg","1","1","1","",""
"","feedback","","html-keyboard-response","434","493459","0.0-1.0-582.0-0.0","0","0","38343","","null","","","null","64","","","","","","","","","","","","","","","",""
"","ITI","","html-keyboard-response","435","494462","0.0-1.0-585.0","0","0","38343","","null","","","null","64","","","","","","","","","","","","","","","NaN",""
"","S1","","html-keyboard-response","436","494716","0.0-1.0-587.0","0","0","38343","","null","","","null","65","","","","","","","","","","","","","","","",""
"","ISI","","html-keyboard-response","437","496717","0.0-1.0-588.0","0","0","38343","","null","","","null","65","NaN","","","","","","","","","","","","","","",""
"","S2","","html-keyboard-response","438","496969","0.0-1.0-589.0","0","0","38343","","null","","","null","65","","NaN","","","","","","","","","","","","","",""
"","response","","html-keyboard-response","439","498444","0.0-1.0-590.0","0","0","38343","","1473","","","75","65","","","2","65","training","adjacent","DE","4","5","M.jpg","Q.jpg","1","1","1","",""
"","feedback","","html-keyboard-response","440","499446","0.0-1.0-591.0-0.0","0","0","38343","","null","","","null","65","","","","","","","","","","","","","","","",""
"","ITI","","html-keyboard-response","441","500450","0.0-1.0-594.0","0","0","38343","","null","","","null","65","","","","","","","","","","","","","","","NaN",""
"","S1","","html-keyboard-response","442","500702","0.0-1.0-596.0","0","0","38343","","null","","","null","66","","","","","","","","","","","","","","","",""
"","ISI","","html-keyboard-response","443","502704","0.0-1.0-597.0","0","0","38343","","null","","","null","66","NaN","","","","","","","","","","","","","","",""
"","S2","","html-keyboard-response","444","502958","0.0-1.0-598.0","0","0","38343","","null","","","null","66","","NaN","","","","","","","","","","","","","",""
"","response","","html-keyboard-response","445","503990","0.0-1.0-599.0","0","0","38343","","1031","","","75","66","","","2","66","training","adjacent","GF","7","6","P.jpg","L.jpg","1","0","0","",""
"","feedback","","html-keyboard-response","446","504992","0.0-1.0-600.0-0.0","0","0","38343","","null","","","null","66","","","","","","","","","","","","","","","",""
"","time_out","","html-keyboard-response","447","506995","0.0-1.0-602.0-0.0","0","0","38343","","null","","","null","66","","","","","","","","","","","","","","","",""
"","ITI","","html-keyboard-response","448","507998","0.0-1.0-603.0","0","0","38343","","null","","","null","66","","","","","","","","","","","","","","","NaN",""
"","S1","","html-keyboard-response","449","508251","0.0-1.0-605.0","0","0","38343","","null","","","null","67","","","","","","","","","","","","","","","",""
"","ISI","","html-keyboard-response","450","510252","0.0-1.0-606.0","0","0","38343","","null","","","null","67","NaN","","","","","","","","","","","","","","",""
"","S2","","html-keyboard-response","451","510506","0.0-1.0-607.0","0","0","38343","","null","","","null","67","","NaN","","","","","","","","","","","","","",""
"","response","","html-keyboard-response","452","510738","0.0-1.0-608.0","0","0","38343","","230","","","68","67","","","2","67","training","adjacent","GF","7","6","P.jpg","L.jpg","0","0","1","",""
"","feedback","","html-keyboard-response","453","511740","0.0-1.0-609.0-0.0","0","0","38343","","null","","","null","67","","","","","","","","","","","","","","","",""
"","ITI","","html-keyboard-response","454","512743","0.0-1.0-612.0","0","0","38343","","null","","","null","67","","","","","","","","","","","","","","","NaN",""
"","S1","","html-keyboard-response","455","513010","0.0-1.0-614.0","0","0","38343","","null","","","null","68","","","","","","","","","","","","","","","",""
"","ISI","","html-keyboard-response","456","515012","0.0-1.0-615.0","0","0","38343","","null","","","null","68","NaN","","","","","","","","","","","","","","",""
"","S2","","html-keyboard-response","457","515264","0.0-1.0-616.0","0","0","38343","","null","","","null","68","","NaN","","","","","","","","","","","","","",""
"","response","","html-keyboard-response","458","515576","0.0-1.0-617.0","0","0","38343","","310","","","68","68","","","2","68","training","adjacent","CB","3","2","R.jpg","N.jpg","0","0","1","",""
"","feedback","","html-keyboard-response","459","516578","0.0-1.0-618.0-0.0","0","0","38343","","null","","","null","68","","","","","","","","","","","","","","","",""
"","ITI","","html-keyboard-response","460","517580","0.0-1.0-621.0","0","0","38343","","null","","","null","68","","","","","","","","","","","","","","","NaN",""
"","S1","","html-keyboard-response","461","517832","0.0-1.0-623.0","0","0","38343","","null","","","null","69","","","","","","","","","","","","","","","",""
"","ISI","","html-keyboard-response","462","519835","0.0-1.0-624.0","0","0","38343","","null","","","null","69","NaN","","","","","","","","","","","","","","",""
"","S2","","html-keyboard-response","463","520088","0.0-1.0-625.0","0","0","38343","","null","","","null","69","","NaN","","","","","","","","","","","","","",""
"","response","","html-keyboard-response","464","520153","0.0-1.0-626.0","0","0","38343","","63","","","68","69","","","2","69","training","adjacent","DE","4","5","M.jpg","Q.jpg","0","1","0","",""
"","feedback","","html-keyboard-response","465","521157","0.0-1.0-627.0-0.0","0","0","38343","","null","","","null","69","","","","","","","","","","","","","","","",""
"","time_out","","html-keyboard-response","466","523160","0.0-1.0-629.0-0.0","0","0","38343","","null","","","null","69","","","","","","","","","","","","","","","",""
"","ITI","","html-keyboard-response","467","524162","0.0-1.0-630.0","0","0","38343","","null","","","null","69","","","","","","","","","","","","","","","NaN",""
"","S1","","html-keyboard-response","468","524415","0.0-1.0-632.0","0","0","38343","","null","","","null","70","","","","","","","","","","","","","","","",""
"","ISI","","html-keyboard-response","469","526418","0.0-1.0-633.0","0","0","38343","","null","","","null","70","NaN","","","","","","","","","","","","","","",""
"","S2","","html-keyboard-response","470","526670","0.0-1.0-634.0","0","0","38343","","null","","","null","70","","NaN","","","","","","","","","","","","","",""
"","response","","html-keyboard-response","471","527054","0.0-1.0-635.0","0","0","38343","","383","","","68","70","","","2","70","training","adjacent","CD","3","4","R.jpg","M.jpg","0","1","0","",""
"","feedback","","html-keyboard-response","472","528056","0.0-1.0-636.0-0.0","0","0","38343","","null","","","null","70","","","","","","","","","","","","","","","",""
"","time_out","","html-keyboard-response","473","530058","0.0-1.0-638.0-0.0","0","0","38343","","null","","","null","70","","","","","","","","","","","","","","","",""
"","ITI","","html-keyboard-response","474","531061","0.0-1.0-639.0","0","0","38343","","null","","","null","70","","","","","","","","","","","","","","","NaN",""
"","S1","","html-keyboard-response","475","531313","0.0-1.0-641.0","0","0","38343","","null","","","null","71","","","","","","","","","","","","","","","",""
"","ISI","","html-keyboard-response","476","533316","0.0-1.0-642.0","0","0","38343","","null","","","null","71","NaN","","","","","","","","","","","","","","",""
"","S2","","html-keyboard-response","477","533568","0.0-1.0-643.0","0","0","38343","","null","","","null","71","","NaN","","","","","","","","","","","","","",""
"","response","","html-keyboard-response","478","533947","0.0-1.0-644.0","0","0","38343","","377","","","68","71","","","2","71","training","adjacent","CD","3","4","R.jpg","M.jpg","0","1","0","",""
"","feedback","","html-keyboard-response","479","534949","0.0-1.0-645.0-0.0","0","0","38343","","null","","","null","71","","","","","","","","","","","","","","","",""
"","time_out","","html-keyboard-response","480","536952","0.0-1.0-647.0-0.0","0","0","38343","","null","","","null","71","","","","","","","","","","","","","","","",""
"","ITI","","html-keyboard-response","481","537955","0.0-1.0-648.0","0","0","38343","","null","","","null","71","","","","","","","","","","","","","","","NaN",""
"","S1","","html-keyboard-response","482","538219","0.0-1.0-650.0","0","0","38343","","null","","","null","72","","","","","","","","","","","","","","","",""
"","ISI","","html-keyboard-response","483","540223","0.0-1.0-651.0","0","0","38343","","512","","","75","72","k","","","","","","","","","","","","","","",""
"","S2","","html-keyboard-response","484","540475","0.0-1.0-652.0","0","0","38343","","null","","","null","72","","NaN","","","","","","","","","","","","","",""
"","response","","html-keyboard-response","485","541466","0.0-1.0-653.0","0","0","38343","","989","","","75","72","","","2","72","training","adjacent","FE","6","5","L.jpg","Q.jpg","1","0","0","",""
"","feedback","","html-keyboard-response","486","542469","0.0-1.0-654.0-0.0","0","0","38343","","null","","","null","72","","","","","","","","","","","","","","","",""
"","time_out","","html-keyboard-response","487","544472","0.0-1.0-656.0-0.0","0","0","38343","","null","","","null","72","","","","","","","","","","","","","","","",""
"","ITI","","html-keyboard-response","488","545474","0.0-1.0-657.0","0","0","38343","","null","","","null","72","","","","","","","","","","","","","","","NaN",""
"","S1","","html-keyboard-response","489","545727","0.0-1.0-659.0","0","0","38343","","null","","","null","73","","","","","","","","","","","","","","","",""
"","ISI","","html-keyboard-response","490","547729","0.0-1.0-660.0","0","0","38343","","null","","","null","73","NaN","","","","","","","","","","","","","","",""
"","S2","","html-keyboard-response","491","547983","0.0-1.0-661.0","0","0","38343","","null","","","null","73","","NaN","","","","","","","","","","","","","",""
"","response","","html-keyboard-response","492","548459","0.0-1.0-662.0","0","0","38343","","475","","","75","73","","","2","73","training","adjacent","DE","4","5","M.jpg","Q.jpg","1","1","1","",""
"","feedback","","html-keyboard-response","493","549461","0.0-1.0-663.0-0.0","0","0","38343","","null","","","null","73","","","","","","","","","","","","","","","",""
"","ITI","","html-keyboard-response","494","550473","0.0-1.0-666.0","0","0","38343","","null","","","null","73","","","","","","","","","","","","","","","NaN",""
"","S1","","html-keyboard-response","495","550726","0.0-1.0-668.0","0","0","38343","","null","","","null","74","","","","","","","","","","","","","","","",""
"","ISI","","html-keyboard-response","496","552728","0.0-1.0-669.0","0","0","38343","","null","","","null","74","NaN","","","","","","","","","","","","","","",""
"","S2","","html-keyboard-response","497","552980","0.0-1.0-670.0","0","0","38343","","null","","","null","74","","NaN","","","","","","","","","","","","","",""
"","response","","html-keyboard-response","498","553286","0.0-1.0-671.0","0","0","38343","","304","","","75","74","","","2","74","training","adjacent","CB","3","2","R.jpg","N.jpg","1","0","0","",""
"","feedback","","html-keyboard-response","499","554297","0.0-1.0-672.0-0.0","0","0","38343","","null","","","null","74","","","","","","","","","","","","","","","",""
"","time_out","","html-keyboard-response","500","556300","0.0-1.0-674.0-0.0","0","0","38343","","null","","","null","74","","","","","","","","","","","","","","","",""
"","ITI","","html-keyboard-response","501","557302","0.0-1.0-675.0","0","0","38343","","null","","","null","74","","","","","","","","","","","","","","","NaN",""
"","S1","","html-keyboard-response","502","557555","0.0-1.0-677.0","0","0","38343","","null","","","null","75","","","","","","","","","","","","","","","",""
"","ISI","","html-keyboard-response","503","559557","0.0-1.0-678.0","0","0","38343","","436","","","68","75","d","","","","","","","","","","","","","","",""
"","S2","","html-keyboard-response","504","559809","0.0-1.0-679.0","0","0","38343","","null","","","null","75","","NaN","","","","","","","","","","","","","",""
"","response","","html-keyboard-response","505","560475","0.0-1.0-680.0","0","0","38343","","665","","","68","75","","","2","75","training","adjacent","BC","2","3","N.jpg","R.jpg","0","1","0","",""
"","feedback","","html-keyboard-response","506","561479","0.0-1.0-681.0-0.0","0","0","38343","","null","","","null","75","","","","","","","","","","","","","","","",""
"","time_out","","html-keyboard-response","507","563483","0.0-1.0-683.0-0.0","0","0","38343","","null","","","null","75","","","","","","","","","","","","","","","",""
"","ITI","","html-keyboard-response","508","564486","0.0-1.0-684.0","0","0","38343","","null","","","null","75","","","","","","","","","","","","","","","NaN",""
"","S1","","html-keyboard-response","509","564751","0.0-1.0-686.0","0","0","38343","","null","","","null","76","","","","","","","","","","","","","","","",""
"","ISI","","html-keyboard-response","510","566753","0.0-1.0-687.0","0","0","38343","","null","","","null","76","NaN","","","","","","","","","","","","","","",""
"","S2","","html-keyboard-response","511","567007","0.0-1.0-688.0","0","0","38343","","null","","","null","76","","NaN","","","","","","","","","","","","","",""
"","response","","html-keyboard-response","512","567891","0.0-1.0-689.0","0","0","38343","","883","","","75","76","","","2","76","training","adjacent","ED","5","4","Q.jpg","M.jpg","1","0","0","",""
"","feedback","","html-keyboard-response","513","568894","0.0-1.0-690.0-0.0","0","0","38343","","null","","","null","76","","","","","","","","","","","","","","","",""
"","time_out","","html-keyboard-response","514","570897","0.0-1.0-692.0-0.0","0","0","38343","","null","","","null","76","","","","","","","","","","","","","","","",""
"","ITI","","html-keyboard-response","515","571899","0.0-1.0-693.0","0","0","38343","","786","","","75","76","","","","","","","","","","","","","","","k",""
"","S1","","html-keyboard-response","516","572151","0.0-1.0-695.0","0","0","38343","","null","","","null","77","","","","","","","","","","","","","","","",""
"","ISI","","html-keyboard-response","517","574153","0.0-1.0-696.0","0","0","38343","","null","","","null","77","NaN","","","","","","","","","","","","","","",""
"","S2","","html-keyboard-response","518","574405","0.0-1.0-697.0","0","0","38343","","null","","","null","77","","NaN","","","","","","","","","","","","","",""
"","response","","html-keyboard-response","519","574460","0.0-1.0-698.0","0","0","38343","","54","","","68","77","","","2","77","training","adjacent","GF","7","6","P.jpg","L.jpg","0","0","1","",""
"","feedback","","html-keyboard-response","520","575463","0.0-1.0-699.0-0.0","0","0","38343","","null","","","null","77","","","","","","","","","","","","","","","",""
"","ITI","","html-keyboard-response","521","576466","0.0-1.0-702.0","0","0","38343","","null","","","null","77","","","","","","","","","","","","","","","NaN",""
"","S1","","html-keyboard-response","522","576719","0.0-1.0-704.0","0","0","38343","","null","","","null","78","","","","","","","","","","","","","","","",""
"","ISI","","html-keyboard-response","523","578721","0.0-1.0-705.0","0","0","38343","","null","","","null","78","NaN","","","","","","","","","","","","","","",""
"","S2","","html-keyboard-response","524","578974","0.0-1.0-706.0","0","0","38343","","null","","","null","78","","NaN","","","","","","","","","","","","","",""
"","response","","html-keyboard-response","525","579795","0.0-1.0-707.0","0","0","38343","","820","","","68","78","","","2","78","training","adjacent","AB","1","2","O.jpg","N.jpg","0","1","0","",""
"","feedback","","html-keyboard-response","526","580799","0.0-1.0-708.0-0.0","0","0","38343","","null","","","null","78","","","","","","","","","","","","","","","",""
"","time_out","","html-keyboard-response","527","582801","0.0-1.0-710.0-0.0","0","0","38343","","null","","","null","78","","","","","","","","","","","","","","","",""
"","ITI","","html-keyboard-response","528","583804","0.0-1.0-711.0","0","0","38343","","null","","","null","78","","","","","","","","","","","","","","","NaN",""
"","S1","","html-keyboard-response","529","584060","0.0-1.0-713.0","0","0","38343","","null","","","null","79","","","","","","","","","","","","","","","",""
"","ISI","","html-keyboard-response","530","586063","0.0-1.0-714.0","0","0","38343","","null","","","null","79","NaN","","","","","","","","","","","","","","",""
"","S2","","html-keyboard-response","531","586315","0.0-1.0-715.0","0","0","38343","","null","","","null","79","","NaN","","","","","","","","","","","","","",""
"","response","","html-keyboard-response","532","586840","0.0-1.0-716.0","0","0","38343","","523","","","68","79","","","2","79","training","adjacent","CD","3","4","R.jpg","M.jpg","0","1","0","",""
"","feedback","","html-keyboard-response","533","587844","0.0-1.0-717.0-0.0","0","0","38343","","null","","","null","79","","","","","","","","","","","","","","","",""
"","time_out","","html-keyboard-response","534","589848","0.0-1.0-719.0-0.0","0","0","38343","","null","","","null","79","","","","","","","","","","","","","","","",""
"","ITI","","html-keyboard-response","535","590849","0.0-1.0-720.0","0","0","38343","","null","","","null","79","","","","","","","","","","","","","","","NaN",""
"","block_over","","html-keyboard-response","536","596761","0.0-1.0-721.0-0.0","0","0","38343","","5910","","","32","79","","","","","","","","","","","","","","","",""
"","S1","","html-keyboard-response","537","597015","0.0-1.0-722.0","0","0","38343","","null","","","null","80","","","","","","","","","","","","","","","",""
"","ISI","","html-keyboard-response","538","599017","0.0-1.0-723.0","0","0","38343","","null","","","null","80","NaN","","","","","","","","","","","","","","",""
"","S2","","html-keyboard-response","539","599270","0.0-1.0-724.0","0","0","38343","","230","","","68","80","","d","","","","","","","","","","","","","",""
"","response","","html-keyboard-response","540","599747","0.0-1.0-725.0","0","0","38343","","475","","","68","80","","","3","80","training","adjacent","GF","7","6","P.jpg","L.jpg","0","0","1","",""
"","feedback","","html-keyboard-response","541","600749","0.0-1.0-726.0-0.0","0","0","38343","","null","","","null","80","","","","","","","","","","","","","","","",""
"","ITI","","html-keyboard-response","542","601752","0.0-1.0-729.0","0","0","38343","","null","","","null","80","","","","","","","","","","","","","","","NaN",""
"","S1","","html-keyboard-response","543","602004","0.0-1.0-731.0","0","0","38343","","null","","","null","81","","","","","","","","","","","","","","","",""
"","ISI","","html-keyboard-response","544","604006","0.0-1.0-732.0","0","0","38343","","null","","","null","81","NaN","","","","","","","","","","","","","","",""
"","S2","","html-keyboard-response","545","604259","0.0-1.0-733.0","0","0","38343","","null","","","null","81","","NaN","","","","","","","","","","","","","",""
"","response","","html-keyboard-response","546","604843","0.0-1.0-734.0","0","0","38343","","583","","","75","81","","","3","81","training","adjacent","CB","3","2","R.jpg","N.jpg","1","0","0","",""
"","feedback","","html-keyboard-response","547","605847","0.0-1.0-735.0-0.0","0","0","38343","","null","","","null","81","","","","","","","","","","","","","","","",""
"","time_out","","html-keyboard-response","548","607850","0.0-1.0-737.0-0.0","0","0","38343","","null","","","null","81","","","","","","","","","","","","","","","",""
"","ITI","","html-keyboard-response","549","608853","0.0-1.0-738.0","0","0","38343","","492","","","68","81","","","","","","","","","","","","","","","d",""
"","S1","","html-keyboard-response","550","609105","0.0-1.0-740.0","0","0","38343","","null","","","null","82","","","","","","","","","","","","","","","",""
"","ISI","","html-keyboard-response","551","611107","0.0-1.0-741.0","0","0","38343","","null","","","null","82","NaN","","","","","","","","","","","","","","",""
"","S2","","html-keyboard-response","552","611359","0.0-1.0-742.0","0","0","38343","","null","","","null","82","","NaN","","","","","","","","","","","","","",""
"","response","","html-keyboard-response","553","611941","0.0-1.0-743.0","0","0","38343","","580","","","75","82","","","3","82","training","adjacent","FG","6","7","L.jpg","P.jpg","1","1","1","",""
"","feedback","","html-keyboard-response","554","612943","0.0-1.0-744.0-0.0","0","0","38343","","null","","","null","82","","","","","","","","","","","","","","","",""
"","ITI","","html-keyboard-response","555","613945","0.0-1.0-747.0","0","0","38343","","null","","","null","82","","","","","","","","","","","","","","","NaN",""
"","S1","","html-keyboard-response","556","614198","0.0-1.0-749.0","0","0","38343","","null","","","null","83","","","","","","","","","","","","","","","",""
"","ISI","","html-keyboard-response","557","616200","0.0-1.0-750.0","0","0","38343","","null","","","null","83","NaN","","","","","","","","","","","","","","",""
"","S2","","html-keyboard-response","558","616452","0.0-1.0-751.0","0","0","38343","","null","","","null","83","","NaN","","","","","","","","","","","","","",""
"","response","","html-keyboard-response","559","618081","0.0-1.0-752.0","0","0","38343","","1627","","","75","83","","","3","83","training","adjacent","CD","3","4","R.jpg","M.jpg","1","1","1","",""
"","feedback","","html-keyboard-response","560","619084","0.0-1.0-753.0-0.0","0","0","38343","","null","","","null","83","","","","","","","","","","","","","","","",""
"","ITI","","html-keyboard-response","561","620087","0.0-1.0-756.0","0","0","38343","","null","","","null","83","","","","","","","","","","","","","","","NaN",""
"","S1","","html-keyboard-response","562","620340","0.0-1.0-758.0","0","0","38343","","null","","","null","84","","","","","","","","","","","","","","","",""
"","ISI","","html-keyboard-response","563","622342","0.0-1.0-759.0","0","0","38343","","null","","","null","84","NaN","","","","","","","","","","","","","","",""
"","S2","","html-keyboard-response","564","622594","0.0-1.0-760.0","0","0","38343","","null","","","null","84","","NaN","","","","","","","","","","","","","",""
"","response","","html-keyboard-response","565","624597","0.0-1.0-761.0","0","0","38343","","null","","","null","84","","","3","84","training","adjacent","DE","4","5","M.jpg","Q.jpg","NaN","1","0","",""
"","too_slow_prompt","","html-keyboard-response","566","625599","0.0-1.0-763.0-0.0","1","0","38343","","null","","","null","","","","","","","","","","","","","","","","",""
"","time_out","","html-keyboard-response","567","627602","0.0-1.0-764.0-0.0","0","0","38343","","null","","","null","84","","","","","","","","","","","","","","","",""
"","ITI","","html-keyboard-response","568","628604","0.0-1.0-765.0","0","0","38343","","null","","","null","84","","","","","","","","","","","","","","","NaN",""
"","S1","","html-keyboard-response","569","628857","0.0-1.0-767.0","0","0","38343","","null","","","null","85","","","","","","","","","","","","","","","",""
"","ISI","","html-keyboard-response","570","630858","0.0-1.0-768.0","0","0","38343","","null","","","null","85","NaN","","","","","","","","","","","","","","",""
"","S2","","html-keyboard-response","571","631111","0.0-1.0-769.0","0","0","38343","","null","","","null","85","","NaN","","","","","","","","","","","","","",""
"","response","","html-keyboard-response","572","631511","0.0-1.0-770.0","0","0","38343","","399","","","75","85","","","3","85","training","adjacent","EF","5","6","Q.jpg","L.jpg","1","1","1","",""
"","feedback","","html-keyboard-response","573","632514","0.0-1.0-771.0-0.0","0","0","38343","","null","","","null","85","","","","","","","","","","","","","","","",""
"","ITI","","html-keyboard-response","574","633518","0.0-1.0-774.0","0","0","38343","","null","","","null","85","","","","","","","","","","","","","","","NaN",""
"","S1","","html-keyboard-response","575","633771","0.0-1.0-776.0","0","0","38343","","null","","","null","86","","","","","","","","","","","","","","","",""
"","ISI","","html-keyboard-response","576","635774","0.0-1.0-777.0","0","0","38343","","null","","","null","86","NaN","","","","","","","","","","","","","","",""
"","S2","","html-keyboard-response","577","636029","0.0-1.0-778.0","0","0","38343","","null","","","null","86","","NaN","","","","","","","","","","","","","",""
"","response","","html-keyboard-response","578","636828","0.0-1.0-779.0","0","0","38343","","797","","","68","86","","","3","86","training","adjacent","BA","2","1","N.jpg","O.jpg","0","0","1","",""
"","feedback","","html-keyboard-response","579","637832","0.0-1.0-780.0-0.0","0","0","38343","","null","","","null","86","","","","","","","","","","","","","","","",""
"","ITI","","html-keyboard-response","580","638835","0.0-1.0-783.0","0","0","38343","","null","","","null","86","","","","","","","","","","","","","","","NaN",""
"","S1","","html-keyboard-response","581","639089","0.0-1.0-785.0","0","0","38343","","null","","","null","87","","","","","","","","","","","","","","","",""
"","ISI","","html-keyboard-response","582","641090","0.0-1.0-786.0","0","0","38343","","null","","","null","87","NaN","","","","","","","","","","","","","","",""
"","S2","","html-keyboard-response","583","641343","0.0-1.0-787.0","0","0","38343","","null","","","null","87","","NaN","","","","","","","","","","","","","",""
