"success","ttype","start_time","trial_type","trial_index","time_elapsed","internal_node_id","warning","missed_checkup","PID","view_history","rt","responses","repeat_instructions","key_press","index","keypress_isi","keypress_S2","block","trial_num","phase","group_type","pair_type","S1_stim","S2_stim","S1_img","S2_img","S1_chosen","S1_higher","accuracy","keypress_iti","total_bonus_tally"
"true","full_screen","d03072023hr2047","fullscreen","0","10325","0.0-0.0","0","0","42744","","","","","","","","","","","","","","","","","","","","","",""
"","instructions","","instructions","1","47836","0.0-1.0-0.0-0.0","0","0","42744","[{""page_index"":0,""viewing_time"":4924},{""page_index"":1,""viewing_time"":21192},{""page_index"":2,""viewing_time"":9920},{""page_index"":3,""viewing_time"":1474}]","37510","","","","","","","","","","","","","","","","","","","",""
"","comprehension_check","","survey-multi-choice","2","73323","0.0-1.0-0.0-1.0","0","0","42744","","25483","{""Q0"":""True"",""Q1"":""D"",""Q2"":""Only when the screen 'MAKE A CHOICE' is shown"",""Q3"":""Green mark"",""Q4"":""either D or K""}","1","","","","","","","","","","","","","","","","","",""
"","missed_instruction_checkup","","html-keyboard-response","3","75972","0.0-1.0-0.0-2.0-0.0","0","1","42744","","2646","","","32","","","","","","","","","","","","","","","","",""
"","instructions","","instructions","4","87830","0.0-1.0-0.1-0.1","0","0","42744","[{""page_index"":0,""viewing_time"":1431},{""page_index"":1,""viewing_time"":8655},{""page_index"":2,""viewing_time"":1140},{""page_index"":3,""viewing_time"":630}]","11856","","","","","","","","","","","","","","","","","","","",""
"","comprehension_check","","survey-multi-choice","5","96844","0.0-1.0-0.1-1.1","0","0","42744","","9011","{""Q0"":""True"",""Q1"":""D"",""Q2"":""Once the second image appears and while the screen 'MAKE A CHOICE' is shown"",""Q3"":""Green mark"",""Q4"":""either D or K""}","0","","","","","","","","","","","","","","","","","",""
"","start_exp","","html-keyboard-response","6","102459","0.0-1.0-1.0","0","0","42744","","5613","","","32","","","","","","","","","","","","","","","","",""
"","S1","","html-keyboard-response","7","102712","0.0-1.0-2.0","0","0","42744","","null","","","null","0","","","","","","","","","","","","","","","",""
"","ISI","","html-keyboard-response","8","103714","0.0-1.0-3.0","0","0","42744","","null","","","null","0","NaN","","","","","","","","","","","","","","",""
"","S2","","html-keyboard-response","9","103966","0.0-1.0-4.0","0","0","42744","","null","","","null","0","","NaN","","","","","","","","","","","","","",""
"","response","","html-keyboard-response","10","104787","0.0-1.0-5.0-0.0","0","0","42744","","819","","","75","0","","","1","0","training","adjacent","BA","2","1","Q.jpg","R.jpg","0","0","1","",""
"","feedback","","html-keyboard-response","11","105789","0.0-1.0-6.0-0.0","0","0","42744","","null","","","null","0","","","","","","","","","","","","","","","",""
"","ITI","","html-keyboard-response","12","106791","0.0-1.0-9.0","0","0","42744","","null","","","null","0","","","","","","","","","","","","","","","NaN",""
"","S1","","html-keyboard-response","13","107043","0.0-1.0-11.0","0","0","42744","","null","","","null","1","","","","","","","","","","","","","","","",""
"","ISI","","html-keyboard-response","14","108045","0.0-1.0-12.0","0","0","42744","","null","","","null","1","NaN","","","","","","","","","","","","","","",""
"","S2","","html-keyboard-response","15","108298","0.0-1.0-13.0","0","0","42744","","null","","","null","1","","NaN","","","","","","","","","","","","","",""
"","response","","html-keyboard-response","16","109168","0.0-1.0-14.0-0.0","0","0","42744","","869","","","75","1","","","1","1","training","adjacent","EF","5","6","M.jpg","N.jpg","0","1","0","",""
"","feedback","","html-keyboard-response","17","110170","0.0-1.0-15.0-0.0","0","0","42744","","null","","","null","1","","","","","","","","","","","","","","","",""
"","time_out","","html-keyboard-response","18","112172","0.0-1.0-17.0-0.0","0","0","42744","","null","","","null","1","","","","","","","","","","","","","","","",""
"","ITI","","html-keyboard-response","19","113174","0.0-1.0-18.0","0","0","42744","","null","","","null","1","","","","","","","","","","","","","","","NaN",""
"","S1","","html-keyboard-response","20","113426","0.0-1.0-20.0","0","0","42744","","null","","","null","2","","","","","","","","","","","","","","","",""
"","ISI","","html-keyboard-response","21","114429","0.0-1.0-21.0","0","0","42744","","null","","","null","2","NaN","","","","","","","","","","","","","","",""
"","S2","","html-keyboard-response","22","114680","0.0-1.0-22.0","0","0","42744","","null","","","null","2","","NaN","","","","","","","","","","","","","",""
"","response","","html-keyboard-response","23","115509","0.0-1.0-23.0-0.0","0","0","42744","","827","","","75","2","","","1","2","training","adjacent","AB","1","2","R.jpg","Q.jpg","0","1","0","",""
"","feedback","","html-keyboard-response","24","116511","0.0-1.0-24.0-0.0","0","0","42744","","null","","","null","2","","","","","","","","","","","","","","","",""
"","time_out","","html-keyboard-response","25","118513","0.0-1.0-26.0-0.0","0","0","42744","","null","","","null","2","","","","","","","","","","","","","","","",""
"","ITI","","html-keyboard-response","26","119515","0.0-1.0-27.0","0","0","42744","","null","","","null","2","","","","","","","","","","","","","","","NaN",""
"","S1","","html-keyboard-response","27","119766","0.0-1.0-29.0","0","0","42744","","null","","","null","3","","","","","","","","","","","","","","","",""
"","ISI","","html-keyboard-response","28","120768","0.0-1.0-30.0","0","0","42744","","null","","","null","3","NaN","","","","","","","","","","","","","","",""
"","S2","","html-keyboard-response","29","121020","0.0-1.0-31.0","0","0","42744","","null","","","null","3","","NaN","","","","","","","","","","","","","",""
"","response","","html-keyboard-response","30","121431","0.0-1.0-32.0-0.0","0","0","42744","","410","","","68","3","","","1","3","training","adjacent","AB","1","2","R.jpg","Q.jpg","1","1","1","",""
"","feedback","","html-keyboard-response","31","122433","0.0-1.0-33.0-0.0","0","0","42744","","null","","","null","3","","","","","","","","","","","","","","","",""
"","ITI","","html-keyboard-response","32","123435","0.0-1.0-36.0","0","0","42744","","null","","","null","3","","","","","","","","","","","","","","","NaN",""
"","S1","","html-keyboard-response","33","123687","0.0-1.0-38.0","0","0","42744","","null","","","null","4","","","","","","","","","","","","","","","",""
"","ISI","","html-keyboard-response","34","124689","0.0-1.0-39.0","0","0","42744","","null","","","null","4","NaN","","","","","","","","","","","","","","",""
"","S2","","html-keyboard-response","35","124941","0.0-1.0-40.0","0","0","42744","","null","","","null","4","","NaN","","","","","","","","","","","","","",""
"","response","","html-keyboard-response","36","125361","0.0-1.0-41.0-0.0","0","0","42744","","418","","","68","4","","","1","4","training","adjacent","CB","3","2","P.jpg","Q.jpg","1","0","0","",""
"","feedback","","html-keyboard-response","37","126362","0.0-1.0-42.0-0.0","0","0","42744","","null","","","null","4","","","","","","","","","","","","","","","",""
"","time_out","","html-keyboard-response","38","128364","0.0-1.0-44.0-0.0","0","0","42744","","null","","","null","4","","","","","","","","","","","","","","","",""
"","ITI","","html-keyboard-response","39","129366","0.0-1.0-45.0","0","0","42744","","null","","","null","4","","","","","","","","","","","","","","","NaN",""
"","S1","","html-keyboard-response","40","129619","0.0-1.0-47.0","0","0","42744","","null","","","null","5","","","","","","","","","","","","","","","",""
"","ISI","","html-keyboard-response","41","130621","0.0-1.0-48.0","0","0","42744","","null","","","null","5","NaN","","","","","","","","","","","","","","",""
"","S2","","html-keyboard-response","42","130877","0.0-1.0-49.0","0","0","42744","","null","","","null","5","","NaN","","","","","","","","","","","","","",""
"","response","","html-keyboard-response","43","131673","0.0-1.0-50.0-0.0","0","0","42744","","794","","","68","5","","","1","5","training","adjacent","GF","7","6","L.jpg","N.jpg","1","0","0","",""
"","feedback","","html-keyboard-response","44","132675","0.0-1.0-51.0-0.0","0","0","42744","","null","","","null","5","","","","","","","","","","","","","","","",""
"","time_out","","html-keyboard-response","45","134677","0.0-1.0-53.0-0.0","0","0","42744","","null","","","null","5","","","","","","","","","","","","","","","",""
"","ITI","","html-keyboard-response","46","135679","0.0-1.0-54.0","0","0","42744","","null","","","null","5","","","","","","","","","","","","","","","NaN",""
"","S1","","html-keyboard-response","47","135930","0.0-1.0-56.0","0","0","42744","","null","","","null","6","","","","","","","","","","","","","","","",""
"","ISI","","html-keyboard-response","48","136931","0.0-1.0-57.0","0","0","42744","","null","","","null","6","NaN","","","","","","","","","","","","","","",""
"","S2","","html-keyboard-response","49","137184","0.0-1.0-58.0","0","0","42744","","null","","","null","6","","NaN","","","","","","","","","","","","","",""
"","response","","html-keyboard-response","50","137756","0.0-1.0-59.0-0.0","0","0","42744","","571","","","75","6","","","1","6","training","adjacent","CB","3","2","P.jpg","Q.jpg","0","0","1","",""
"","feedback","","html-keyboard-response","51","138758","0.0-1.0-60.0-0.0","0","0","42744","","null","","","null","6","","","","","","","","","","","","","","","",""
"","ITI","","html-keyboard-response","52","139760","0.0-1.0-63.0","0","0","42744","","null","","","null","6","","","","","","","","","","","","","","","NaN",""
"","S1","","html-keyboard-response","53","140012","0.0-1.0-65.0","0","0","42744","","null","","","null","7","","","","","","","","","","","","","","","",""
"","ISI","","html-keyboard-response","54","141013","0.0-1.0-66.0","0","0","42744","","null","","","null","7","NaN","","","","","","","","","","","","","","",""
"","S2","","html-keyboard-response","55","141266","0.0-1.0-67.0","0","0","42744","","null","","","null","7","","NaN","","","","","","","","","","","","","",""
"","response","","html-keyboard-response","56","141759","0.0-1.0-68.0-0.0","0","0","42744","","493","","","75","7","","","1","7","training","adjacent","BC","2","3","Q.jpg","P.jpg","0","1","0","",""
"","feedback","","html-keyboard-response","57","142761","0.0-1.0-69.0-0.0","0","0","42744","","null","","","null","7","","","","","","","","","","","","","","","",""
"","time_out","","html-keyboard-response","58","144763","0.0-1.0-71.0-0.0","0","0","42744","","null","","","null","7","","","","","","","","","","","","","","","",""
"","ITI","","html-keyboard-response","59","145765","0.0-1.0-72.0","0","0","42744","","null","","","null","7","","","","","","","","","","","","","","","NaN",""
"","S1","","html-keyboard-response","60","146017","0.0-1.0-74.0","0","0","42744","","null","","","null","8","","","","","","","","","","","","","","","",""
"","ISI","","html-keyboard-response","61","147018","0.0-1.0-75.0","0","0","42744","","null","","","null","8","NaN","","","","","","","","","","","","","","",""
"","S2","","html-keyboard-response","62","147271","0.0-1.0-76.0","0","0","42744","","null","","","null","8","","NaN","","","","","","","","","","","","","",""
"","response","","html-keyboard-response","63","148173","0.0-1.0-77.0-0.0","0","0","42744","","901","","","75","8","","","1","8","training","adjacent","ED","5","4","M.jpg","O.jpg","0","0","1","",""
"","feedback","","html-keyboard-response","64","149176","0.0-1.0-78.0-0.0","0","0","42744","","null","","","null","8","","","","","","","","","","","","","","","",""
"","ITI","","html-keyboard-response","65","150177","0.0-1.0-81.0","0","0","42744","","null","","","null","8","","","","","","","","","","","","","","","NaN",""
"","S1","","html-keyboard-response","66","150430","0.0-1.0-83.0","0","0","42744","","null","","","null","9","","","","","","","","","","","","","","","",""
"","ISI","","html-keyboard-response","67","151432","0.0-1.0-84.0","0","0","42744","","null","","","null","9","NaN","","","","","","","","","","","","","","",""
"","S2","","html-keyboard-response","68","151684","0.0-1.0-85.0","0","0","42744","","null","","","null","9","","NaN","","","","","","","","","","","","","",""
"","response","","html-keyboard-response","69","152134","0.0-1.0-86.0-0.0","0","0","42744","","448","","","75","9","","","1","9","training","adjacent","CD","3","4","P.jpg","O.jpg","0","1","0","",""
"","feedback","","html-keyboard-response","70","153136","0.0-1.0-87.0-0.0","0","0","42744","","null","","","null","9","","","","","","","","","","","","","","","",""
"","time_out","","html-keyboard-response","71","155137","0.0-1.0-89.0-0.0","0","0","42744","","null","","","null","9","","","","","","","","","","","","","","","",""
"","ITI","","html-keyboard-response","72","156139","0.0-1.0-90.0","0","0","42744","","null","","","null","9","","","","","","","","","","","","","","","NaN",""
"","S1","","html-keyboard-response","73","156390","0.0-1.0-92.0","0","0","42744","","null","","","null","10","","","","","","","","","","","","","","","",""
"","ISI","","html-keyboard-response","74","157392","0.0-1.0-93.0","0","0","42744","","null","","","null","10","NaN","","","","","","","","","","","","","","",""
"","S2","","html-keyboard-response","75","157644","0.0-1.0-94.0","0","0","42744","","null","","","null","10","","NaN","","","","","","","","","","","","","",""
"","response","","html-keyboard-response","76","158795","0.0-1.0-95.0-0.0","0","0","42744","","1149","","","68","10","","","1","10","training","adjacent","FE","6","5","N.jpg","M.jpg","1","0","0","",""
"","feedback","","html-keyboard-response","77","159796","0.0-1.0-96.0-0.0","0","0","42744","","null","","","null","10","","","","","","","","","","","","","","","",""
"","time_out","","html-keyboard-response","78","161798","0.0-1.0-98.0-0.0","0","0","42744","","null","","","null","10","","","","","","","","","","","","","","","",""
"","ITI","","html-keyboard-response","79","162800","0.0-1.0-99.0","0","0","42744","","null","","","null","10","","","","","","","","","","","","","","","NaN",""
"","S1","","html-keyboard-response","80","163053","0.0-1.0-101.0","0","0","42744","","null","","","null","11","","","","","","","","","","","","","","","",""
"","ISI","","html-keyboard-response","81","164054","0.0-1.0-102.0","0","0","42744","","null","","","null","11","NaN","","","","","","","","","","","","","","",""
"","S2","","html-keyboard-response","82","164307","0.0-1.0-103.0","0","0","42744","","null","","","null","11","","NaN","","","","","","","","","","","","","",""
"","response","","html-keyboard-response","83","164747","0.0-1.0-104.0-0.0","0","0","42744","","439","","","75","11","","","1","11","training","adjacent","DC","4","3","O.jpg","P.jpg","0","0","1","",""
"","feedback","","html-keyboard-response","84","165748","0.0-1.0-105.0-0.0","0","0","42744","","null","","","null","11","","","","","","","","","","","","","","","",""
"","ITI","","html-keyboard-response","85","166750","0.0-1.0-108.0","0","0","42744","","null","","","null","11","","","","","","","","","","","","","","","NaN",""
"","S1","","html-keyboard-response","86","167002","0.0-1.0-110.0","0","0","42744","","null","","","null","12","","","","","","","","","","","","","","","",""
"","ISI","","html-keyboard-response","87","168004","0.0-1.0-111.0","0","0","42744","","null","","","null","12","NaN","","","","","","","","","","","","","","",""
"","S2","","html-keyboard-response","88","168257","0.0-1.0-112.0","0","0","42744","","null","","","null","12","","NaN","","","","","","","","","","","","","",""
"","response","","html-keyboard-response","89","168604","0.0-1.0-113.0-0.0","0","0","42744","","346","","","75","12","","","1","12","training","adjacent","BC","2","3","Q.jpg","P.jpg","0","1","0","",""
"","feedback","","html-keyboard-response","90","169605","0.0-1.0-114.0-0.0","0","0","42744","","null","","","null","12","","","","","","","","","","","","","","","",""
"","time_out","","html-keyboard-response","91","171608","0.0-1.0-116.0-0.0","0","0","42744","","null","","","null","12","","","","","","","","","","","","","","","",""
"","ITI","","html-keyboard-response","92","172610","0.0-1.0-117.0","0","0","42744","","null","","","null","12","","","","","","","","","","","","","","","NaN",""
"","S1","","html-keyboard-response","93","172861","0.0-1.0-119.0","0","0","42744","","null","","","null","13","","","","","","","","","","","","","","","",""
"","ISI","","html-keyboard-response","94","173863","0.0-1.0-120.0","0","0","42744","","null","","","null","13","NaN","","","","","","","","","","","","","","",""
"","S2","","html-keyboard-response","95","174115","0.0-1.0-121.0","0","0","42744","","null","","","null","13","","NaN","","","","","","","","","","","","","",""
"","response","","html-keyboard-response","96","174610","0.0-1.0-122.0-0.0","0","0","42744","","493","","","75","13","","","1","13","training","adjacent","ED","5","4","M.jpg","O.jpg","0","0","1","",""
"","feedback","","html-keyboard-response","97","175611","0.0-1.0-123.0-0.0","0","0","42744","","null","","","null","13","","","","","","","","","","","","","","","",""
"","ITI","","html-keyboard-response","98","176614","0.0-1.0-126.0","0","0","42744","","null","","","null","13","","","","","","","","","","","","","","","NaN",""
"","S1","","html-keyboard-response","99","176866","0.0-1.0-128.0","0","0","42744","","null","","","null","14","","","","","","","","","","","","","","","",""
"","ISI","","html-keyboard-response","100","177867","0.0-1.0-129.0","0","0","42744","","null","","","null","14","NaN","","","","","","","","","","","","","","",""
"","S2","","html-keyboard-response","101","178119","0.0-1.0-130.0","0","0","42744","","null","","","null","14","","NaN","","","","","","","","","","","","","",""
"","response","","html-keyboard-response","102","178933","0.0-1.0-131.0-0.0","0","0","42744","","812","","","75","14","","","1","14","training","adjacent","EF","5","6","M.jpg","N.jpg","0","1","0","",""
"","feedback","","html-keyboard-response","103","179935","0.0-1.0-132.0-0.0","0","0","42744","","null","","","null","14","","","","","","","","","","","","","","","",""
"","time_out","","html-keyboard-response","104","181938","0.0-1.0-134.0-0.0","0","0","42744","","null","","","null","14","","","","","","","","","","","","","","","",""
"","ITI","","html-keyboard-response","105","182939","0.0-1.0-135.0","0","0","42744","","null","","","null","14","","","","","","","","","","","","","","","NaN",""
"","S1","","html-keyboard-response","106","183191","0.0-1.0-137.0","0","0","42744","","null","","","null","15","","","","","","","","","","","","","","","",""
"","ISI","","html-keyboard-response","107","184193","0.0-1.0-138.0","0","0","42744","","null","","","null","15","NaN","","","","","","","","","","","","","","",""
"","S2","","html-keyboard-response","108","184446","0.0-1.0-139.0","0","0","42744","","null","","","null","15","","NaN","","","","","","","","","","","","","",""
"","response","","html-keyboard-response","109","185116","0.0-1.0-140.0-0.0","0","0","42744","","669","","","75","15","","","1","15","training","adjacent","FE","6","5","N.jpg","M.jpg","0","0","1","",""
"","feedback","","html-keyboard-response","110","186118","0.0-1.0-141.0-0.0","0","0","42744","","null","","","null","15","","","","","","","","","","","","","","","",""
"","ITI","","html-keyboard-response","111","187120","0.0-1.0-144.0","0","0","42744","","null","","","null","15","","","","","","","","","","","","","","","NaN",""
"","S1","","html-keyboard-response","112","187371","0.0-1.0-146.0","0","0","42744","","null","","","null","16","","","","","","","","","","","","","","","",""
"","ISI","","html-keyboard-response","113","188373","0.0-1.0-147.0","0","0","42744","","null","","","null","16","NaN","","","","","","","","","","","","","","",""
"","S2","","html-keyboard-response","114","188625","0.0-1.0-148.0","0","0","42744","","null","","","null","16","","NaN","","","","","","","","","","","","","",""
"","response","","html-keyboard-response","115","189584","0.0-1.0-149.0-0.0","0","0","42744","","957","","","68","16","","","1","16","training","adjacent","GF","7","6","L.jpg","N.jpg","1","0","0","",""
"","feedback","","html-keyboard-response","116","190586","0.0-1.0-150.0-0.0","0","0","42744","","null","","","null","16","","","","","","","","","","","","","","","",""
"","time_out","","html-keyboard-response","117","192588","0.0-1.0-152.0-0.0","0","0","42744","","null","","","null","16","","","","","","","","","","","","","","","",""
"","ITI","","html-keyboard-response","118","193590","0.0-1.0-153.0","0","0","42744","","null","","","null","16","","","","","","","","","","","","","","","NaN",""
"","S1","","html-keyboard-response","119","193841","0.0-1.0-155.0","0","0","42744","","null","","","null","17","","","","","","","","","","","","","","","",""
"","ISI","","html-keyboard-response","120","194843","0.0-1.0-156.0","0","0","42744","","null","","","null","17","NaN","","","","","","","","","","","","","","",""
"","S2","","html-keyboard-response","121","195095","0.0-1.0-157.0","0","0","42744","","null","","","null","17","","NaN","","","","","","","","","","","","","",""
"","response","","html-keyboard-response","122","195343","0.0-1.0-158.0-0.0","0","0","42744","","247","","","75","17","","","1","17","training","adjacent","GF","7","6","L.jpg","N.jpg","0","0","1","",""
"","feedback","","html-keyboard-response","123","196345","0.0-1.0-159.0-0.0","0","0","42744","","null","","","null","17","","","","","","","","","","","","","","","",""
"","ITI","","html-keyboard-response","124","197346","0.0-1.0-162.0","0","0","42744","","null","","","null","17","","","","","","","","","","","","","","","NaN",""
"","S1","","html-keyboard-response","125","197598","0.0-1.0-164.0","0","0","42744","","null","","","null","18","","","","","","","","","","","","","","","",""
"","ISI","","html-keyboard-response","126","198599","0.0-1.0-165.0","0","0","42744","","914","","","68","18","d","","","","","","","","","","","","","","",""
"","S2","","html-keyboard-response","127","198853","0.0-1.0-166.0","0","0","42744","","null","","","null","18","","NaN","","","","","","","","","","","","","",""
"","response","","html-keyboard-response","128","198979","0.0-1.0-167.0-0.0","0","0","42744","","125","","","68","18","","","1","18","training","adjacent","ED","5","4","M.jpg","O.jpg","1","0","0","",""
"","feedback","","html-keyboard-response","129","199982","0.0-1.0-168.0-0.0","0","0","42744","","null","","","null","18","","","","","","","","","","","","","","","",""
"","time_out","","html-keyboard-response","130","201984","0.0-1.0-170.0-0.0","0","0","42744","","null","","","null","18","","","","","","","","","","","","","","","",""
"","ITI","","html-keyboard-response","131","202985","0.0-1.0-171.0","0","0","42744","","null","","","null","18","","","","","","","","","","","","","","","NaN",""
"","S1","","html-keyboard-response","132","203236","0.0-1.0-173.0","0","0","42744","","null","","","null","19","","","","","","","","","","","","","","","",""
"","ISI","","html-keyboard-response","133","204239","0.0-1.0-174.0","0","0","42744","","null","","","null","19","NaN","","","","","","","","","","","","","","",""
"","S2","","html-keyboard-response","134","204491","0.0-1.0-175.0","0","0","42744","","null","","","null","19","","NaN","","","","","","","","","","","","","",""
"","response","","html-keyboard-response","135","204866","0.0-1.0-176.0-0.0","0","0","42744","","373","","","75","19","","","1","19","training","adjacent","CD","3","4","P.jpg","O.jpg","0","1","0","",""
"","feedback","","html-keyboard-response","136","205870","0.0-1.0-177.0-0.0","0","0","42744","","null","","","null","19","","","","","","","","","","","","","","","",""
"","time_out","","html-keyboard-response","137","207871","0.0-1.0-179.0-0.0","0","0","42744","","null","","","null","19","","","","","","","","","","","","","","","",""
"","ITI","","html-keyboard-response","138","208874","0.0-1.0-180.0","0","0","42744","","null","","","null","19","","","","","","","","","","","","","","","NaN",""
"","S1","","html-keyboard-response","139","209126","0.0-1.0-182.0","0","0","42744","","null","","","null","20","","","","","","","","","","","","","","","",""
"","ISI","","html-keyboard-response","140","210127","0.0-1.0-183.0","0","0","42744","","null","","","null","20","NaN","","","","","","","","","","","","","","",""
"","S2","","html-keyboard-response","141","210380","0.0-1.0-184.0","0","0","42744","","null","","","null","20","","NaN","","","","","","","","","","","","","",""
"","response","","html-keyboard-response","142","210978","0.0-1.0-185.0-0.0","0","0","42744","","597","","","75","20","","","1","20","training","adjacent","CD","3","4","P.jpg","O.jpg","0","1","0","",""
"","feedback","","html-keyboard-response","143","211980","0.0-1.0-186.0-0.0","0","0","42744","","null","","","null","20","","","","","","","","","","","","","","","",""
"","time_out","","html-keyboard-response","144","213981","0.0-1.0-188.0-0.0","0","0","42744","","null","","","null","20","","","","","","","","","","","","","","","",""
"","ITI","","html-keyboard-response","145","214984","0.0-1.0-189.0","0","0","42744","","null","","","null","20","","","","","","","","","","","","","","","NaN",""
"","S1","","html-keyboard-response","146","215237","0.0-1.0-191.0","0","0","42744","","null","","","null","21","","","","","","","","","","","","","","","",""
"","ISI","","html-keyboard-response","147","216239","0.0-1.0-192.0","0","0","42744","","null","","","null","21","NaN","","","","","","","","","","","","","","",""
"","S2","","html-keyboard-response","148","216491","0.0-1.0-193.0","0","0","42744","","null","","","null","21","","NaN","","","","","","","","","","","","","",""
"","response","","html-keyboard-response","149","216854","0.0-1.0-194.0-0.0","0","0","42744","","363","","","68","21","","","1","21","training","adjacent","FE","6","5","N.jpg","M.jpg","1","0","0","",""
"","feedback","","html-keyboard-response","150","217857","0.0-1.0-195.0-0.0","0","0","42744","","null","","","null","21","","","","","","","","","","","","","","","",""
"","time_out","","html-keyboard-response","151","219859","0.0-1.0-197.0-0.0","0","0","42744","","null","","","null","21","","","","","","","","","","","","","","","",""
"","ITI","","html-keyboard-response","152","220860","0.0-1.0-198.0","0","0","42744","","null","","","null","21","","","","","","","","","","","","","","","NaN",""
"","S1","","html-keyboard-response","153","221112","0.0-1.0-200.0","0","0","42744","","null","","","null","22","","","","","","","","","","","","","","","",""
"","ISI","","html-keyboard-response","154","222114","0.0-1.0-201.0","0","0","42744","","null","","","null","22","NaN","","","","","","","","","","","","","","",""
"","S2","","html-keyboard-response","155","222367","0.0-1.0-202.0","0","0","42744","","null","","","null","22","","NaN","","","","","","","","","","","","","",""
"","response","","html-keyboard-response","156","222672","0.0-1.0-203.0-0.0","0","0","42744","","304","","","75","22","","","1","22","training","adjacent","CD","3","4","P.jpg","O.jpg","0","1","0","",""
"","feedback","","html-keyboard-response","157","223674","0.0-1.0-204.0-0.0","0","0","42744","","null","","","null","22","","","","","","","","","","","","","","","",""
"","time_out","","html-keyboard-response","158","225677","0.0-1.0-206.0-0.0","0","0","42744","","null","","","null","22","","","","","","","","","","","","","","","",""
"","ITI","","html-keyboard-response","159","226678","0.0-1.0-207.0","0","0","42744","","null","","","null","22","","","","","","","","","","","","","","","NaN",""
"","S1","","html-keyboard-response","160","226930","0.0-1.0-209.0","0","0","42744","","null","","","null","23","","","","","","","","","","","","","","","",""
"","ISI","","html-keyboard-response","161","227932","0.0-1.0-210.0","0","0","42744","","null","","","null","23","NaN","","","","","","","","","","","","","","",""
"","S2","","html-keyboard-response","162","228142","0.0-1.0-211.0","0","0","42744","","209","","","68","23","","d","1","23","training","adjacent","DC","4","3","O.jpg","P.jpg","1","0","0","",""
"","feedback","","html-keyboard-response","163","229144","0.0-1.0-213.0-0.0","0","0","42744","","null","","","null","23","","","","","","","","","","","","","","","",""
"","time_out","","html-keyboard-response","164","231146","0.0-1.0-215.0-0.0","0","0","42744","","null","","","null","23","","","","","","","","","","","","","","","",""
"","ITI","","html-keyboard-response","165","232148","0.0-1.0-216.0","0","0","42744","","null","","","null","23","","","","","","","","","","","","","","","NaN",""
"","S1","","html-keyboard-response","166","232399","0.0-1.0-218.0","0","0","42744","","null","","","null","24","","","","","","","","","","","","","","","",""
"","ISI","","html-keyboard-response","167","233402","0.0-1.0-219.0","0","0","42744","","null","","","null","24","NaN","","","","","","","","","","","","","","",""
"","S2","","html-keyboard-response","168","233600","0.0-1.0-220.0","0","0","42744","","197","","","68","24","","d","1","24","training","adjacent","FG","6","7","N.jpg","L.jpg","1","1","1","",""
"","feedback","","html-keyboard-response","169","234602","0.0-1.0-222.0-0.0","0","0","42744","","null","","","null","24","","","","","","","","","","","","","","","",""
"","ITI","","html-keyboard-response","170","235604","0.0-1.0-225.0","0","0","42744","","null","","","null","24","","","","","","","","","","","","","","","NaN",""
"","S1","","html-keyboard-response","171","235856","0.0-1.0-227.0","0","0","42744","","null","","","null","25","","","","","","","","","","","","","","","",""
"","ISI","","html-keyboard-response","172","236858","0.0-1.0-228.0","0","0","42744","","null","","","null","25","NaN","","","","","","","","","","","","","","",""
"","S2","","html-keyboard-response","173","237110","0.0-1.0-229.0","0","0","42744","","null","","","null","25","","NaN","","","","","","","","","","","","","",""
"","response","","html-keyboard-response","174","237466","0.0-1.0-230.0-0.0","0","0","42744","","355","","","68","25","","","1","25","training","adjacent","FE","6","5","N.jpg","M.jpg","1","0","0","",""
"","feedback","","html-keyboard-response","175","238468","0.0-1.0-231.0-0.0","0","0","42744","","null","","","null","25","","","","","","","","","","","","","","","",""
"","time_out","","html-keyboard-response","176","240470","0.0-1.0-233.0-0.0","0","0","42744","","null","","","null","25","","","","","","","","","","","","","","","",""
"","ITI","","html-keyboard-response","177","241472","0.0-1.0-234.0","0","0","42744","","null","","","null","25","","","","","","","","","","","","","","","NaN",""
"","S1","","html-keyboard-response","178","241723","0.0-1.0-236.0","0","0","42744","","null","","","null","26","","","","","","","","","","","","","","","",""
"","ISI","","html-keyboard-response","179","242726","0.0-1.0-237.0","0","0","42744","","null","","","null","26","NaN","","","","","","","","","","","","","","",""
"","S2","","html-keyboard-response","180","242977","0.0-1.0-238.0","0","0","42744","","null","","","null","26","","NaN","","","","","","","","","","","","","",""
"","response","","html-keyboard-response","181","243070","0.0-1.0-239.0-0.0","0","0","42744","","92","","","75","26","","","1","26","training","adjacent","GF","7","6","L.jpg","N.jpg","0","0","1","",""
"","feedback","","html-keyboard-response","182","244073","0.0-1.0-240.0-0.0","0","0","42744","","null","","","null","26","","","","","","","","","","","","","","","",""
"","ITI","","html-keyboard-response","183","245075","0.0-1.0-243.0","0","0","42744","","null","","","null","26","","","","","","","","","","","","","","","NaN",""
"","S1","","html-keyboard-response","184","245326","0.0-1.0-245.0","0","0","42744","","null","","","null","27","","","","","","","","","","","","","","","",""
"","ISI","","html-keyboard-response","185","246328","0.0-1.0-246.0","0","0","42744","","null","","","null","27","NaN","","","","","","","","","","","","","","",""
"","S2","","html-keyboard-response","186","246581","0.0-1.0-247.0","0","0","42744","","null","","","null","27","","NaN","","","","","","","","","","","","","",""
"","response","","html-keyboard-response","187","246650","0.0-1.0-248.0-0.0","0","0","42744","","68","","","68","27","","","1","27","training","adjacent","BA","2","1","Q.jpg","R.jpg","1","0","0","",""
"","feedback","","html-keyboard-response","188","247652","0.0-1.0-249.0-0.0","0","0","42744","","null","","","null","27","","","","","","","","","","","","","","","",""
"","time_out","","html-keyboard-response","189","249655","0.0-1.0-251.0-0.0","0","0","42744","","null","","","null","27","","","","","","","","","","","","","","","",""
"","ITI","","html-keyboard-response","190","250657","0.0-1.0-252.0","0","0","42744","","null","","","null","27","","","","","","","","","","","","","","","NaN",""
"","S1","","html-keyboard-response","191","250910","0.0-1.0-254.0","0","0","42744","","null","","","null","28","","","","","","","","","","","","","","","",""
"","ISI","","html-keyboard-response","192","251912","0.0-1.0-255.0","0","0","42744","","null","","","null","28","NaN","","","","","","","","","","","","","","",""
"","S2","","html-keyboard-response","193","252164","0.0-1.0-256.0","0","0","42744","","null","","","null","28","","NaN","","","","","","","","","","","","","",""
"","response","","html-keyboard-response","194","252583","0.0-1.0-257.0-0.0","0","0","42744","","417","","","75","28","","","1","28","training","adjacent","CB","3","2","P.jpg","Q.jpg","0","0","1","",""
"","feedback","","html-keyboard-response","195","253585","0.0-1.0-258.0-0.0","0","0","42744","","null","","","null","28","","","","","","","","","","","","","","","",""
"","ITI","","html-keyboard-response","196","254587","0.0-1.0-261.0","0","0","42744","","null","","","null","28","","","","","","","","","","","","","","","NaN",""
"","S1","","html-keyboard-response","197","254839","0.0-1.0-263.0","0","0","42744","","null","","","null","29","","","","","","","","","","","","","","","",""
"","ISI","","html-keyboard-response","198","255840","0.0-1.0-264.0","0","0","42744","","null","","","null","29","NaN","","","","","","","","","","","","","","",""
"","S2","","html-keyboard-response","199","256093","0.0-1.0-265.0","0","0","42744","","null","","","null","29","","NaN","","","","","","","","","","","","","",""
"","response","","html-keyboard-response","200","256398","0.0-1.0-266.0-0.0","0","0","42744","","304","","","75","29","","","1","29","training","adjacent","ED","5","4","M.jpg","O.jpg","0","0","1","",""
"","feedback","","html-keyboard-response","201","257400","0.0-1.0-267.0-0.0","0","0","42744","","null","","","null","29","","","","","","","","","","","","","","","",""
"","ITI","","html-keyboard-response","202","258401","0.0-1.0-270.0","0","0","42744","","null","","","null","29","","","","","","","","","","","","","","","NaN",""
"","S1","","html-keyboard-response","203","258653","0.0-1.0-272.0","0","0","42744","","null","","","null","30","","","","","","","","","","","","","","","",""
"","ISI","","html-keyboard-response","204","259655","0.0-1.0-273.0","0","0","42744","","null","","","null","30","NaN","","","","","","","","","","","","","","",""
"","S2","","html-keyboard-response","205","259908","0.0-1.0-274.0","0","0","42744","","null","","","null","30","","NaN","","","","","","","","","","","","","",""
"","response","","html-keyboard-response","206","260531","0.0-1.0-275.0-0.0","0","0","42744","","621","","","75","30","","","1","30","training","adjacent","FG","6","7","N.jpg","L.jpg","0","1","0","",""
"","feedback","","html-keyboard-response","207","261534","0.0-1.0-276.0-0.0","0","0","42744","","null","","","null","30","","","","","","","","","","","","","","","",""
"","time_out","","html-keyboard-response","208","263536","0.0-1.0-278.0-0.0","0","0","42744","","null","","","null","30","","","","","","","","","","","","","","","",""
"","ITI","","html-keyboard-response","209","264539","0.0-1.0-279.0","0","0","42744","","null","","","null","30","","","","","","","","","","","","","","","NaN",""
"","S1","","html-keyboard-response","210","264791","0.0-1.0-281.0","0","0","42744","","null","","","null","31","","","","","","","","","","","","","","","",""
"","ISI","","html-keyboard-response","211","265794","0.0-1.0-282.0","0","0","42744","","null","","","null","31","NaN","","","","","","","","","","","","","","",""
"","S2","","html-keyboard-response","212","266046","0.0-1.0-283.0","0","0","42744","","null","","","null","31","","NaN","","","","","","","","","","","","","",""
"","response","","html-keyboard-response","213","266378","0.0-1.0-284.0-0.0","0","0","42744","","330","","","68","31","","","1","31","training","adjacent","DE","4","5","O.jpg","M.jpg","1","1","1","",""
"","feedback","","html-keyboard-response","214","267380","0.0-1.0-285.0-0.0","0","0","42744","","null","","","null","31","","","","","","","","","","","","","","","",""
"","ITI","","html-keyboard-response","215","268383","0.0-1.0-288.0","0","0","42744","","null","","","null","31","","","","","","","","","","","","","","","NaN",""
"","S1","","html-keyboard-response","216","268635","0.0-1.0-290.0","0","0","42744","","null","","","null","32","","","","","","","","","","","","","","","",""
"","ISI","","html-keyboard-response","217","269636","0.0-1.0-291.0","0","0","42744","","null","","","null","32","NaN","","","","","","","","","","","","","","",""
"","S2","","html-keyboard-response","218","269889","0.0-1.0-292.0","0","0","42744","","null","","","null","32","","NaN","","","","","","","","","","","","","",""
"","response","","html-keyboard-response","219","270463","0.0-1.0-293.0-0.0","0","0","42744","","574","","","68","32","","","1","32","training","adjacent","EF","5","6","M.jpg","N.jpg","1","1","1","",""
"","feedback","","html-keyboard-response","220","271466","0.0-1.0-294.0-0.0","0","0","42744","","null","","","null","32","","","","","","","","","","","","","","","",""
"","ITI","","html-keyboard-response","221","272468","0.0-1.0-297.0","0","0","42744","","null","","","null","32","","","","","","","","","","","","","","","NaN",""
"","S1","","html-keyboard-response","222","272720","0.0-1.0-299.0","0","0","42744","","null","","","null","33","","","","","","","","","","","","","","","",""
"","ISI","","html-keyboard-response","223","273722","0.0-1.0-300.0","0","0","42744","","null","","","null","33","NaN","","","","","","","","","","","","","","",""
"","S2","","html-keyboard-response","224","273975","0.0-1.0-301.0","0","0","42744","","null","","","null","33","","NaN","","","","","","","","","","","","","",""
"","response","","html-keyboard-response","225","274216","0.0-1.0-302.0-0.0","0","0","42744","","239","","","68","33","","","1","33","training","adjacent","EF","5","6","M.jpg","N.jpg","1","1","1","",""
"","feedback","","html-keyboard-response","226","275217","0.0-1.0-303.0-0.0","0","0","42744","","null","","","null","33","","","","","","","","","","","","","","","",""
"","ITI","","html-keyboard-response","227","276219","0.0-1.0-306.0","0","0","42744","","null","","","null","33","","","","","","","","","","","","","","","NaN",""
"","S1","","html-keyboard-response","228","276472","0.0-1.0-308.0","0","0","42744","","null","","","null","34","","","","","","","","","","","","","","","",""
"","ISI","","html-keyboard-response","229","277474","0.0-1.0-309.0","0","0","42744","","null","","","null","34","NaN","","","","","","","","","","","","","","",""
"","S2","","html-keyboard-response","230","277725","0.0-1.0-310.0","0","0","42744","","null","","","null","34","","NaN","","","","","","","","","","","","","",""
"","response","","html-keyboard-response","231","278578","0.0-1.0-311.0-0.0","0","0","42744","","851","","","68","34","","","1","34","training","adjacent","DE","4","5","O.jpg","M.jpg","1","1","1","",""
"","feedback","","html-keyboard-response","232","279580","0.0-1.0-312.0-0.0","0","0","42744","","null","","","null","34","","","","","","","","","","","","","","","",""
"","ITI","","html-keyboard-response","233","280583","0.0-1.0-315.0","0","0","42744","","null","","","null","34","","","","","","","","","","","","","","","NaN",""
"","S1","","html-keyboard-response","234","280835","0.0-1.0-317.0","0","0","42744","","null","","","null","35","","","","","","","","","","","","","","","",""
"","ISI","","html-keyboard-response","235","281837","0.0-1.0-318.0","0","0","42744","","null","","","null","35","NaN","","","","","","","","","","","","","","",""
"","S2","","html-keyboard-response","236","282089","0.0-1.0-319.0","0","0","42744","","null","","","null","35","","NaN","","","","","","","","","","","","","",""
"","response","","html-keyboard-response","237","282896","0.0-1.0-320.0-0.0","0","0","42744","","806","","","68","35","","","1","35","training","adjacent","BC","2","3","Q.jpg","P.jpg","1","1","1","",""
"","feedback","","html-keyboard-response","238","283898","0.0-1.0-321.0-0.0","0","0","42744","","null","","","null","35","","","","","","","","","","","","","","","",""
"","ITI","","html-keyboard-response","239","284900","0.0-1.0-324.0","0","0","42744","","null","","","null","35","","","","","","","","","","","","","","","NaN",""
"","S1","","html-keyboard-response","240","285153","0.0-1.0-326.0","0","0","42744","","null","","","null","36","","","","","","","","","","","","","","","",""
"","ISI","","html-keyboard-response","241","286155","0.0-1.0-327.0","0","0","42744","","null","","","null","36","NaN","","","","","","","","","","","","","","",""
"","S2","","html-keyboard-response","242","286407","0.0-1.0-328.0","0","0","42744","","null","","","null","36","","NaN","","","","","","","","","","","","","",""
"","response","","html-keyboard-response","243","286956","0.0-1.0-329.0-0.0","0","0","42744","","548","","","68","36","","","1","36","training","adjacent","FG","6","7","N.jpg","L.jpg","1","1","1","",""
"","feedback","","html-keyboard-response","244","287958","0.0-1.0-330.0-0.0","0","0","42744","","null","","","null","36","","","","","","","","","","","","","","","",""
"","ITI","","html-keyboard-response","245","288960","0.0-1.0-333.0","0","0","42744","","null","","","null","36","","","","","","","","","","","","","","","NaN",""
"","S1","","html-keyboard-response","246","289212","0.0-1.0-335.0","0","0","42744","","null","","","null","37","","","","","","","","","","","","","","","",""
"","ISI","","html-keyboard-response","247","290213","0.0-1.0-336.0","0","0","42744","","null","","","null","37","NaN","","","","","","","","","","","","","","",""
"","S2","","html-keyboard-response","248","290466","0.0-1.0-337.0","0","0","42744","","null","","","null","37","","NaN","","","","","","","","","","","","","",""
"","response","","html-keyboard-response","249","290942","0.0-1.0-338.0-0.0","0","0","42744","","475","","","75","37","","","1","37","training","adjacent","AB","1","2","R.jpg","Q.jpg","0","1","0","",""
"","feedback","","html-keyboard-response","250","291944","0.0-1.0-339.0-0.0","0","0","42744","","null","","","null","37","","","","","","","","","","","","","","","",""
"","time_out","","html-keyboard-response","251","293946","0.0-1.0-341.0-0.0","0","0","42744","","null","","","null","37","","","","","","","","","","","","","","","",""
"","ITI","","html-keyboard-response","252","294948","0.0-1.0-342.0","0","0","42744","","null","","","null","37","","","","","","","","","","","","","","","NaN",""
"","S1","","html-keyboard-response","253","295200","0.0-1.0-344.0","0","0","42744","","null","","","null","38","","","","","","","","","","","","","","","",""
"","ISI","","html-keyboard-response","254","296202","0.0-1.0-345.0","0","0","42744","","null","","","null","38","NaN","","","","","","","","","","","","","","",""
"","S2","","html-keyboard-response","255","296454","0.0-1.0-346.0","0","0","42744","","null","","","null","38","","NaN","","","","","","","","","","","","","",""
"","response","","html-keyboard-response","256","297134","0.0-1.0-347.0-0.0","0","0","42744","","679","","","68","38","","","1","38","training","adjacent","BA","2","1","Q.jpg","R.jpg","1","0","0","",""
"","feedback","","html-keyboard-response","257","298136","0.0-1.0-348.0-0.0","0","0","42744","","null","","","null","38","","","","","","","","","","","","","","","",""
"","time_out","","html-keyboard-response","258","300138","0.0-1.0-350.0-0.0","0","0","42744","","null","","","null","38","","","","","","","","","","","","","","","",""
"","ITI","","html-keyboard-response","259","301139","0.0-1.0-351.0","0","0","42744","","null","","","null","38","","","","","","","","","","","","","","","NaN",""
"","S1","","html-keyboard-response","260","301392","0.0-1.0-353.0","0","0","42744","","null","","","null","39","","","","","","","","","","","","","","","",""
"","ISI","","html-keyboard-response","261","302396","0.0-1.0-354.0","0","0","42744","","null","","","null","39","NaN","","","","","","","","","","","","","","",""
"","S2","","html-keyboard-response","262","302649","0.0-1.0-355.0","0","0","42744","","null","","","null","39","","NaN","","","","","","","","","","","","","",""
"","response","","html-keyboard-response","263","303027","0.0-1.0-356.0-0.0","0","0","42744","","377","","","75","39","","","1","39","training","adjacent","DC","4","3","O.jpg","P.jpg","0","0","1","",""
"","feedback","","html-keyboard-response","264","304029","0.0-1.0-357.0-0.0","0","0","42744","","null","","","null","39","","","","","","","","","","","","","","","",""
"","ITI","","html-keyboard-response","265","305030","0.0-1.0-360.0","0","0","42744","","null","","","null","39","","","","","","","","","","","","","","","NaN",""
"","S1","","html-keyboard-response","266","305282","0.0-1.0-362.0","0","0","42744","","null","","","null","40","","","","","","","","","","","","","","","",""
"","ISI","","html-keyboard-response","267","306284","0.0-1.0-363.0","0","0","42744","","null","","","null","40","NaN","","","","","","","","","","","","","","",""
"","S2","","html-keyboard-response","268","306536","0.0-1.0-364.0","0","0","42744","","null","","","null","40","","NaN","","","","","","","","","","","","","",""
"","response","","html-keyboard-response","269","307204","0.0-1.0-365.0-0.0","0","0","42744","","668","","","75","40","","","1","40","training","adjacent","DE","4","5","O.jpg","M.jpg","0","1","0","",""
"","feedback","","html-keyboard-response","270","308207","0.0-1.0-366.0-0.0","0","0","42744","","null","","","null","40","","","","","","","","","","","","","","","",""
"","time_out","","html-keyboard-response","271","310209","0.0-1.0-368.0-0.0","0","0","42744","","null","","","null","40","","","","","","","","","","","","","","","",""
"","ITI","","html-keyboard-response","272","311210","0.0-1.0-369.0","0","0","42744","","null","","","null","40","","","","","","","","","","","","","","","NaN",""
"","S1","","html-keyboard-response","273","311463","0.0-1.0-371.0","0","0","42744","","null","","","null","41","","","","","","","","","","","","","","","",""
"","ISI","","html-keyboard-response","274","312465","0.0-1.0-372.0","0","0","42744","","null","","","null","41","NaN","","","","","","","","","","","","","","",""
"","S2","","html-keyboard-response","275","312717","0.0-1.0-373.0","0","0","42744","","null","","","null","41","","NaN","","","","","","","","","","","","","",""
"","response","","html-keyboard-response","276","313590","0.0-1.0-374.0-0.0","0","0","42744","","872","","","68","41","","","1","41","training","adjacent","BC","2","3","Q.jpg","P.jpg","1","1","1","",""
"","feedback","","html-keyboard-response","277","314592","0.0-1.0-375.0-0.0","0","0","42744","","null","","","null","41","","","","","","","","","","","","","","","",""
"","ITI","","html-keyboard-response","278","315595","0.0-1.0-378.0","0","0","42744","","null","","","null","41","","","","","","","","","","","","","","","NaN",""
"","S1","","html-keyboard-response","279","315848","0.0-1.0-380.0","0","0","42744","","null","","","null","42","","","","","","","","","","","","","","","",""
"","ISI","","html-keyboard-response","280","316850","0.0-1.0-381.0","0","0","42744","","null","","","null","42","NaN","","","","","","","","","","","","","","",""
"","S2","","html-keyboard-response","281","317102","0.0-1.0-382.0","0","0","42744","","null","","","null","42","","NaN","","","","","","","","","","","","","",""
"","response","","html-keyboard-response","282","317417","0.0-1.0-383.0-0.0","0","0","42744","","315","","","68","42","","","1","42","training","adjacent","FG","6","7","N.jpg","L.jpg","1","1","1","",""
"","feedback","","html-keyboard-response","283","318420","0.0-1.0-384.0-0.0","0","0","42744","","null","","","null","42","","","","","","","","","","","","","","","",""
"","ITI","","html-keyboard-response","284","319422","0.0-1.0-387.0","0","0","42744","","null","","","null","42","","","","","","","","","","","","","","","NaN",""
"","S1","","html-keyboard-response","285","319674","0.0-1.0-389.0","0","0","42744","","null","","","null","43","","","","","","","","","","","","","","","",""
"","ISI","","html-keyboard-response","286","320676","0.0-1.0-390.0","0","0","42744","","null","","","null","43","NaN","","","","","","","","","","","","","","",""
"","S2","","html-keyboard-response","287","320928","0.0-1.0-391.0","0","0","42744","","null","","","null","43","","NaN","","","","","","","","","","","","","",""
"","response","","html-keyboard-response","288","321561","0.0-1.0-392.0-0.0","0","0","42744","","632","","","75","43","","","1","43","training","adjacent","BA","2","1","Q.jpg","R.jpg","0","0","1","",""
"","feedback","","html-keyboard-response","289","322562","0.0-1.0-393.0-0.0","0","0","42744","","null","","","null","43","","","","","","","","","","","","","","","",""
"","ITI","","html-keyboard-response","290","323565","0.0-1.0-396.0","0","0","42744","","null","","","null","43","","","","","","","","","","","","","","","NaN",""
"","S1","","html-keyboard-response","291","323816","0.0-1.0-398.0","0","0","42744","","null","","","null","44","","","","","","","","","","","","","","","",""
"","ISI","","html-keyboard-response","292","324819","0.0-1.0-399.0","0","0","42744","","null","","","null","44","NaN","","","","","","","","","","","","","","",""
"","S2","","html-keyboard-response","293","325071","0.0-1.0-400.0","0","0","42744","","null","","","null","44","","NaN","","","","","","","","","","","","","",""
"","response","","html-keyboard-response","294","325402","0.0-1.0-401.0-0.0","0","0","42744","","329","","","75","44","","","1","44","training","adjacent","AB","1","2","R.jpg","Q.jpg","0","1","0","",""
"","feedback","","html-keyboard-response","295","326405","0.0-1.0-402.0-0.0","0","0","42744","","null","","","null","44","","","","","","","","","","","","","","","",""
"","time_out","","html-keyboard-response","296","328407","0.0-1.0-404.0-0.0","0","0","42744","","null","","","null","44","","","","","","","","","","","","","","","",""
"","ITI","","html-keyboard-response","297","329409","0.0-1.0-405.0","0","0","42744","","null","","","null","44","","","","","","","","","","","","","","","NaN",""
"","S1","","html-keyboard-response","298","329662","0.0-1.0-407.0","0","0","42744","","null","","","null","45","","","","","","","","","","","","","","","",""
"","ISI","","html-keyboard-response","299","330664","0.0-1.0-408.0","0","0","42744","","null","","","null","45","NaN","","","","","","","","","","","","","","",""
"","S2","","html-keyboard-response","300","330917","0.0-1.0-409.0","0","0","42744","","null","","","null","45","","NaN","","","","","","","","","","","","","",""
"","response","","html-keyboard-response","301","331528","0.0-1.0-410.0-0.0","0","0","42744","","610","","","75","45","","","1","45","training","adjacent","DC","4","3","O.jpg","P.jpg","0","0","1","",""
"","feedback","","html-keyboard-response","302","332530","0.0-1.0-411.0-0.0","0","0","42744","","null","","","null","45","","","","","","","","","","","","","","","",""
"","ITI","","html-keyboard-response","303","333532","0.0-1.0-414.0","0","0","42744","","null","","","null","45","","","","","","","","","","","","","","","NaN",""
"","S1","","html-keyboard-response","304","333784","0.0-1.0-416.0","0","0","42744","","null","","","null","46","","","","","","","","","","","","","","","",""
"","ISI","","html-keyboard-response","305","334787","0.0-1.0-417.0","0","0","42744","","null","","","null","46","NaN","","","","","","","","","","","","","","",""
"","S2","","html-keyboard-response","306","335039","0.0-1.0-418.0","0","0","42744","","null","","","null","46","","NaN","","","","","","","","","","","","","",""
"","response","","html-keyboard-response","307","336228","0.0-1.0-419.0-0.0","0","0","42744","","1189","","","68","46","","","1","46","training","adjacent","DE","4","5","O.jpg","M.jpg","1","1","1","",""
"","feedback","","html-keyboard-response","308","337230","0.0-1.0-420.0-0.0","0","0","42744","","null","","","null","46","","","","","","","","","","","","","","","",""
"","ITI","","html-keyboard-response","309","338233","0.0-1.0-423.0","0","0","42744","","null","","","null","46","","","","","","","","","","","","","","","NaN",""
"","S1","","html-keyboard-response","310","338485","0.0-1.0-425.0","0","0","42744","","null","","","null","47","","","","","","","","","","","","","","","",""
"","ISI","","html-keyboard-response","311","339487","0.0-1.0-426.0","0","0","42744","","null","","","null","47","NaN","","","","","","","","","","","","","","",""
"","S2","","html-keyboard-response","312","339739","0.0-1.0-427.0","0","0","42744","","null","","","null","47","","NaN","","","","","","","","","","","","","",""
"","response","","html-keyboard-response","313","341026","0.0-1.0-428.0-0.0","0","0","42744","","1286","","","68","47","","","1","47","training","adjacent","CB","3","2","P.jpg","Q.jpg","1","0","0","",""
"","feedback","","html-keyboard-response","314","342028","0.0-1.0-429.0-0.0","0","0","42744","","null","","","null","47","","","","","","","","","","","","","","","",""
"","time_out","","html-keyboard-response","315","344030","0.0-1.0-431.0-0.0","0","0","42744","","null","","","null","47","","","","","","","","","","","","","","","",""
"","ITI","","html-keyboard-response","316","345032","0.0-1.0-432.0","0","0","42744","","null","","","null","47","","","","","","","","","","","","","","","NaN",""
"","block_over","","html-keyboard-response","317","449319","0.0-1.0-433.0-0.0","0","0","42744","","104286","","","32","47","","","","","","","","","","","","","","","",""
"","S1","","html-keyboard-response","318","449571","0.0-1.0-434.0","0","0","42744","","null","","","null","48","","","","","","","","","","","","","","","",""
"","ISI","","html-keyboard-response","319","450573","0.0-1.0-435.0","0","0","42744","","null","","","null","48","NaN","","","","","","","","","","","","","","",""
"","S2","","html-keyboard-response","320","450825","0.0-1.0-436.0","0","0","42744","","null","","","null","48","","NaN","","","","","","","","","","","","","",""
"","response","","html-keyboard-response","321","451314","0.0-1.0-437.0-0.0","0","0","42744","","488","","","68","48","","","2","48","training","adjacent","GF","7","6","L.jpg","N.jpg","1","0","0","",""
"","feedback","","html-keyboard-response","322","452317","0.0-1.0-438.0-0.0","0","0","42744","","null","","","null","48","","","","","","","","","","","","","","","",""
"","time_out","","html-keyboard-response","323","454318","0.0-1.0-440.0-0.0","0","0","42744","","null","","","null","48","","","","","","","","","","","","","","","",""
"","ITI","","html-keyboard-response","324","455321","0.0-1.0-441.0","0","0","42744","","null","","","null","48","","","","","","","","","","","","","","","NaN",""
"","S1","","html-keyboard-response","325","455573","0.0-1.0-443.0","0","0","42744","","null","","","null","49","","","","","","","","","","","","","","","",""
"","ISI","","html-keyboard-response","326","456575","0.0-1.0-444.0","0","0","42744","","null","","","null","49","NaN","","","","","","","","","","","","","","",""
"","S2","","html-keyboard-response","327","456827","0.0-1.0-445.0","0","0","42744","","null","","","null","49","","NaN","","","","","","","","","","","","","",""
"","response","","html-keyboard-response","328","457524","0.0-1.0-446.0-0.0","0","0","42744","","695","","","75","49","","","2","49","training","adjacent","DC","4","3","O.jpg","P.jpg","0","0","1","",""
"","feedback","","html-keyboard-response","329","458526","0.0-1.0-447.0-0.0","0","0","42744","","null","","","null","49","","","","","","","","","","","","","","","",""
"","ITI","","html-keyboard-response","330","459527","0.0-1.0-450.0","0","0","42744","","null","","","null","49","","","","","","","","","","","","","","","NaN",""
"","S1","","html-keyboard-response","331","459779","0.0-1.0-452.0","0","0","42744","","null","","","null","50","","","","","","","","","","","","","","","",""
"","ISI","","html-keyboard-response","332","460780","0.0-1.0-453.0","0","0","42744","","null","","","null","50","NaN","","","","","","","","","","","","","","",""
"","S2","","html-keyboard-response","333","461032","0.0-1.0-454.0","0","0","42744","","null","","","null","50","","NaN","","","","","","","","","","","","","",""
"","response","","html-keyboard-response","334","462209","0.0-1.0-455.0-0.0","0","0","42744","","1175","","","75","50","","","2","50","training","adjacent","BA","2","1","Q.jpg","R.jpg","0","0","1","",""
"","feedback","","html-keyboard-response","335","463212","0.0-1.0-456.0-0.0","0","0","42744","","null","","","null","50","","","","","","","","","","","","","","","",""
"","ITI","","html-keyboard-response","336","464214","0.0-1.0-459.0","0","0","42744","","null","","","null","50","","","","","","","","","","","","","","","NaN",""
"","S1","","html-keyboard-response","337","464466","0.0-1.0-461.0","0","0","42744","","null","","","null","51","","","","","","","","","","","","","","","",""
"","ISI","","html-keyboard-response","338","465479","0.0-1.0-462.0","0","0","42744","","null","","","null","51","NaN","","","","","","","","","","","","","","",""
"","S2","","html-keyboard-response","339","465731","0.0-1.0-463.0","0","0","42744","","null","","","null","51","","NaN","","","","","","","","","","","","","",""
"","response","","html-keyboard-response","340","467008","0.0-1.0-464.0-0.0","0","0","42744","","1276","","","68","51","","","2","51","training","adjacent","BC","2","3","Q.jpg","P.jpg","1","1","1","",""
"","feedback","","html-keyboard-response","341","468011","0.0-1.0-465.0-0.0","0","0","42744","","null","","","null","51","","","","","","","","","","","","","","","",""
"","ITI","","html-keyboard-response","342","469012","0.0-1.0-468.0","0","0","42744","","null","","","null","51","","","","","","","","","","","","","","","NaN",""
"","S1","","html-keyboard-response","343","469264","0.0-1.0-470.0","0","0","42744","","null","","","null","52","","","","","","","","","","","","","","","",""
"","ISI","","html-keyboard-response","344","470267","0.0-1.0-471.0","0","0","42744","","null","","","null","52","NaN","","","","","","","","","","","","","","",""
"","S2","","html-keyboard-response","345","470519","0.0-1.0-472.0","0","0","42744","","null","","","null","52","","NaN","","","","","","","","","","","","","",""
"","response","","html-keyboard-response","346","471170","0.0-1.0-473.0-0.0","0","0","42744","","650","","","75","52","","","2","52","training","adjacent","BA","2","1","Q.jpg","R.jpg","0","0","1","",""
"","feedback","","html-keyboard-response","347","472172","0.0-1.0-474.0-0.0","0","0","42744","","null","","","null","52","","","","","","","","","","","","","","","",""
"","ITI","","html-keyboard-response","348","473174","0.0-1.0-477.0","0","0","42744","","null","","","null","52","","","","","","","","","","","","","","","NaN",""
"","S1","","html-keyboard-response","349","473426","0.0-1.0-479.0","0","0","42744","","null","","","null","53","","","","","","","","","","","","","","","",""
"","ISI","","html-keyboard-response","350","474437","0.0-1.0-480.0","0","0","42744","","null","","","null","53","NaN","","","","","","","","","","","","","","",""
"","S2","","html-keyboard-response","351","474689","0.0-1.0-481.0","0","0","42744","","null","","","null","53","","NaN","","","","","","","","","","","","","",""
"","response","","html-keyboard-response","352","475416","0.0-1.0-482.0-0.0","0","0","42744","","727","","","68","53","","","2","53","training","adjacent","AB","1","2","R.jpg","Q.jpg","1","1","1","",""
"","feedback","","html-keyboard-response","353","476419","0.0-1.0-483.0-0.0","0","0","42744","","null","","","null","53","","","","","","","","","","","","","","","",""
"","ITI","","html-keyboard-response","354","477421","0.0-1.0-486.0","0","0","42744","","null","","","null","53","","","","","","","","","","","","","","","NaN",""
"","S1","","html-keyboard-response","355","477673","0.0-1.0-488.0","0","0","42744","","null","","","null","54","","","","","","","","","","","","","","","",""
"","ISI","","html-keyboard-response","356","478675","0.0-1.0-489.0","0","0","42744","","null","","","null","54","NaN","","","","","","","","","","","","","","",""
"","S2","","html-keyboard-response","357","478928","0.0-1.0-490.0","0","0","42744","","null","","","null","54","","NaN","","","","","","","","","","","","","",""
"","response","","html-keyboard-response","358","479242","0.0-1.0-491.0-0.0","0","0","42744","","313","","","75","54","","","2","54","training","adjacent","DC","4","3","O.jpg","P.jpg","0","0","1","",""
"","feedback","","html-keyboard-response","359","480244","0.0-1.0-492.0-0.0","0","0","42744","","null","","","null","54","","","","","","","","","","","","","","","",""
"","ITI","","html-keyboard-response","360","481246","0.0-1.0-495.0","0","0","42744","","null","","","null","54","","","","","","","","","","","","","","","NaN",""
"","S1","","html-keyboard-response","361","481498","0.0-1.0-497.0","0","0","42744","","null","","","null","55","","","","","","","","","","","","","","","",""
"","ISI","","html-keyboard-response","362","482500","0.0-1.0-498.0","0","0","42744","","null","","","null","55","NaN","","","","","","","","","","","","","","",""
"","S2","","html-keyboard-response","363","482752","0.0-1.0-499.0","0","0","42744","","null","","","null","55","","NaN","","","","","","","","","","","","","",""
"","response","","html-keyboard-response","364","483386","0.0-1.0-500.0-0.0","0","0","42744","","633","","","75","55","","","2","55","training","adjacent","ED","5","4","M.jpg","O.jpg","0","0","1","",""
"","feedback","","html-keyboard-response","365","484388","0.0-1.0-501.0-0.0","0","0","42744","","null","","","null","55","","","","","","","","","","","","","","","",""
"","ITI","","html-keyboard-response","366","485391","0.0-1.0-504.0","0","0","42744","","null","","","null","55","","","","","","","","","","","","","","","NaN",""
"","S1","","html-keyboard-response","367","485643","0.0-1.0-506.0","0","0","42744","","null","","","null","56","","","","","","","","","","","","","","","",""
"","ISI","","html-keyboard-response","368","486645","0.0-1.0-507.0","0","0","42744","","null","","","null","56","NaN","","","","","","","","","","","","","","",""
"","S2","","html-keyboard-response","369","486897","0.0-1.0-508.0","0","0","42744","","null","","","null","56","","NaN","","","","","","","","","","","","","",""
"","response","","html-keyboard-response","370","487476","0.0-1.0-509.0-0.0","0","0","42744","","578","","","68","56","","","2","56","training","adjacent","FG","6","7","N.jpg","L.jpg","1","1","1","",""
"","feedback","","html-keyboard-response","371","488486","0.0-1.0-510.0-0.0","0","0","42744","","null","","","null","56","","","","","","","","","","","","","","","",""
"","ITI","","html-keyboard-response","372","489489","0.0-1.0-513.0","0","0","42744","","null","","","null","56","","","","","","","","","","","","","","","NaN",""
"","S1","","html-keyboard-response","373","489742","0.0-1.0-515.0","0","0","42744","","null","","","null","57","","","","","","","","","","","","","","","",""
"","ISI","","html-keyboard-response","374","490744","0.0-1.0-516.0","0","0","42744","","null","","","null","57","NaN","","","","","","","","","","","","","","",""
"","S2","","html-keyboard-response","375","490996","0.0-1.0-517.0","0","0","42744","","null","","","null","57","","NaN","","","","","","","","","","","","","",""
"","response","","html-keyboard-response","376","491866","0.0-1.0-518.0-0.0","0","0","42744","","868","","","68","57","","","2","57","training","adjacent","ED","5","4","M.jpg","O.jpg","1","0","0","",""
"","feedback","","html-keyboard-response","377","492868","0.0-1.0-519.0-0.0","0","0","42744","","null","","","null","57","","","","","","","","","","","","","","","",""
"","time_out","","html-keyboard-response","378","494870","0.0-1.0-521.0-0.0","0","0","42744","","null","","","null","57","","","","","","","","","","","","","","","",""
"","ITI","","html-keyboard-response","379","495872","0.0-1.0-522.0","0","0","42744","","null","","","null","57","","","","","","","","","","","","","","","NaN",""
"","S1","","html-keyboard-response","380","496124","0.0-1.0-524.0","0","0","42744","","null","","","null","58","","","","","","","","","","","","","","","",""
"","ISI","","html-keyboard-response","381","497126","0.0-1.0-525.0","0","0","42744","","null","","","null","58","NaN","","","","","","","","","","","","","","",""
"","S2","","html-keyboard-response","382","497379","0.0-1.0-526.0","0","0","42744","","null","","","null","58","","NaN","","","","","","","","","","","","","",""
"","response","","html-keyboard-response","383","497903","0.0-1.0-527.0-0.0","0","0","42744","","523","","","75","58","","","2","58","training","adjacent","CB","3","2","P.jpg","Q.jpg","0","0","1","",""
"","feedback","","html-keyboard-response","384","498905","0.0-1.0-528.0-0.0","0","0","42744","","null","","","null","58","","","","","","","","","","","","","","","",""
"","ITI","","html-keyboard-response","385","499907","0.0-1.0-531.0","0","0","42744","","null","","","null","58","","","","","","","","","","","","","","","NaN",""
"","S1","","html-keyboard-response","386","500159","0.0-1.0-533.0","0","0","42744","","null","","","null","59","","","","","","","","","","","","","","","",""
"","ISI","","html-keyboard-response","387","501162","0.0-1.0-534.0","0","0","42744","","null","","","null","59","NaN","","","","","","","","","","","","","","",""
"","S2","","html-keyboard-response","388","501414","0.0-1.0-535.0","0","0","42744","","null","","","null","59","","NaN","","","","","","","","","","","","","",""
"","response","","html-keyboard-response","389","502046","0.0-1.0-536.0-0.0","0","0","42744","","630","","","75","59","","","2","59","training","adjacent","FE","6","5","N.jpg","M.jpg","0","0","1","",""
"","feedback","","html-keyboard-response","390","503048","0.0-1.0-537.0-0.0","0","0","42744","","null","","","null","59","","","","","","","","","","","","","","","",""
"","ITI","","html-keyboard-response","391","504050","0.0-1.0-540.0","0","0","42744","","null","","","null","59","","","","","","","","","","","","","","","NaN",""
"","S1","","html-keyboard-response","392","504302","0.0-1.0-542.0","0","0","42744","","null","","","null","60","","","","","","","","","","","","","","","",""
"","ISI","","html-keyboard-response","393","505304","0.0-1.0-543.0","0","0","42744","","null","","","null","60","NaN","","","","","","","","","","","","","","",""
"","S2","","html-keyboard-response","394","505556","0.0-1.0-544.0","0","0","42744","","null","","","null","60","","NaN","","","","","","","","","","","","","",""
"","response","","html-keyboard-response","395","506277","0.0-1.0-545.0-0.0","0","0","42744","","719","","","75","60","","","2","60","training","adjacent","DE","4","5","O.jpg","M.jpg","0","1","0","",""
"","feedback","","html-keyboard-response","396","507279","0.0-1.0-546.0-0.0","0","0","42744","","null","","","null","60","","","","","","","","","","","","","","","",""
"","time_out","","html-keyboard-response","397","509282","0.0-1.0-548.0-0.0","0","0","42744","","null","","","null","60","","","","","","","","","","","","","","","",""
"","ITI","","html-keyboard-response","398","510284","0.0-1.0-549.0","0","0","42744","","null","","","null","60","","","","","","","","","","","","","","","NaN",""
"","S1","","html-keyboard-response","399","510536","0.0-1.0-551.0","0","0","42744","","null","","","null","61","","","","","","","","","","","","","","","",""
"","ISI","","html-keyboard-response","400","511538","0.0-1.0-552.0","0","0","42744","","null","","","null","61","NaN","","","","","","","","","","","","","","",""
"","S2","","html-keyboard-response","401","511790","0.0-1.0-553.0","0","0","42744","","null","","","null","61","","NaN","","","","","","","","","","","","","",""
"","response","","html-keyboard-response","402","512637","0.0-1.0-554.0-0.0","0","0","42744","","847","","","68","61","","","2","61","training","adjacent","EF","5","6","M.jpg","N.jpg","1","1","1","",""
"","feedback","","html-keyboard-response","403","513640","0.0-1.0-555.0-0.0","0","0","42744","","null","","","null","61","","","","","","","","","","","","","","","",""
"","ITI","","html-keyboard-response","404","514642","0.0-1.0-558.0","0","0","42744","","null","","","null","61","","","","","","","","","","","","","","","NaN",""
"","S1","","html-keyboard-response","405","514894","0.0-1.0-560.0","0","0","42744","","null","","","null","62","","","","","","","","","","","","","","","",""
"","ISI","","html-keyboard-response","406","515897","0.0-1.0-561.0","0","0","42744","","null","","","null","62","NaN","","","","","","","","","","","","","","",""
"","S2","","html-keyboard-response","407","516149","0.0-1.0-562.0","0","0","42744","","null","","","null","62","","NaN","","","","","","","","","","","","","",""
"","response","","html-keyboard-response","408","516623","0.0-1.0-563.0-0.0","0","0","42744","","474","","","75","62","","","2","62","training","adjacent","CB","3","2","P.jpg","Q.jpg","0","0","1","",""
"","feedback","","html-keyboard-response","409","517626","0.0-1.0-564.0-0.0","0","0","42744","","null","","","null","62","","","","","","","","","","","","","","","",""
"","ITI","","html-keyboard-response","410","518627","0.0-1.0-567.0","0","0","42744","","null","","","null","62","","","","","","","","","","","","","","","NaN",""
"","S1","","html-keyboard-response","411","518879","0.0-1.0-569.0","0","0","42744","","null","","","null","63","","","","","","","","","","","","","","","",""
"","ISI","","html-keyboard-response","412","519881","0.0-1.0-570.0","0","0","42744","","null","","","null","63","NaN","","","","","","","","","","","","","","",""
"","S2","","html-keyboard-response","413","520133","0.0-1.0-571.0","0","0","42744","","null","","","null","63","","NaN","","","","","","","","","","","","","",""
"","response","","html-keyboard-response","414","520446","0.0-1.0-572.0-0.0","0","0","42744","","311","","","68","63","","","2","63","training","adjacent","CD","3","4","P.jpg","O.jpg","1","1","1","",""
"","feedback","","html-keyboard-response","415","521449","0.0-1.0-573.0-0.0","0","0","42744","","null","","","null","63","","","","","","","","","","","","","","","",""
"","ITI","","html-keyboard-response","416","522451","0.0-1.0-576.0","0","0","42744","","null","","","null","63","","","","","","","","","","","","","","","NaN",""
"","S1","","html-keyboard-response","417","522703","0.0-1.0-578.0","0","0","42744","","null","","","null","64","","","","","","","","","","","","","","","",""
"","ISI","","html-keyboard-response","418","523705","0.0-1.0-579.0","0","0","42744","","null","","","null","64","NaN","","","","","","","","","","","","","","",""
"","S2","","html-keyboard-response","419","523957","0.0-1.0-580.0","0","0","42744","","null","","","null","64","","NaN","","","","","","","","","","","","","",""
"","response","","html-keyboard-response","420","524214","0.0-1.0-581.0-0.0","0","0","42744","","257","","","68","64","","","2","64","training","adjacent","FE","6","5","N.jpg","M.jpg","1","0","0","",""
"","feedback","","html-keyboard-response","421","525216","0.0-1.0-582.0-0.0","0","0","42744","","null","","","null","64","","","","","","","","","","","","","","","",""
"","time_out","","html-keyboard-response","422","527218","0.0-1.0-584.0-0.0","0","0","42744","","null","","","null","64","","","","","","","","","","","","","","","",""
"","ITI","","html-keyboard-response","423","528221","0.0-1.0-585.0","0","0","42744","","null","","","null","64","","","","","","","","","","","","","","","NaN",""
"","S1","","html-keyboard-response","424","528473","0.0-1.0-587.0","0","0","42744","","null","","","null","65","","","","","","","","","","","","","","","",""
"","ISI","","html-keyboard-response","425","529489","0.0-1.0-588.0","0","0","42744","","null","","","null","65","NaN","","","","","","","","","","","","","","",""
"","S2","","html-keyboard-response","426","529742","0.0-1.0-589.0","0","0","42744","","null","","","null","65","","NaN","","","","","","","","","","","","","",""
"","response","","html-keyboard-response","427","530003","0.0-1.0-590.0-0.0","0","0","42744","","260","","","68","65","","","2","65","training","adjacent","CD","3","4","P.jpg","O.jpg","1","1","1","",""
"","feedback","","html-keyboard-response","428","531005","0.0-1.0-591.0-0.0","0","0","42744","","null","","","null","65","","","","","","","","","","","","","","","",""
"","ITI","","html-keyboard-response","429","532012","0.0-1.0-594.0","0","0","42744","","null","","","null","65","","","","","","","","","","","","","","","NaN",""
"","S1","","html-keyboard-response","430","532264","0.0-1.0-596.0","0","0","42744","","null","","","null","66","","","","","","","","","","","","","","","",""
"","ISI","","html-keyboard-response","431","533266","0.0-1.0-597.0","0","0","42744","","null","","","null","66","NaN","","","","","","","","","","","","","","",""
"","S2","","html-keyboard-response","432","533518","0.0-1.0-598.0","0","0","42744","","null","","","null","66","","NaN","","","","","","","","","","","","","",""
"","response","","html-keyboard-response","433","533945","0.0-1.0-599.0-0.0","0","0","42744","","426","","","75","66","","","2","66","training","adjacent","BA","2","1","Q.jpg","R.jpg","0","0","1","",""
"","feedback","","html-keyboard-response","434","534947","0.0-1.0-600.0-0.0","0","0","42744","","null","","","null","66","","","","","","","","","","","","","","","",""
"","ITI","","html-keyboard-response","435","535949","0.0-1.0-603.0","0","0","42744","","null","","","null","66","","","","","","","","","","","","","","","NaN",""
"","S1","","html-keyboard-response","436","536201","0.0-1.0-605.0","0","0","42744","","null","","","null","67","","","","","","","","","","","","","","","",""
"","ISI","","html-keyboard-response","437","537203","0.0-1.0-606.0","0","0","42744","","null","","","null","67","NaN","","","","","","","","","","","","","","",""
"","S2","","html-keyboard-response","438","537455","0.0-1.0-607.0","0","0","42744","","null","","","null","67","","NaN","","","","","","","","","","","","","",""
"","response","","html-keyboard-response","439","537972","0.0-1.0-608.0-0.0","0","0","42744","","515","","","75","67","","","2","67","training","adjacent","BC","2","3","Q.jpg","P.jpg","0","1","0","",""
"","feedback","","html-keyboard-response","440","538974","0.0-1.0-609.0-0.0","0","0","42744","","null","","","null","67","","","","","","","","","","","","","","","",""
"","time_out","","html-keyboard-response","441","540976","0.0-1.0-611.0-0.0","0","0","42744","","null","","","null","67","","","","","","","","","","","","","","","",""
"","ITI","","html-keyboard-response","442","541978","0.0-1.0-612.0","0","0","42744","","null","","","null","67","","","","","","","","","","","","","","","NaN",""
"","S1","","html-keyboard-response","443","542230","0.0-1.0-614.0","0","0","42744","","null","","","null","68","","","","","","","","","","","","","","","",""
"","ISI","","html-keyboard-response","444","543232","0.0-1.0-615.0","0","0","42744","","null","","","null","68","NaN","","","","","","","","","","","","","","",""
"","S2","","html-keyboard-response","445","543485","0.0-1.0-616.0","0","0","42744","","null","","","null","68","","NaN","","","","","","","","","","","","","",""
"","response","","html-keyboard-response","446","544491","0.0-1.0-617.0-0.0","0","0","42744","","1005","","","68","68","","","2","68","training","adjacent","DE","4","5","O.jpg","M.jpg","1","1","1","",""
"","feedback","","html-keyboard-response","447","545492","0.0-1.0-618.0-0.0","0","0","42744","","null","","","null","68","","","","","","","","","","","","","","","",""
"","ITI","","html-keyboard-response","448","546494","0.0-1.0-621.0","0","0","42744","","null","","","null","68","","","","","","","","","","","","","","","NaN",""
"","S1","","html-keyboard-response","449","546746","0.0-1.0-623.0","0","0","42744","","null","","","null","69","","","","","","","","","","","","","","","",""
"","ISI","","html-keyboard-response","450","547748","0.0-1.0-624.0","0","0","42744","","null","","","null","69","NaN","","","","","","","","","","","","","","",""
"","S2","","html-keyboard-response","451","548000","0.0-1.0-625.0","0","0","42744","","null","","","null","69","","NaN","","","","","","","","","","","","","",""
"","response","","html-keyboard-response","452","549374","0.0-1.0-626.0-0.0","0","0","42744","","1372","","","75","69","","","2","69","training","adjacent","CB","3","2","P.jpg","Q.jpg","0","0","1","",""
"","feedback","","html-keyboard-response","453","550377","0.0-1.0-627.0-0.0","0","0","42744","","null","","","null","69","","","","","","","","","","","","","","","",""
"","ITI","","html-keyboard-response","454","551379","0.0-1.0-630.0","0","0","42744","","null","","","null","69","","","","","","","","","","","","","","","NaN",""
"","S1","","html-keyboard-response","455","551632","0.0-1.0-632.0","0","0","42744","","null","","","null","70","","","","","","","","","","","","","","","",""
"","ISI","","html-keyboard-response","456","552634","0.0-1.0-633.0","0","0","42744","","null","","","null","70","NaN","","","","","","","","","","","","","","",""
"","S2","","html-keyboard-response","457","552886","0.0-1.0-634.0","0","0","42744","","null","","","null","70","","NaN","","","","","","","","","","","","","",""
"","response","","html-keyboard-response","458","553069","0.0-1.0-635.0-0.0","0","0","42744","","181","","","68","70","","","2","70","training","adjacent","DC","4","3","O.jpg","P.jpg","1","0","0","",""
"","feedback","","html-keyboard-response","459","554071","0.0-1.0-636.0-0.0","0","0","42744","","null","","","null","70","","","","","","","","","","","","","","","",""
"","time_out","","html-keyboard-response","460","556073","0.0-1.0-638.0-0.0","0","0","42744","","null","","","null","70","","","","","","","","","","","","","","","",""
"","ITI","","html-keyboard-response","461","557074","0.0-1.0-639.0","0","0","42744","","null","","","null","70","","","","","","","","","","","","","","","NaN",""
"","S1","","html-keyboard-response","462","557326","0.0-1.0-641.0","0","0","42744","","null","","","null","71","","","","","","","","","","","","","","","",""
"","ISI","","html-keyboard-response","463","558329","0.0-1.0-642.0","0","0","42744","","null","","","null","71","NaN","","","","","","","","","","","","","","",""
"","S2","","html-keyboard-response","464","558581","0.0-1.0-643.0","0","0","42744","","null","","","null","71","","NaN","","","","","","","","","","","","","",""
"","response","","html-keyboard-response","465","559366","0.0-1.0-644.0-0.0","0","0","42744","","784","","","68","71","","","2","71","training","adjacent","EF","5","6","M.jpg","N.jpg","1","1","1","",""
"","feedback","","html-keyboard-response","466","560368","0.0-1.0-645.0-0.0","0","0","42744","","null","","","null","71","","","","","","","","","","","","","","","",""
"","ITI","","html-keyboard-response","467","561370","0.0-1.0-648.0","0","0","42744","","null","","","null","71","","","","","","","","","","","","","","","NaN",""
"","S1","","html-keyboard-response","468","561622","0.0-1.0-650.0","0","0","42744","","null","","","null","72","","","","","","","","","","","","","","","",""
"","ISI","","html-keyboard-response","469","562625","0.0-1.0-651.0","0","0","42744","","null","","","null","72","NaN","","","","","","","","","","","","","","",""
"","S2","","html-keyboard-response","470","562876","0.0-1.0-652.0","0","0","42744","","null","","","null","72","","NaN","","","","","","","","","","","","","",""
"","response","","html-keyboard-response","471","563076","0.0-1.0-653.0-0.0","0","0","42744","","198","","","68","72","","","2","72","training","adjacent","CD","3","4","P.jpg","O.jpg","1","1","1","",""
"","feedback","","html-keyboard-response","472","564079","0.0-1.0-654.0-0.0","0","0","42744","","null","","","null","72","","","","","","","","","","","","","","","",""
"","ITI","","html-keyboard-response","473","565081","0.0-1.0-657.0","0","0","42744","","null","","","null","72","","","","","","","","","","","","","","","NaN",""
"","S1","","html-keyboard-response","474","565339","0.0-1.0-659.0","0","0","42744","","null","","","null","73","","","","","","","","","","","","","","","",""
"","ISI","","html-keyboard-response","475","566341","0.0-1.0-660.0","0","0","42744","","null","","","null","73","NaN","","","","","","","","","","","","","","",""
"","S2","","html-keyboard-response","476","566593","0.0-1.0-661.0","0","0","42744","","null","","","null","73","","NaN","","","","","","","","","","","","","",""
"","response","","html-keyboard-response","477","566756","0.0-1.0-662.0-0.0","0","0","42744","","161","","","68","73","","","2","73","training","adjacent","FG","6","7","N.jpg","L.jpg","1","1","1","",""
"","feedback","","html-keyboard-response","478","567757","0.0-1.0-663.0-0.0","0","0","42744","","null","","","null","73","","","","","","","","","","","","","","","",""
"","ITI","","html-keyboard-response","479","568759","0.0-1.0-666.0","0","0","42744","","null","","","null","73","","","","","","","","","","","","","","","NaN",""
"","S1","","html-keyboard-response","480","569011","0.0-1.0-668.0","0","0","42744","","null","","","null","74","","","","","","","","","","","","","","","",""
"","ISI","","html-keyboard-response","481","570014","0.0-1.0-669.0","0","0","42744","","null","","","null","74","NaN","","","","","","","","","","","","","","",""
"","S2","","html-keyboard-response","482","570266","0.0-1.0-670.0","0","0","42744","","null","","","null","74","","NaN","","","","","","","","","","","","","",""
"","response","","html-keyboard-response","483","571277","0.0-1.0-671.0-0.0","0","0","42744","","1009","","","68","74","","","2","74","training","adjacent","BC","2","3","Q.jpg","P.jpg","1","1","1","",""
"","feedback","","html-keyboard-response","484","572279","0.0-1.0-672.0-0.0","0","0","42744","","null","","","null","74","","","","","","","","","","","","","","","",""
"","ITI","","html-keyboard-response","485","573280","0.0-1.0-675.0","0","0","42744","","null","","","null","74","","","","","","","","","","","","","","","NaN",""
"","S1","","html-keyboard-response","486","573533","0.0-1.0-677.0","0","0","42744","","null","","","null","75","","","","","","","","","","","","","","","",""
"","ISI","","html-keyboard-response","487","574534","0.0-1.0-678.0","0","0","42744","","null","","","null","75","NaN","","","","","","","","","","","","","","",""
"","S2","","html-keyboard-response","488","574786","0.0-1.0-679.0","0","0","42744","","null","","","null","75","","NaN","","","","","","","","","","","","","",""
"","response","","html-keyboard-response","489","575230","0.0-1.0-680.0-0.0","0","0","42744","","443","","","68","75","","","2","75","training","adjacent","AB","1","2","R.jpg","Q.jpg","1","1","1","",""
"","feedback","","html-keyboard-response","490","576233","0.0-1.0-681.0-0.0","0","0","42744","","null","","","null","75","","","","","","","","","","","","","","","",""
"","ITI","","html-keyboard-response","491","577235","0.0-1.0-684.0","0","0","42744","","null","","","null","75","","","","","","","","","","","","","","","NaN",""
"","S1","","html-keyboard-response","492","577487","0.0-1.0-686.0","0","0","42744","","null","","","null","76","","","","","","","","","","","","","","","",""
"","ISI","","html-keyboard-response","493","578490","0.0-1.0-687.0","0","0","42744","","null","","","null","76","NaN","","","","","","","","","","","","","","",""
"","S2","","html-keyboard-response","494","578741","0.0-1.0-688.0","0","0","42744","","null","","","null","76","","NaN","","","","","","","","","","","","","",""
"","response","","html-keyboard-response","495","579042","0.0-1.0-689.0-0.0","0","0","42744","","300","","","68","76","","","2","76","training","adjacent","ED","5","4","M.jpg","O.jpg","1","0","0","",""
"","feedback","","html-keyboard-response","496","580044","0.0-1.0-690.0-0.0","0","0","42744","","null","","","null","76","","","","","","","","","","","","","","","",""
"","time_out","","html-keyboard-response","497","582046","0.0-1.0-692.0-0.0","0","0","42744","","null","","","null","76","","","","","","","","","","","","","","","",""
"","ITI","","html-keyboard-response","498","583048","0.0-1.0-693.0","0","0","42744","","null","","","null","76","","","","","","","","","","","","","","","NaN",""
"","S1","","html-keyboard-response","499","583300","0.0-1.0-695.0","0","0","42744","","null","","","null","77","","","","","","","","","","","","","","","",""
"","ISI","","html-keyboard-response","500","584302","0.0-1.0-696.0","0","0","42744","","null","","","null","77","NaN","","","","","","","","","","","","","","",""
"","S2","","html-keyboard-response","501","584555","0.0-1.0-697.0","0","0","42744","","null","","","null","77","","NaN","","","","","","","","","","","","","",""
"","response","","html-keyboard-response","502","584771","0.0-1.0-698.0-0.0","0","0","42744","","216","","","68","77","","","2","77","training","adjacent","DE","4","5","O.jpg","M.jpg","1","1","1","",""
"","feedback","","html-keyboard-response","503","585774","0.0-1.0-699.0-0.0","0","0","42744","","null","","","null","77","","","","","","","","","","","","","","","",""
"","ITI","","html-keyboard-response","504","586777","0.0-1.0-702.0","0","0","42744","","null","","","null","77","","","","","","","","","","","","","","","NaN",""
"","S1","","html-keyboard-response","505","587028","0.0-1.0-704.0","0","0","42744","","null","","","null","78","","","","","","","","","","","","","","","",""
"","ISI","","html-keyboard-response","506","588030","0.0-1.0-705.0","0","0","42744","","null","","","null","78","NaN","","","","","","","","","","","","","","",""
"","S2","","html-keyboard-response","507","588282","0.0-1.0-706.0","0","0","42744","","null","","","null","78","","NaN","","","","","","","","","","","","","",""
"","response","","html-keyboard-response","508","588846","0.0-1.0-707.0-0.0","0","0","42744","","562","","","75","78","","","2","78","training","adjacent","BA","2","1","Q.jpg","R.jpg","0","0","1","",""
"","feedback","","html-keyboard-response","509","589849","0.0-1.0-708.0-0.0","0","0","42744","","null","","","null","78","","","","","","","","","","","","","","","",""
"","ITI","","html-keyboard-response","510","590851","0.0-1.0-711.0","0","0","42744","","null","","","null","78","","","","","","","","","","","","","","","NaN",""
"","S1","","html-keyboard-response","511","591104","0.0-1.0-713.0","0","0","42744","","null","","","null","79","","","","","","","","","","","","","","","",""
"","ISI","","html-keyboard-response","512","592105","0.0-1.0-714.0","0","0","42744","","null","","","null","79","NaN","","","","","","","","","","","","","","",""
"","S2","","html-keyboard-response","513","592357","0.0-1.0-715.0","0","0","42744","","null","","","null","79","","NaN","","","","","","","","","","","","","",""
"","response","","html-keyboard-response","514","592931","0.0-1.0-716.0-0.0","0","0","42744","","573","","","75","79","","","2","79","training","adjacent","FE","6","5","N.jpg","M.jpg","0","0","1","",""
"","feedback","","html-keyboard-response","515","593934","0.0-1.0-717.0-0.0","0","0","42744","","null","","","null","79","","","","","","","","","","","","","","","",""
"","ITI","","html-keyboard-response","516","594936","0.0-1.0-720.0","0","0","42744","","null","","","null","79","","","","","","","","","","","","","","","NaN",""
"","S1","","html-keyboard-response","517","595187","0.0-1.0-722.0","0","0","42744","","null","","","null","80","","","","","","","","","","","","","","","",""
"","ISI","","html-keyboard-response","518","596190","0.0-1.0-723.0","0","0","42744","","null","","","null","80","NaN","","","","","","","","","","","","","","",""
"","S2","","html-keyboard-response","519","596443","0.0-1.0-724.0","0","0","42744","","null","","","null","80","","NaN","","","","","","","","","","","","","",""
"","response","","html-keyboard-response","520","597352","0.0-1.0-725.0-0.0","0","0","42744","","908","","","75","80","","","2","80","training","adjacent","AB","1","2","R.jpg","Q.jpg","0","1","0","",""
"","feedback","","html-keyboard-response","521","598354","0.0-1.0-726.0-0.0","0","0","42744","","null","","","null","80","","","","","","","","","","","","","","","",""
"","time_out","","html-keyboard-response","522","600356","0.0-1.0-728.0-0.0","0","0","42744","","null","","","null","80","","","","","","","","","","","","","","","",""
"","ITI","","html-keyboard-response","523","601359","0.0-1.0-729.0","0","0","42744","","null","","","null","80","","","","","","","","","","","","","","","NaN",""
"","S1","","html-keyboard-response","524","601612","0.0-1.0-731.0","0","0","42744","","null","","","null","81","","","","","","","","","","","","","","","",""
"","ISI","","html-keyboard-response","525","602614","0.0-1.0-732.0","0","0","42744","","null","","","null","81","NaN","","","","","","","","","","","","","","",""
"","S2","","html-keyboard-response","526","602866","0.0-1.0-733.0","0","0","42744","","null","","","null","81","","NaN","","","","","","","","","","","","","",""
"","response","","html-keyboard-response","527","603183","0.0-1.0-734.0-0.0","0","0","42744","","316","","","75","81","","","2","81","training","adjacent","DC","4","3","O.jpg","P.jpg","0","0","1","",""
"","feedback","","html-keyboard-response","528","604186","0.0-1.0-735.0-0.0","0","0","42744","","null","","","null","81","","","","","","","","","","","","","","","",""
"","ITI","","html-keyboard-response","529","605188","0.0-1.0-738.0","0","0","42744","","null","","","null","81","","","","","","","","","","","","","","","NaN",""
"","S1","","html-keyboard-response","530","605440","0.0-1.0-740.0","0","0","42744","","null","","","null","82","","","","","","","","","","","","","","","",""
"","ISI","","html-keyboard-response","531","606442","0.0-1.0-741.0","0","0","42744","","null","","","null","82","NaN","","","","","","","","","","","","","","",""
"","S2","","html-keyboard-response","532","606694","0.0-1.0-742.0","0","0","42744","","null","","","null","82","","NaN","","","","","","","","","","","","","",""
"","response","","html-keyboard-response","533","607289","0.0-1.0-743.0-0.0","0","0","42744","","594","","","75","82","","","2","82","training","adjacent","CB","3","2","P.jpg","Q.jpg","0","0","1","",""
"","feedback","","html-keyboard-response","534","608292","0.0-1.0-744.0-0.0","0","0","42744","","null","","","null","82","","","","","","","","","","","","","","","",""
"","ITI","","html-keyboard-response","535","609294","0.0-1.0-747.0","0","0","42744","","null","","","null","82","","","","","","","","","","","","","","","NaN",""
"","S1","","html-keyboard-response","536","609546","0.0-1.0-749.0","0","0","42744","","null","","","null","83","","","","","","","","","","","","","","","",""
"","ISI","","html-keyboard-response","537","610548","0.0-1.0-750.0","0","0","42744","","null","","","null","83","NaN","","","","","","","","","","","","","","",""
"","S2","","html-keyboard-response","538","610799","0.0-1.0-751.0","0","0","42744","","null","","","null","83","","NaN","","","","","","","","","","","","","",""
"","response","","html-keyboard-response","539","611477","0.0-1.0-752.0-0.0","0","0","42744","","677","","","75","83","","","2","83","training","adjacent","EF","5","6","M.jpg","N.jpg","0","1","0","",""
"","feedback","","html-keyboard-response","540","612479","0.0-1.0-753.0-0.0","0","0","42744","","null","","","null","83","","","","","","","","","","","","","","","",""
"","time_out","","html-keyboard-response","541","614482","0.0-1.0-755.0-0.0","0","0","42744","","null","","","null","83","","","","","","","","","","","","","","","",""
"","ITI","","html-keyboard-response","542","615484","0.0-1.0-756.0","0","0","42744","","null","","","null","83","","","","","","","","","","","","","","","NaN",""
"","S1","","html-keyboard-response","543","615737","0.0-1.0-758.0","0","0","42744","","null","","","null","84","","","","","","","","","","","","","","","",""
"","ISI","","html-keyboard-response","544","616739","0.0-1.0-759.0","0","0","42744","","null","","","null","84","NaN","","","","","","","","","","","","","","",""
"","S2","","html-keyboard-response","545","616991","0.0-1.0-760.0","0","0","42744","","null","","","null","84","","NaN","","","","","","","","","","","","","",""
"","response","","html-keyboard-response","546","617108","0.0-1.0-761.0-0.0","0","0","42744","","115","","","68","84","","","2","84","training","adjacent","CD","3","4","P.jpg","O.jpg","1","1","1","",""
"","feedback","","html-keyboard-response","547","618111","0.0-1.0-762.0-0.0","0","0","42744","","null","","","null","84","","","","","","","","","","","","","","","",""
"","ITI","","html-keyboard-response","548","619113","0.0-1.0-765.0","0","0","42744","","null","","","null","84","","","","","","","","","","","","","","","NaN",""
"","S1","","html-keyboard-response","549","619365","0.0-1.0-767.0","0","0","42744","","null","","","null","85","","","","","","","","","","","","","","","",""
"","ISI","","html-keyboard-response","550","620367","0.0-1.0-768.0","0","0","42744","","null","","","null","85","NaN","","","","","","","","","","","","","","",""
"","S2","","html-keyboard-response","551","620619","0.0-1.0-769.0","0","0","42744","","null","","","null","85","","NaN","","","","","","","","","","","","","",""
"","response","","html-keyboard-response","552","620965","0.0-1.0-770.0-0.0","0","0","42744","","344","","","68","85","","","2","85","training","adjacent","FG","6","7","N.jpg","L.jpg","1","1","1","",""
"","feedback","","html-keyboard-response","553","621968","0.0-1.0-771.0-0.0","0","0","42744","","null","","","null","85","","","","","","","","","","","","","","","",""
"","ITI","","html-keyboard-response","554","622970","0.0-1.0-774.0","0","0","42744","","null","","","null","85","","","","","","","","","","","","","","","NaN",""
"","S1","","html-keyboard-response","555","623233","0.0-1.0-776.0","0","0","42744","","null","","","null","86","","","","","","","","","","","","","","","",""
"","ISI","","html-keyboard-response","556","624235","0.0-1.0-777.0","0","0","42744","","null","","","null","86","NaN","","","","","","","","","","","","","","",""
"","S2","","html-keyboard-response","557","624488","0.0-1.0-778.0","0","0","42744","","null","","","null","86","","NaN","","","","","","","","","","","","","",""
"","response","","html-keyboard-response","558","625080","0.0-1.0-779.0-0.0","0","0","42744","","591","","","68","86","","","2","86","training","adjacent","BC","2","3","Q.jpg","P.jpg","1","1","1","",""
"","feedback","","html-keyboard-response","559","626082","0.0-1.0-780.0-0.0","0","0","42744","","null","","","null","86","","","","","","","","","","","","","","","",""
"","ITI","","html-keyboard-response","560","627084","0.0-1.0-783.0","0","0","42744","","null","","","null","86","","","","","","","","","","","","","","","NaN",""
"","S1","","html-keyboard-response","561","627337","0.0-1.0-785.0","0","0","42744","","null","","","null","87","","","","","","","","","","","","","","","",""
"","ISI","","html-keyboard-response","562","628339","0.0-1.0-786.0","0","0","42744","","null","","","null","87","NaN","","","","","","","","","","","","","","",""
"","S2","","html-keyboard-response","563","628592","0.0-1.0-787.0","0","0","42744","","null","","","null","87","","NaN","","","","","","","","","","","","","",""
"","response","","html-keyboard-response","564","628833","0.0-1.0-788.0-0.0","0","0","42744","","241","","","68","87","","","2","87","training","adjacent","GF","7","6","L.jpg","N.jpg","1","0","0","",""
"","feedback","","html-keyboard-response","565","629837","0.0-1.0-789.0-0.0","0","0","42744","","null","","","null","87","","","","","","","","","","","","","","","",""
"","time_out","","html-keyboard-response","566","631838","0.0-1.0-791.0-0.0","0","0","42744","","null","","","null","87","","","","","","","","","","","","","","","",""
"","ITI","","html-keyboard-response","567","632840","0.0-1.0-792.0","0","0","42744","","null","","","null","87","","","","","","","","","","","","","","","NaN",""
"","S1","","html-keyboard-response","568","633092","0.0-1.0-794.0","0","0","42744","","null","","","null","88","","","","","","","","","","","","","","","",""
"","ISI","","html-keyboard-response","569","634094","0.0-1.0-795.0","0","0","42744","","null","","","null","88","NaN","","","","","","","","","","","","","","",""
"","S2","","html-keyboard-response","570","634346","0.0-1.0-796.0","0","0","42744","","null","","","null","88","","NaN","","","","","","","","","","","","","",""
"","response","","html-keyboard-response","571","634843","0.0-1.0-797.0-0.0","0","0","42744","","496","","","75","88","","","2","88","training","adjacent","DE","4","5","O.jpg","M.jpg","0","1","0","",""
"","feedback","","html-keyboard-response","572","635845","0.0-1.0-798.0-0.0","0","0","42744","","null","","","null","88","","","","","","","","","","","","","","","",""
"","time_out","","html-keyboard-response","573","637848","0.0-1.0-800.0-0.0","0","0","42744","","null","","","null","88","","","","","","","","","","","","","","","",""
"","ITI","","html-keyboard-response","574","638850","0.0-1.0-801.0","0","0","42744","","null","","","null","88","","","","","","","","","","","","","","","NaN",""
"","S1","","html-keyboard-response","575","639101","0.0-1.0-803.0","0","0","42744","","null","","","null","89","","","","","","","","","","","","","","","",""
"","ISI","","html-keyboard-response","576","640103","0.0-1.0-804.0","0","0","42744","","null","","","null","89","NaN","","","","","","","","","","","","","","",""
"","S2","","html-keyboard-response","577","640355","0.0-1.0-805.0","0","0","42744","","null","","","null","89","","NaN","","","","","","","","","","","","","",""
"","response","","html-keyboard-response","578","640923","0.0-1.0-806.0-0.0","0","0","42744","","566","","","68","89","","","2","89","training","adjacent","AB","1","2","R.jpg","Q.jpg","1","1","1","",""
"","feedback","","html-keyboard-response","579","641926","0.0-1.0-807.0-0.0","0","0","42744","","null","","","null","89","","","","","","","","","","","","","","","",""
"","ITI","","html-keyboard-response","580","642928","0.0-1.0-810.0","0","0","42744","","null","","","null","89","","","","","","","","","","","","","","","NaN",""
