"success","ttype","start_time","trial_type","trial_index","time_elapsed","internal_node_id","warning","missed_checkup","PID","view_history","rt","responses","repeat_instructions","key_press","index","keypress_isi","keypress_S2","block","trial_num","phase","group_type","pair_type","S1_stim","S2_stim","S1_img","S2_img","S1_chosen","S1_higher","accuracy","keypress_iti","total_bonus_tally"
"true","full_screen","d04062023hr2357","fullscreen","0","8681","0.0-0.0","0","0","76187","","","","","","","","","","","","","","","","","","","","","",""
"","instructions","","instructions","1","34306","0.0-1.0-0.0-0.0","0","0","76187","[{""page_index"":0,""viewing_time"":5252},{""page_index"":1,""viewing_time"":13003},{""page_index"":2,""viewing_time"":5669},{""page_index"":3,""viewing_time"":1692}]","25618","","","","","","","","","","","","","","","","","","","",""
"","comprehension_check","","survey-multi-choice","2","49667","0.0-1.0-0.0-1.0","0","0","76187","","15338","{""Q0"":""True"",""Q1"":""K"",""Q2"":""Once the second image appears and while the screen 'MAKE A CHOICE' is shown"",""Q3"":""Green mark"",""Q4"":""either D or K""}","0","","","","","","","","","","","","","","","","","",""
"","start_exp","","html-keyboard-response","3","51435","0.0-1.0-1.0","0","0","76187","","1765","","","32","","","","","","","","","","","","","","","","",""
"","S1","","html-keyboard-response","4","51592","0.0-1.0-2.0","0","0","76187","","null","","","null","0","","","","","","","","","","","","","","","",""
"","ISI","","html-keyboard-response","5","53596","0.0-1.0-3.0","0","0","76187","","null","","","null","0","NaN","","","","","","","","","","","","","","",""
"","S2","","html-keyboard-response","6","53750","0.0-1.0-4.0","0","0","76187","","null","","","null","0","","NaN","","","","","","","","","","","","","",""
"","response","","html-keyboard-response","7","55607","0.0-1.0-5.0-0.0","0","0","76187","","null","","","null","0","","","1","0","training","adjacent","FG","6","7","L.jpg","Q.jpg","NaN","1","0","",""
"","too_slow_prompt","","html-keyboard-response","8","56613","0.0-1.0-7.0-0.0","1","0","76187","","null","","","null","","","","","","","","","","","","","","","","",""
"","time_out","","html-keyboard-response","9","58617","0.0-1.0-8.0-0.0","0","0","76187","","null","","","null","0","","","","","","","","","","","","","","","",""
"","ITI","","html-keyboard-response","10","59620","0.0-1.0-9.0","0","0","76187","","891","","","75","0","","","","","","","","","","","","","","","k",""
"","S1","","html-keyboard-response","11","59775","0.0-1.0-11.0","0","0","76187","","null","","","null","1","","","","","","","","","","","","","","","",""
"","ISI","","html-keyboard-response","12","61779","0.0-1.0-12.0","0","0","76187","","1546","","","68","1","d","","","","","","","","","","","","","","",""
"","S2","","html-keyboard-response","13","61934","0.0-1.0-13.0","0","0","76187","","null","","","null","1","","NaN","","","","","","","","","","","","","",""
"","response","","html-keyboard-response","14","63787","0.0-1.0-14.0-0.0","0","0","76187","","null","","","null","1","","","1","1","training","adjacent","DE","4","5","M.jpg","P.jpg","NaN","1","0","",""
"","too_slow_prompt","","html-keyboard-response","15","64792","0.0-1.0-16.0-0.0","1","0","76187","","null","","","null","","","","","","","","","","","","","","","","",""
"","time_out","","html-keyboard-response","16","66798","0.0-1.0-17.0-0.0","0","0","76187","","null","","","null","1","","","","","","","","","","","","","","","",""
"","ITI","","html-keyboard-response","17","67802","0.0-1.0-18.0","0","0","76187","","660","","","75","1","","","","","","","","","","","","","","","k",""
"","S1","","html-keyboard-response","18","67955","0.0-1.0-20.0","0","0","76187","","null","","","null","2","","","","","","","","","","","","","","","",""
"","ISI","","html-keyboard-response","19","69958","0.0-1.0-21.0","0","0","76187","","1631","","","75","2","k","","","","","","","","","","","","","","",""
"","S2","","html-keyboard-response","20","70112","0.0-1.0-22.0","0","0","76187","","null","","","null","2","","NaN","","","","","","","","","","","","","",""
"","response","","html-keyboard-response","21","71876","0.0-1.0-23.0-0.0","0","0","76187","","1761","","","75","2","","","1","2","training","adjacent","FE","6","5","L.jpg","P.jpg","1","0","0","",""
"","feedback","","html-keyboard-response","22","72881","0.0-1.0-24.0-0.0","0","0","76187","","null","","","null","2","","","","","","","","","","","","","","","",""
"","time_out","","html-keyboard-response","23","74885","0.0-1.0-26.0-0.0","0","0","76187","","null","","","null","2","","","","","","","","","","","","","","","",""
"","ITI","","html-keyboard-response","24","75890","0.0-1.0-27.0","0","0","76187","","null","","","null","2","","","","","","","","","","","","","","","NaN",""
"","S1","","html-keyboard-response","25","76046","0.0-1.0-29.0","0","0","76187","","null","","","null","3","","","","","","","","","","","","","","","",""
"","ISI","","html-keyboard-response","26","78049","0.0-1.0-30.0","0","0","76187","","null","","","null","3","NaN","","","","","","","","","","","","","","",""
"","S2","","html-keyboard-response","27","78202","0.0-1.0-31.0","0","0","76187","","null","","","null","3","","NaN","","","","","","","","","","","","","",""
"","response","","html-keyboard-response","28","79844","0.0-1.0-32.0-0.0","0","0","76187","","1639","","","75","3","","","1","3","training","adjacent","CB","3","2","R.jpg","N.jpg","1","0","0","",""
"","feedback","","html-keyboard-response","29","80847","0.0-1.0-33.0-0.0","0","0","76187","","null","","","null","3","","","","","","","","","","","","","","","",""
"","time_out","","html-keyboard-response","30","82850","0.0-1.0-35.0-0.0","0","0","76187","","null","","","null","3","","","","","","","","","","","","","","","",""
"","ITI","","html-keyboard-response","31","83853","0.0-1.0-36.0","0","0","76187","","null","","","null","3","","","","","","","","","","","","","","","NaN",""
"","S1","","html-keyboard-response","32","84008","0.0-1.0-38.0","0","0","76187","","null","","","null","4","","","","","","","","","","","","","","","",""
"","ISI","","html-keyboard-response","33","86013","0.0-1.0-39.0","0","0","76187","","null","","","null","4","NaN","","","","","","","","","","","","","","",""
"","S2","","html-keyboard-response","34","86170","0.0-1.0-40.0","0","0","76187","","null","","","null","4","","NaN","","","","","","","","","","","","","",""
"","response","","html-keyboard-response","35","87212","0.0-1.0-41.0-0.0","0","0","76187","","1038","","","68","4","","","1","4","training","adjacent","BC","2","3","N.jpg","R.jpg","0","1","0","",""
"","feedback","","html-keyboard-response","36","88216","0.0-1.0-42.0-0.0","0","0","76187","","null","","","null","4","","","","","","","","","","","","","","","",""
"","time_out","","html-keyboard-response","37","90218","0.0-1.0-44.0-0.0","0","0","76187","","null","","","null","4","","","","","","","","","","","","","","","",""
"","ITI","","html-keyboard-response","38","91226","0.0-1.0-45.0","0","0","76187","","null","","","null","4","","","","","","","","","","","","","","","NaN",""
"","S1","","html-keyboard-response","39","91381","0.0-1.0-47.0","0","0","76187","","null","","","null","5","","","","","","","","","","","","","","","",""
"","ISI","","html-keyboard-response","40","93388","0.0-1.0-48.0","0","0","76187","","null","","","null","5","NaN","","","","","","","","","","","","","","",""
"","S2","","html-keyboard-response","41","93543","0.0-1.0-49.0","0","0","76187","","null","","","null","5","","NaN","","","","","","","","","","","","","",""
"","response","","html-keyboard-response","42","94932","0.0-1.0-50.0-0.0","0","0","76187","","1386","","","68","5","","","1","5","training","adjacent","GF","7","6","Q.jpg","L.jpg","0","0","1","",""
"","feedback","","html-keyboard-response","43","95936","0.0-1.0-51.0-0.0","0","0","76187","","null","","","null","5","","","","","","","","","","","","","","","",""
"","ITI","","html-keyboard-response","44","96938","0.0-1.0-54.0","0","0","76187","","null","","","null","5","","","","","","","","","","","","","","","NaN",""
"","S1","","html-keyboard-response","45","97092","0.0-1.0-56.0","0","0","76187","","null","","","null","6","","","","","","","","","","","","","","","",""
"","ISI","","html-keyboard-response","46","99097","0.0-1.0-57.0","0","0","76187","","null","","","null","6","NaN","","","","","","","","","","","","","","",""
"","S2","","html-keyboard-response","47","99252","0.0-1.0-58.0","0","0","76187","","null","","","null","6","","NaN","","","","","","","","","","","","","",""
"","response","","html-keyboard-response","48","101011","0.0-1.0-59.0-0.0","0","0","76187","","1758","","","68","6","","","1","6","training","adjacent","CD","3","4","R.jpg","M.jpg","0","1","0","",""
"","feedback","","html-keyboard-response","49","102014","0.0-1.0-60.0-0.0","0","0","76187","","null","","","null","6","","","","","","","","","","","","","","","",""
"","time_out","","html-keyboard-response","50","104019","0.0-1.0-62.0-0.0","0","0","76187","","null","","","null","6","","","","","","","","","","","","","","","",""
"","ITI","","html-keyboard-response","51","105022","0.0-1.0-63.0","0","0","76187","","null","","","null","6","","","","","","","","","","","","","","","NaN",""
"","S1","","html-keyboard-response","52","105174","0.0-1.0-65.0","0","0","76187","","null","","","null","7","","","","","","","","","","","","","","","",""
"","ISI","","html-keyboard-response","53","107181","0.0-1.0-66.0","0","0","76187","","null","","","null","7","NaN","","","","","","","","","","","","","","",""
"","S2","","html-keyboard-response","54","107338","0.0-1.0-67.0","0","0","76187","","null","","","null","7","","NaN","","","","","","","","","","","","","",""
"","response","","html-keyboard-response","55","108820","0.0-1.0-68.0-0.0","0","0","76187","","1477","","","75","7","","","1","7","training","adjacent","BC","2","3","N.jpg","R.jpg","1","1","1","",""
"","feedback","","html-keyboard-response","56","109823","0.0-1.0-69.0-0.0","0","0","76187","","null","","","null","7","","","","","","","","","","","","","","","",""
"","ITI","","html-keyboard-response","57","110830","0.0-1.0-72.0","0","0","76187","","null","","","null","7","","","","","","","","","","","","","","","NaN",""
"","S1","","html-keyboard-response","58","110986","0.0-1.0-74.0","0","0","76187","","null","","","null","8","","","","","","","","","","","","","","","",""
"","ISI","","html-keyboard-response","59","112990","0.0-1.0-75.0","0","0","76187","","null","","","null","8","NaN","","","","","","","","","","","","","","",""
"","S2","","html-keyboard-response","60","113144","0.0-1.0-76.0","0","0","76187","","null","","","null","8","","NaN","","","","","","","","","","","","","",""
"","response","","html-keyboard-response","61","114083","0.0-1.0-77.0-0.0","0","0","76187","","937","","","75","8","","","1","8","training","adjacent","FG","6","7","L.jpg","Q.jpg","1","1","1","",""
"","feedback","","html-keyboard-response","62","115087","0.0-1.0-78.0-0.0","0","0","76187","","null","","","null","8","","","","","","","","","","","","","","","",""
"","ITI","","html-keyboard-response","63","116089","0.0-1.0-81.0","0","0","76187","","null","","","null","8","","","","","","","","","","","","","","","NaN",""
"","S1","","html-keyboard-response","64","116243","0.0-1.0-83.0","0","0","76187","","null","","","null","9","","","","","","","","","","","","","","","",""
"","ISI","","html-keyboard-response","65","118245","0.0-1.0-84.0","0","0","76187","","null","","","null","9","NaN","","","","","","","","","","","","","","",""
"","S2","","html-keyboard-response","66","118401","0.0-1.0-85.0","0","0","76187","","null","","","null","9","","NaN","","","","","","","","","","","","","",""
"","response","","html-keyboard-response","67","119220","0.0-1.0-86.0-0.0","0","0","76187","","815","","","75","9","","","1","9","training","adjacent","BA","2","1","N.jpg","O.jpg","1","0","0","",""
"","feedback","","html-keyboard-response","68","120225","0.0-1.0-87.0-0.0","0","0","76187","","null","","","null","9","","","","","","","","","","","","","","","",""
"","time_out","","html-keyboard-response","69","122227","0.0-1.0-89.0-0.0","0","0","76187","","null","","","null","9","","","","","","","","","","","","","","","",""
"","ITI","","html-keyboard-response","70","123231","0.0-1.0-90.0","0","0","76187","","null","","","null","9","","","","","","","","","","","","","","","NaN",""
"","S1","","html-keyboard-response","71","123384","0.0-1.0-92.0","0","0","76187","","null","","","null","10","","","","","","","","","","","","","","","",""
"","ISI","","html-keyboard-response","72","125398","0.0-1.0-93.0","0","0","76187","","null","","","null","10","NaN","","","","","","","","","","","","","","",""
"","S2","","html-keyboard-response","73","125554","0.0-1.0-94.0","0","0","76187","","null","","","null","10","","NaN","","","","","","","","","","","","","",""
"","response","","html-keyboard-response","74","126739","0.0-1.0-95.0-0.0","0","0","76187","","1181","","","68","10","","","1","10","training","adjacent","AB","1","2","O.jpg","N.jpg","0","1","0","",""
"","feedback","","html-keyboard-response","75","127745","0.0-1.0-96.0-0.0","0","0","76187","","null","","","null","10","","","","","","","","","","","","","","","",""
"","time_out","","html-keyboard-response","76","129748","0.0-1.0-98.0-0.0","0","0","76187","","null","","","null","10","","","","","","","","","","","","","","","",""
"","ITI","","html-keyboard-response","77","130753","0.0-1.0-99.0","0","0","76187","","null","","","null","10","","","","","","","","","","","","","","","NaN",""
"","S1","","html-keyboard-response","78","130907","0.0-1.0-101.0","0","0","76187","","null","","","null","11","","","","","","","","","","","","","","","",""
"","ISI","","html-keyboard-response","79","132912","0.0-1.0-102.0","0","0","76187","","null","","","null","11","NaN","","","","","","","","","","","","","","",""
"","S2","","html-keyboard-response","80","133067","0.0-1.0-103.0","0","0","76187","","null","","","null","11","","NaN","","","","","","","","","","","","","",""
"","response","","html-keyboard-response","81","133888","0.0-1.0-104.0-0.0","0","0","76187","","815","","","75","11","","","1","11","training","adjacent","CB","3","2","R.jpg","N.jpg","1","0","0","",""
"","feedback","","html-keyboard-response","82","134892","0.0-1.0-105.0-0.0","0","0","76187","","null","","","null","11","","","","","","","","","","","","","","","",""
"","time_out","","html-keyboard-response","83","136897","0.0-1.0-107.0-0.0","0","0","76187","","null","","","null","11","","","","","","","","","","","","","","","",""
"","ITI","","html-keyboard-response","84","137904","0.0-1.0-108.0","0","0","76187","","null","","","null","11","","","","","","","","","","","","","","","NaN",""
"","S1","","html-keyboard-response","85","138064","0.0-1.0-110.0","0","0","76187","","null","","","null","12","","","","","","","","","","","","","","","",""
"","ISI","","html-keyboard-response","86","140068","0.0-1.0-111.0","0","0","76187","","null","","","null","12","NaN","","","","","","","","","","","","","","",""
"","S2","","html-keyboard-response","87","140222","0.0-1.0-112.0","0","0","76187","","null","","","null","12","","NaN","","","","","","","","","","","","","",""
"","response","","html-keyboard-response","88","141644","0.0-1.0-113.0-0.0","0","0","76187","","1419","","","68","12","","","1","12","training","adjacent","EF","5","6","P.jpg","L.jpg","0","1","0","",""
"","feedback","","html-keyboard-response","89","142651","0.0-1.0-114.0-0.0","0","0","76187","","null","","","null","12","","","","","","","","","","","","","","","",""
"","time_out","","html-keyboard-response","90","144657","0.0-1.0-116.0-0.0","0","0","76187","","null","","","null","12","","","","","","","","","","","","","","","",""
"","ITI","","html-keyboard-response","91","145662","0.0-1.0-117.0","0","0","76187","","null","","","null","12","","","","","","","","","","","","","","","NaN",""
"","S1","","html-keyboard-response","92","145815","0.0-1.0-119.0","0","0","76187","","null","","","null","13","","","","","","","","","","","","","","","",""
"","ISI","","html-keyboard-response","93","147817","0.0-1.0-120.0","0","0","76187","","null","","","null","13","NaN","","","","","","","","","","","","","","",""
"","S2","","html-keyboard-response","94","147971","0.0-1.0-121.0","0","0","76187","","null","","","null","13","","NaN","","","","","","","","","","","","","",""
"","response","","html-keyboard-response","95","149155","0.0-1.0-122.0-0.0","0","0","76187","","1181","","","75","13","","","1","13","training","adjacent","CD","3","4","R.jpg","M.jpg","1","1","1","",""
"","feedback","","html-keyboard-response","96","150158","0.0-1.0-123.0-0.0","0","0","76187","","null","","","null","13","","","","","","","","","","","","","","","",""
"","ITI","","html-keyboard-response","97","151161","0.0-1.0-126.0","0","0","76187","","null","","","null","13","","","","","","","","","","","","","","","NaN",""
"","S1","","html-keyboard-response","98","151318","0.0-1.0-128.0","0","0","76187","","null","","","null","14","","","","","","","","","","","","","","","",""
"","ISI","","html-keyboard-response","99","153323","0.0-1.0-129.0","0","0","76187","","null","","","null","14","NaN","","","","","","","","","","","","","","",""
"","S2","","html-keyboard-response","100","153476","0.0-1.0-130.0","0","0","76187","","null","","","null","14","","NaN","","","","","","","","","","","","","",""
"","response","","html-keyboard-response","101","155075","0.0-1.0-131.0-0.0","0","0","76187","","1597","","","75","14","","","1","14","training","adjacent","ED","5","4","P.jpg","M.jpg","1","0","0","",""
"","feedback","","html-keyboard-response","102","156080","0.0-1.0-132.0-0.0","0","0","76187","","null","","","null","14","","","","","","","","","","","","","","","",""
"","time_out","","html-keyboard-response","103","158083","0.0-1.0-134.0-0.0","0","0","76187","","null","","","null","14","","","","","","","","","","","","","","","",""
"","ITI","","html-keyboard-response","104","159086","0.0-1.0-135.0","0","0","76187","","null","","","null","14","","","","","","","","","","","","","","","NaN",""
"","S1","","html-keyboard-response","105","159240","0.0-1.0-137.0","0","0","76187","","null","","","null","15","","","","","","","","","","","","","","","",""
"","ISI","","html-keyboard-response","106","161243","0.0-1.0-138.0","0","0","76187","","null","","","null","15","NaN","","","","","","","","","","","","","","",""
"","S2","","html-keyboard-response","107","161398","0.0-1.0-139.0","0","0","76187","","null","","","null","15","","NaN","","","","","","","","","","","","","",""
"","response","","html-keyboard-response","108","162932","0.0-1.0-140.0-0.0","0","0","76187","","1531","","","68","15","","","1","15","training","adjacent","DE","4","5","M.jpg","P.jpg","0","1","0","",""
"","feedback","","html-keyboard-response","109","163938","0.0-1.0-141.0-0.0","0","0","76187","","null","","","null","15","","","","","","","","","","","","","","","",""
"","time_out","","html-keyboard-response","110","165942","0.0-1.0-143.0-0.0","0","0","76187","","null","","","null","15","","","","","","","","","","","","","","","",""
"","ITI","","html-keyboard-response","111","166945","0.0-1.0-144.0","0","0","76187","","null","","","null","15","","","","","","","","","","","","","","","NaN",""
"","S1","","html-keyboard-response","112","167098","0.0-1.0-146.0","0","0","76187","","null","","","null","16","","","","","","","","","","","","","","","",""
"","ISI","","html-keyboard-response","113","169104","0.0-1.0-147.0","0","0","76187","","null","","","null","16","NaN","","","","","","","","","","","","","","",""
"","S2","","html-keyboard-response","114","169263","0.0-1.0-148.0","0","0","76187","","null","","","null","16","","NaN","","","","","","","","","","","","","",""
"","response","","html-keyboard-response","115","169827","0.0-1.0-149.0-0.0","0","0","76187","","561","","","68","16","","","1","16","training","adjacent","GF","7","6","Q.jpg","L.jpg","0","0","1","",""
"","feedback","","html-keyboard-response","116","170831","0.0-1.0-150.0-0.0","0","0","76187","","null","","","null","16","","","","","","","","","","","","","","","",""
"","ITI","","html-keyboard-response","117","171836","0.0-1.0-153.0","0","0","76187","","null","","","null","16","","","","","","","","","","","","","","","NaN",""
"","S1","","html-keyboard-response","118","171995","0.0-1.0-155.0","0","0","76187","","null","","","null","17","","","","","","","","","","","","","","","",""
"","ISI","","html-keyboard-response","119","174000","0.0-1.0-156.0","0","0","76187","","null","","","null","17","NaN","","","","","","","","","","","","","","",""
"","S2","","html-keyboard-response","120","174153","0.0-1.0-157.0","0","0","76187","","null","","","null","17","","NaN","","","","","","","","","","","","","",""
"","response","","html-keyboard-response","121","174907","0.0-1.0-158.0-0.0","0","0","76187","","751","","","75","17","","","1","17","training","adjacent","DE","4","5","M.jpg","P.jpg","1","1","1","",""
"","feedback","","html-keyboard-response","122","175930","0.0-1.0-159.0-0.0","0","0","76187","","null","","","null","17","","","","","","","","","","","","","","","",""
"","ITI","","html-keyboard-response","123","176935","0.0-1.0-162.0","0","0","76187","","null","","","null","17","","","","","","","","","","","","","","","NaN",""
"","S1","","html-keyboard-response","124","177088","0.0-1.0-164.0","0","0","76187","","null","","","null","18","","","","","","","","","","","","","","","",""
"","ISI","","html-keyboard-response","125","179092","0.0-1.0-165.0","0","0","76187","","null","","","null","18","NaN","","","","","","","","","","","","","","",""
"","S2","","html-keyboard-response","126","179251","0.0-1.0-166.0","0","0","76187","","null","","","null","18","","NaN","","","","","","","","","","","","","",""
"","response","","html-keyboard-response","127","180430","0.0-1.0-167.0-0.0","0","0","76187","","1173","","","75","18","","","1","18","training","adjacent","BC","2","3","N.jpg","R.jpg","1","1","1","",""
"","feedback","","html-keyboard-response","128","181439","0.0-1.0-168.0-0.0","0","0","76187","","null","","","null","18","","","","","","","","","","","","","","","",""
"","ITI","","html-keyboard-response","129","182444","0.0-1.0-171.0","0","0","76187","","null","","","null","18","","","","","","","","","","","","","","","NaN",""
"","S1","","html-keyboard-response","130","182597","0.0-1.0-173.0","0","0","76187","","null","","","null","19","","","","","","","","","","","","","","","",""
"","ISI","","html-keyboard-response","131","184602","0.0-1.0-174.0","0","0","76187","","null","","","null","19","NaN","","","","","","","","","","","","","","",""
"","S2","","html-keyboard-response","132","184756","0.0-1.0-175.0","0","0","76187","","null","","","null","19","","NaN","","","","","","","","","","","","","",""
"","response","","html-keyboard-response","133","185867","0.0-1.0-176.0-0.0","0","0","76187","","1108","","","68","19","","","1","19","training","adjacent","CD","3","4","R.jpg","M.jpg","0","1","0","",""
"","feedback","","html-keyboard-response","134","186880","0.0-1.0-177.0-0.0","0","0","76187","","null","","","null","19","","","","","","","","","","","","","","","",""
"","time_out","","html-keyboard-response","135","188884","0.0-1.0-179.0-0.0","0","0","76187","","null","","","null","19","","","","","","","","","","","","","","","",""
"","ITI","","html-keyboard-response","136","189887","0.0-1.0-180.0","0","0","76187","","null","","","null","19","","","","","","","","","","","","","","","NaN",""
"","S1","","html-keyboard-response","137","190040","0.0-1.0-182.0","0","0","76187","","null","","","null","20","","","","","","","","","","","","","","","",""
"","ISI","","html-keyboard-response","138","192045","0.0-1.0-183.0","0","0","76187","","null","","","null","20","NaN","","","","","","","","","","","","","","",""
"","S2","","html-keyboard-response","139","192202","0.0-1.0-184.0","0","0","76187","","null","","","null","20","","NaN","","","","","","","","","","","","","",""
"","response","","html-keyboard-response","140","193000","0.0-1.0-185.0-0.0","0","0","76187","","790","","","75","20","","","1","20","training","adjacent","FE","6","5","L.jpg","P.jpg","1","0","0","",""
"","feedback","","html-keyboard-response","141","194005","0.0-1.0-186.0-0.0","0","0","76187","","null","","","null","20","","","","","","","","","","","","","","","",""
"","time_out","","html-keyboard-response","142","196011","0.0-1.0-188.0-0.0","0","0","76187","","null","","","null","20","","","","","","","","","","","","","","","",""
"","ITI","","html-keyboard-response","143","197016","0.0-1.0-189.0","0","0","76187","","null","","","null","20","","","","","","","","","","","","","","","NaN",""
"","S1","","html-keyboard-response","144","197169","0.0-1.0-191.0","0","0","76187","","null","","","null","21","","","","","","","","","","","","","","","",""
"","ISI","","html-keyboard-response","145","199172","0.0-1.0-192.0","0","0","76187","","null","","","null","21","NaN","","","","","","","","","","","","","","",""
"","S2","","html-keyboard-response","146","199326","0.0-1.0-193.0","0","0","76187","","null","","","null","21","","NaN","","","","","","","","","","","","","",""
"","response","","html-keyboard-response","147","200478","0.0-1.0-194.0-0.0","0","0","76187","","1148","","","68","21","","","1","21","training","adjacent","CB","3","2","R.jpg","N.jpg","0","0","1","",""
"","feedback","","html-keyboard-response","148","201490","0.0-1.0-195.0-0.0","0","0","76187","","null","","","null","21","","","","","","","","","","","","","","","",""
"","ITI","","html-keyboard-response","149","202497","0.0-1.0-198.0","0","0","76187","","null","","","null","21","","","","","","","","","","","","","","","NaN",""
"","S1","","html-keyboard-response","150","202654","0.0-1.0-200.0","0","0","76187","","null","","","null","22","","","","","","","","","","","","","","","",""
"","ISI","","html-keyboard-response","151","204658","0.0-1.0-201.0","0","0","76187","","null","","","null","22","NaN","","","","","","","","","","","","","","",""
"","S2","","html-keyboard-response","152","204812","0.0-1.0-202.0","0","0","76187","","null","","","null","22","","NaN","","","","","","","","","","","","","",""
"","response","","html-keyboard-response","153","205532","0.0-1.0-203.0-0.0","0","0","76187","","717","","","68","22","","","1","22","training","adjacent","CB","3","2","R.jpg","N.jpg","0","0","1","",""
"","feedback","","html-keyboard-response","154","206537","0.0-1.0-204.0-0.0","0","0","76187","","null","","","null","22","","","","","","","","","","","","","","","",""
"","ITI","","html-keyboard-response","155","207540","0.0-1.0-207.0","0","0","76187","","null","","","null","22","","","","","","","","","","","","","","","NaN",""
"","S1","","html-keyboard-response","156","207694","0.0-1.0-209.0","0","0","76187","","null","","","null","23","","","","","","","","","","","","","","","",""
"","ISI","","html-keyboard-response","157","209702","0.0-1.0-210.0","0","0","76187","","null","","","null","23","NaN","","","","","","","","","","","","","","",""
"","S2","","html-keyboard-response","158","209857","0.0-1.0-211.0","0","0","76187","","null","","","null","23","","NaN","","","","","","","","","","","","","",""
"","response","","html-keyboard-response","159","210572","0.0-1.0-212.0-0.0","0","0","76187","","711","","","68","23","","","1","23","training","adjacent","FG","6","7","L.jpg","Q.jpg","0","1","0","",""
"","feedback","","html-keyboard-response","160","211576","0.0-1.0-213.0-0.0","0","0","76187","","null","","","null","23","","","","","","","","","","","","","","","",""
"","time_out","","html-keyboard-response","161","213578","0.0-1.0-215.0-0.0","0","0","76187","","null","","","null","23","","","","","","","","","","","","","","","",""
"","ITI","","html-keyboard-response","162","214583","0.0-1.0-216.0","0","0","76187","","null","","","null","23","","","","","","","","","","","","","","","NaN",""
"","S1","","html-keyboard-response","163","214736","0.0-1.0-218.0","0","0","76187","","null","","","null","24","","","","","","","","","","","","","","","",""
"","ISI","","html-keyboard-response","164","216743","0.0-1.0-219.0","0","0","76187","","null","","","null","24","NaN","","","","","","","","","","","","","","",""
"","S2","","html-keyboard-response","165","216899","0.0-1.0-220.0","0","0","76187","","null","","","null","24","","NaN","","","","","","","","","","","","","",""
"","response","","html-keyboard-response","166","217482","0.0-1.0-221.0-0.0","0","0","76187","","578","","","68","24","","","1","24","training","adjacent","EF","5","6","P.jpg","L.jpg","0","1","0","",""
"","feedback","","html-keyboard-response","167","218486","0.0-1.0-222.0-0.0","0","0","76187","","null","","","null","24","","","","","","","","","","","","","","","",""
"","time_out","","html-keyboard-response","168","220490","0.0-1.0-224.0-0.0","0","0","76187","","null","","","null","24","","","","","","","","","","","","","","","",""
"","ITI","","html-keyboard-response","169","221492","0.0-1.0-225.0","0","0","76187","","null","","","null","24","","","","","","","","","","","","","","","NaN",""
"","S1","","html-keyboard-response","170","221645","0.0-1.0-227.0","0","0","76187","","null","","","null","25","","","","","","","","","","","","","","","",""
"","ISI","","html-keyboard-response","171","223649","0.0-1.0-228.0","0","0","76187","","null","","","null","25","NaN","","","","","","","","","","","","","","",""
"","S2","","html-keyboard-response","172","223803","0.0-1.0-229.0","0","0","76187","","null","","","null","25","","NaN","","","","","","","","","","","","","",""
"","response","","html-keyboard-response","173","224467","0.0-1.0-230.0-0.0","0","0","76187","","662","","","68","25","","","1","25","training","adjacent","ED","5","4","P.jpg","M.jpg","0","0","1","",""
"","feedback","","html-keyboard-response","174","225473","0.0-1.0-231.0-0.0","0","0","76187","","null","","","null","25","","","","","","","","","","","","","","","",""
"","ITI","","html-keyboard-response","175","226479","0.0-1.0-234.0","0","0","76187","","null","","","null","25","","","","","","","","","","","","","","","NaN",""
"","S1","","html-keyboard-response","176","226635","0.0-1.0-236.0","0","0","76187","","null","","","null","26","","","","","","","","","","","","","","","",""
"","ISI","","html-keyboard-response","177","228639","0.0-1.0-237.0","0","0","76187","","null","","","null","26","NaN","","","","","","","","","","","","","","",""
"","S2","","html-keyboard-response","178","228793","0.0-1.0-238.0","0","0","76187","","null","","","null","26","","NaN","","","","","","","","","","","","","",""
"","response","","html-keyboard-response","179","230163","0.0-1.0-239.0-0.0","0","0","76187","","1367","","","75","26","","","1","26","training","adjacent","DC","4","3","M.jpg","R.jpg","1","0","0","",""
"","feedback","","html-keyboard-response","180","231167","0.0-1.0-240.0-0.0","0","0","76187","","null","","","null","26","","","","","","","","","","","","","","","",""
"","time_out","","html-keyboard-response","181","233170","0.0-1.0-242.0-0.0","0","0","76187","","null","","","null","26","","","","","","","","","","","","","","","",""
"","ITI","","html-keyboard-response","182","234174","0.0-1.0-243.0","0","0","76187","","null","","","null","26","","","","","","","","","","","","","","","NaN",""
"","S1","","html-keyboard-response","183","234331","0.0-1.0-245.0","0","0","76187","","null","","","null","27","","","","","","","","","","","","","","","",""
"","ISI","","html-keyboard-response","184","236334","0.0-1.0-246.0","0","0","76187","","null","","","null","27","NaN","","","","","","","","","","","","","","",""
"","S2","","html-keyboard-response","185","236489","0.0-1.0-247.0","0","0","76187","","null","","","null","27","","NaN","","","","","","","","","","","","","",""
"","response","","html-keyboard-response","186","237321","0.0-1.0-248.0-0.0","0","0","76187","","827","","","75","27","","","1","27","training","adjacent","FE","6","5","L.jpg","P.jpg","1","0","0","",""
"","feedback","","html-keyboard-response","187","238325","0.0-1.0-249.0-0.0","0","0","76187","","null","","","null","27","","","","","","","","","","","","","","","",""
"","time_out","","html-keyboard-response","188","240327","0.0-1.0-251.0-0.0","0","0","76187","","null","","","null","27","","","","","","","","","","","","","","","",""
"","ITI","","html-keyboard-response","189","241332","0.0-1.0-252.0","0","0","76187","","null","","","null","27","","","","","","","","","","","","","","","NaN",""
"","S1","","html-keyboard-response","190","241488","0.0-1.0-254.0","0","0","76187","","null","","","null","28","","","","","","","","","","","","","","","",""
"","ISI","","html-keyboard-response","191","243504","0.0-1.0-255.0","0","0","76187","","null","","","null","28","NaN","","","","","","","","","","","","","","",""
"","S2","","html-keyboard-response","192","243658","0.0-1.0-256.0","0","0","76187","","null","","","null","28","","NaN","","","","","","","","","","","","","",""
"","response","","html-keyboard-response","193","244681","0.0-1.0-257.0-0.0","0","0","76187","","1016","","","75","28","","","1","28","training","adjacent","DC","4","3","M.jpg","R.jpg","1","0","0","",""
"","feedback","","html-keyboard-response","194","245686","0.0-1.0-258.0-0.0","0","0","76187","","null","","","null","28","","","","","","","","","","","","","","","",""
"","time_out","","html-keyboard-response","195","247689","0.0-1.0-260.0-0.0","0","0","76187","","null","","","null","28","","","","","","","","","","","","","","","",""
"","ITI","","html-keyboard-response","196","248695","0.0-1.0-261.0","0","0","76187","","null","","","null","28","","","","","","","","","","","","","","","NaN",""
"","S1","","html-keyboard-response","197","248848","0.0-1.0-263.0","0","0","76187","","null","","","null","29","","","","","","","","","","","","","","","",""
"","ISI","","html-keyboard-response","198","250853","0.0-1.0-264.0","0","0","76187","","null","","","null","29","NaN","","","","","","","","","","","","","","",""
"","S2","","html-keyboard-response","199","251008","0.0-1.0-265.0","0","0","76187","","null","","","null","29","","NaN","","","","","","","","","","","","","",""
"","response","","html-keyboard-response","200","251920","0.0-1.0-266.0-0.0","0","0","76187","","906","","","68","29","","","1","29","training","adjacent","AB","1","2","O.jpg","N.jpg","0","1","0","",""
"","feedback","","html-keyboard-response","201","252925","0.0-1.0-267.0-0.0","0","0","76187","","null","","","null","29","","","","","","","","","","","","","","","",""
"","time_out","","html-keyboard-response","202","254931","0.0-1.0-269.0-0.0","0","0","76187","","null","","","null","29","","","","","","","","","","","","","","","",""
"","ITI","","html-keyboard-response","203","255936","0.0-1.0-270.0","0","0","76187","","null","","","null","29","","","","","","","","","","","","","","","NaN",""
"","S1","","html-keyboard-response","204","256091","0.0-1.0-272.0","0","0","76187","","null","","","null","30","","","","","","","","","","","","","","","",""
"","ISI","","html-keyboard-response","205","258094","0.0-1.0-273.0","0","0","76187","","null","","","null","30","NaN","","","","","","","","","","","","","","",""
"","S2","","html-keyboard-response","206","258247","0.0-1.0-274.0","0","0","76187","","null","","","null","30","","NaN","","","","","","","","","","","","","",""
"","response","","html-keyboard-response","207","259308","0.0-1.0-275.0-0.0","0","0","76187","","1058","","","75","30","","","1","30","training","adjacent","BC","2","3","N.jpg","R.jpg","1","1","1","",""
"","feedback","","html-keyboard-response","208","260313","0.0-1.0-276.0-0.0","0","0","76187","","null","","","null","30","","","","","","","","","","","","","","","",""
"","ITI","","html-keyboard-response","209","261319","0.0-1.0-279.0","0","0","76187","","null","","","null","30","","","","","","","","","","","","","","","NaN",""
"","S1","","html-keyboard-response","210","261474","0.0-1.0-281.0","0","0","76187","","null","","","null","31","","","","","","","","","","","","","","","",""
"","ISI","","html-keyboard-response","211","263482","0.0-1.0-282.0","0","0","76187","","null","","","null","31","NaN","","","","","","","","","","","","","","",""
"","S2","","html-keyboard-response","212","263635","0.0-1.0-283.0","0","0","76187","","null","","","null","31","","NaN","","","","","","","","","","","","","",""
"","response","","html-keyboard-response","213","264540","0.0-1.0-284.0-0.0","0","0","76187","","902","","","75","31","","","1","31","training","adjacent","BA","2","1","N.jpg","O.jpg","1","0","0","",""
"","feedback","","html-keyboard-response","214","265544","0.0-1.0-285.0-0.0","0","0","76187","","null","","","null","31","","","","","","","","","","","","","","","",""
"","time_out","","html-keyboard-response","215","267548","0.0-1.0-287.0-0.0","0","0","76187","","null","","","null","31","","","","","","","","","","","","","","","",""
"","ITI","","html-keyboard-response","216","268550","0.0-1.0-288.0","0","0","76187","","null","","","null","31","","","","","","","","","","","","","","","NaN",""
"","S1","","html-keyboard-response","217","268704","0.0-1.0-290.0","0","0","76187","","null","","","null","32","","","","","","","","","","","","","","","",""
"","ISI","","html-keyboard-response","218","270709","0.0-1.0-291.0","0","0","76187","","null","","","null","32","NaN","","","","","","","","","","","","","","",""
"","S2","","html-keyboard-response","219","270866","0.0-1.0-292.0","0","0","76187","","null","","","null","32","","NaN","","","","","","","","","","","","","",""
"","response","","html-keyboard-response","220","271436","0.0-1.0-293.0-0.0","0","0","76187","","567","","","75","32","","","1","32","training","adjacent","FG","6","7","L.jpg","Q.jpg","1","1","1","",""
"","feedback","","html-keyboard-response","221","272441","0.0-1.0-294.0-0.0","0","0","76187","","null","","","null","32","","","","","","","","","","","","","","","",""
"","ITI","","html-keyboard-response","222","273446","0.0-1.0-297.0","0","0","76187","","null","","","null","32","","","","","","","","","","","","","","","NaN",""
"","S1","","html-keyboard-response","223","273599","0.0-1.0-299.0","0","0","76187","","null","","","null","33","","","","","","","","","","","","","","","",""
"","ISI","","html-keyboard-response","224","275603","0.0-1.0-300.0","0","0","76187","","null","","","null","33","NaN","","","","","","","","","","","","","","",""
"","S2","","html-keyboard-response","225","275757","0.0-1.0-301.0","0","0","76187","","null","","","null","33","","NaN","","","","","","","","","","","","","",""
"","response","","html-keyboard-response","226","276797","0.0-1.0-302.0-0.0","0","0","76187","","1037","","","68","33","","","1","33","training","adjacent","AB","1","2","O.jpg","N.jpg","0","1","0","",""
"","feedback","","html-keyboard-response","227","277801","0.0-1.0-303.0-0.0","0","0","76187","","null","","","null","33","","","","","","","","","","","","","","","",""
"","time_out","","html-keyboard-response","228","279804","0.0-1.0-305.0-0.0","0","0","76187","","null","","","null","33","","","","","","","","","","","","","","","",""
"","ITI","","html-keyboard-response","229","280810","0.0-1.0-306.0","0","0","76187","","null","","","null","33","","","","","","","","","","","","","","","NaN",""
"","S1","","html-keyboard-response","230","280964","0.0-1.0-308.0","0","0","76187","","null","","","null","34","","","","","","","","","","","","","","","",""
"","ISI","","html-keyboard-response","231","282966","0.0-1.0-309.0","0","0","76187","","null","","","null","34","NaN","","","","","","","","","","","","","","",""
"","S2","","html-keyboard-response","232","283122","0.0-1.0-310.0","0","0","76187","","null","","","null","34","","NaN","","","","","","","","","","","","","",""
"","response","","html-keyboard-response","233","283740","0.0-1.0-311.0-0.0","0","0","76187","","614","","","75","34","","","1","34","training","adjacent","EF","5","6","P.jpg","L.jpg","1","1","1","",""
"","feedback","","html-keyboard-response","234","284744","0.0-1.0-312.0-0.0","0","0","76187","","null","","","null","34","","","","","","","","","","","","","","","",""
"","ITI","","html-keyboard-response","235","285757","0.0-1.0-315.0","0","0","76187","","null","","","null","34","","","","","","","","","","","","","","","NaN",""
"","S1","","html-keyboard-response","236","285912","0.0-1.0-317.0","0","0","76187","","null","","","null","35","","","","","","","","","","","","","","","",""
"","ISI","","html-keyboard-response","237","287914","0.0-1.0-318.0","0","0","76187","","null","","","null","35","NaN","","","","","","","","","","","","","","",""
"","S2","","html-keyboard-response","238","288083","0.0-1.0-319.0","0","0","76187","","null","","","null","35","","NaN","","","","","","","","","","","","","",""
"","response","","html-keyboard-response","239","288573","0.0-1.0-320.0-0.0","0","0","76187","","485","","","75","35","","","1","35","training","adjacent","BA","2","1","N.jpg","O.jpg","1","0","0","",""
"","feedback","","html-keyboard-response","240","289580","0.0-1.0-321.0-0.0","0","0","76187","","null","","","null","35","","","","","","","","","","","","","","","",""
"","time_out","","html-keyboard-response","241","291585","0.0-1.0-323.0-0.0","0","0","76187","","null","","","null","35","","","","","","","","","","","","","","","",""
"","ITI","","html-keyboard-response","242","292591","0.0-1.0-324.0","0","0","76187","","null","","","null","35","","","","","","","","","","","","","","","NaN",""
"","S1","","html-keyboard-response","243","292746","0.0-1.0-326.0","0","0","76187","","null","","","null","36","","","","","","","","","","","","","","","",""
"","ISI","","html-keyboard-response","244","294749","0.0-1.0-327.0","0","0","76187","","null","","","null","36","NaN","","","","","","","","","","","","","","",""
"","S2","","html-keyboard-response","245","294904","0.0-1.0-328.0","0","0","76187","","null","","","null","36","","NaN","","","","","","","","","","","","","",""
"","response","","html-keyboard-response","246","295899","0.0-1.0-329.0-0.0","0","0","76187","","993","","","75","36","","","1","36","training","adjacent","BA","2","1","N.jpg","O.jpg","1","0","0","",""
"","feedback","","html-keyboard-response","247","296902","0.0-1.0-330.0-0.0","0","0","76187","","null","","","null","36","","","","","","","","","","","","","","","",""
"","time_out","","html-keyboard-response","248","298906","0.0-1.0-332.0-0.0","0","0","76187","","null","","","null","36","","","","","","","","","","","","","","","",""
"","ITI","","html-keyboard-response","249","299911","0.0-1.0-333.0","0","0","76187","","null","","","null","36","","","","","","","","","","","","","","","NaN",""
"","S1","","html-keyboard-response","250","300079","0.0-1.0-335.0","0","0","76187","","null","","","null","37","","","","","","","","","","","","","","","",""
"","ISI","","html-keyboard-response","251","302088","0.0-1.0-336.0","0","0","76187","","null","","","null","37","NaN","","","","","","","","","","","","","","",""
"","S2","","html-keyboard-response","252","302243","0.0-1.0-337.0","0","0","76187","","null","","","null","37","","NaN","","","","","","","","","","","","","",""
"","response","","html-keyboard-response","253","302751","0.0-1.0-338.0-0.0","0","0","76187","","504","","","68","37","","","1","37","training","adjacent","AB","1","2","O.jpg","N.jpg","0","1","0","",""
"","feedback","","html-keyboard-response","254","303755","0.0-1.0-339.0-0.0","0","0","76187","","null","","","null","37","","","","","","","","","","","","","","","",""
"","time_out","","html-keyboard-response","255","305759","0.0-1.0-341.0-0.0","0","0","76187","","null","","","null","37","","","","","","","","","","","","","","","",""
"","ITI","","html-keyboard-response","256","306765","0.0-1.0-342.0","0","0","76187","","null","","","null","37","","","","","","","","","","","","","","","NaN",""
"","S1","","html-keyboard-response","257","306922","0.0-1.0-344.0","0","0","76187","","null","","","null","38","","","","","","","","","","","","","","","",""
"","ISI","","html-keyboard-response","258","308926","0.0-1.0-345.0","0","0","76187","","null","","","null","38","NaN","","","","","","","","","","","","","","",""
"","S2","","html-keyboard-response","259","309081","0.0-1.0-346.0","0","0","76187","","null","","","null","38","","NaN","","","","","","","","","","","","","",""
"","response","","html-keyboard-response","260","309619","0.0-1.0-347.0-0.0","0","0","76187","","535","","","75","38","","","1","38","training","adjacent","ED","5","4","P.jpg","M.jpg","1","0","0","",""
"","feedback","","html-keyboard-response","261","310673","0.0-1.0-348.0-0.0","0","0","76187","","null","","","null","38","","","","","","","","","","","","","","","",""
"","time_out","","html-keyboard-response","262","312676","0.0-1.0-350.0-0.0","0","0","76187","","null","","","null","38","","","","","","","","","","","","","","","",""
"","ITI","","html-keyboard-response","263","313679","0.0-1.0-351.0","0","0","76187","","null","","","null","38","","","","","","","","","","","","","","","NaN",""
"","S1","","html-keyboard-response","264","313833","0.0-1.0-353.0","0","0","76187","","null","","","null","39","","","","","","","","","","","","","","","",""
"","ISI","","html-keyboard-response","265","315837","0.0-1.0-354.0","0","0","76187","","null","","","null","39","NaN","","","","","","","","","","","","","","",""
"","S2","","html-keyboard-response","266","315993","0.0-1.0-355.0","0","0","76187","","null","","","null","39","","NaN","","","","","","","","","","","","","",""
"","response","","html-keyboard-response","267","317235","0.0-1.0-356.0-0.0","0","0","76187","","1240","","","68","39","","","1","39","training","adjacent","GF","7","6","Q.jpg","L.jpg","0","0","1","",""
"","feedback","","html-keyboard-response","268","318240","0.0-1.0-357.0-0.0","0","0","76187","","null","","","null","39","","","","","","","","","","","","","","","",""
"","ITI","","html-keyboard-response","269","319244","0.0-1.0-360.0","0","0","76187","","null","","","null","39","","","","","","","","","","","","","","","NaN",""
"","S1","","html-keyboard-response","270","319400","0.0-1.0-362.0","0","0","76187","","null","","","null","40","","","","","","","","","","","","","","","",""
"","ISI","","html-keyboard-response","271","321406","0.0-1.0-363.0","0","0","76187","","null","","","null","40","NaN","","","","","","","","","","","","","","",""
"","S2","","html-keyboard-response","272","321562","0.0-1.0-364.0","0","0","76187","","null","","","null","40","","NaN","","","","","","","","","","","","","",""
"","response","","html-keyboard-response","273","322216","0.0-1.0-365.0-0.0","0","0","76187","","649","","","68","40","","","1","40","training","adjacent","GF","7","6","Q.jpg","L.jpg","0","0","1","",""
"","feedback","","html-keyboard-response","274","323222","0.0-1.0-366.0-0.0","0","0","76187","","null","","","null","40","","","","","","","","","","","","","","","",""
"","ITI","","html-keyboard-response","275","324225","0.0-1.0-369.0","0","0","76187","","null","","","null","40","","","","","","","","","","","","","","","NaN",""
"","S1","","html-keyboard-response","276","324379","0.0-1.0-371.0","0","0","76187","","null","","","null","41","","","","","","","","","","","","","","","",""
"","ISI","","html-keyboard-response","277","326382","0.0-1.0-372.0","0","0","76187","","null","","","null","41","NaN","","","","","","","","","","","","","","",""
"","S2","","html-keyboard-response","278","326537","0.0-1.0-373.0","0","0","76187","","null","","","null","41","","NaN","","","","","","","","","","","","","",""
"","response","","html-keyboard-response","279","327368","0.0-1.0-374.0-0.0","0","0","76187","","824","","","68","41","","","1","41","training","adjacent","CD","3","4","R.jpg","M.jpg","0","1","0","",""
"","feedback","","html-keyboard-response","280","328374","0.0-1.0-375.0-0.0","0","0","76187","","null","","","null","41","","","","","","","","","","","","","","","",""
"","time_out","","html-keyboard-response","281","330378","0.0-1.0-377.0-0.0","0","0","76187","","null","","","null","41","","","","","","","","","","","","","","","",""
"","ITI","","html-keyboard-response","282","331385","0.0-1.0-378.0","0","0","76187","","null","","","null","41","","","","","","","","","","","","","","","NaN",""
"","S1","","html-keyboard-response","283","331541","0.0-1.0-380.0","0","0","76187","","null","","","null","42","","","","","","","","","","","","","","","",""
"","ISI","","html-keyboard-response","284","333548","0.0-1.0-381.0","0","0","76187","","null","","","null","42","NaN","","","","","","","","","","","","","","",""
"","S2","","html-keyboard-response","285","333705","0.0-1.0-382.0","0","0","76187","","null","","","null","42","","NaN","","","","","","","","","","","","","",""
"","response","","html-keyboard-response","286","334702","0.0-1.0-383.0-0.0","0","0","76187","","992","","","75","42","","","1","42","training","adjacent","ED","5","4","P.jpg","M.jpg","1","0","0","",""
"","feedback","","html-keyboard-response","287","335710","0.0-1.0-384.0-0.0","0","0","76187","","null","","","null","42","","","","","","","","","","","","","","","",""
"","time_out","","html-keyboard-response","288","337717","0.0-1.0-386.0-0.0","0","0","76187","","null","","","null","42","","","","","","","","","","","","","","","",""
"","ITI","","html-keyboard-response","289","338723","0.0-1.0-387.0","0","0","76187","","null","","","null","42","","","","","","","","","","","","","","","NaN",""
"","S1","","html-keyboard-response","290","338878","0.0-1.0-389.0","0","0","76187","","null","","","null","43","","","","","","","","","","","","","","","",""
"","ISI","","html-keyboard-response","291","340882","0.0-1.0-390.0","0","0","76187","","null","","","null","43","NaN","","","","","","","","","","","","","","",""
"","S2","","html-keyboard-response","292","341039","0.0-1.0-391.0","0","0","76187","","null","","","null","43","","NaN","","","","","","","","","","","","","",""
"","response","","html-keyboard-response","293","341923","0.0-1.0-392.0-0.0","0","0","76187","","881","","","75","43","","","1","43","training","adjacent","EF","5","6","P.jpg","L.jpg","1","1","1","",""
"","feedback","","html-keyboard-response","294","342926","0.0-1.0-393.0-0.0","0","0","76187","","null","","","null","43","","","","","","","","","","","","","","","",""
"","ITI","","html-keyboard-response","295","343930","0.0-1.0-396.0","0","0","76187","","null","","","null","43","","","","","","","","","","","","","","","NaN",""
"","S1","","html-keyboard-response","296","344085","0.0-1.0-398.0","0","0","76187","","null","","","null","44","","","","","","","","","","","","","","","",""
"","ISI","","html-keyboard-response","297","346093","0.0-1.0-399.0","0","0","76187","","null","","","null","44","NaN","","","","","","","","","","","","","","",""
"","S2","","html-keyboard-response","298","346248","0.0-1.0-400.0","0","0","76187","","null","","","null","44","","NaN","","","","","","","","","","","","","",""
"","response","","html-keyboard-response","299","347168","0.0-1.0-401.0-0.0","0","0","76187","","914","","","68","44","","","1","44","training","adjacent","FE","6","5","L.jpg","P.jpg","0","0","1","",""
"","feedback","","html-keyboard-response","300","348175","0.0-1.0-402.0-0.0","0","0","76187","","null","","","null","44","","","","","","","","","","","","","","","",""
"","ITI","","html-keyboard-response","301","349179","0.0-1.0-405.0","0","0","76187","","null","","","null","44","","","","","","","","","","","","","","","NaN",""
"","S1","","html-keyboard-response","302","349333","0.0-1.0-407.0","0","0","76187","","null","","","null","45","","","","","","","","","","","","","","","",""
"","ISI","","html-keyboard-response","303","351339","0.0-1.0-408.0","0","0","76187","","null","","","null","45","NaN","","","","","","","","","","","","","","",""
"","S2","","html-keyboard-response","304","351493","0.0-1.0-409.0","0","0","76187","","null","","","null","45","","NaN","","","","","","","","","","","","","",""
"","response","","html-keyboard-response","305","352504","0.0-1.0-410.0-0.0","0","0","76187","","1005","","","75","45","","","1","45","training","adjacent","DC","4","3","M.jpg","R.jpg","1","0","0","",""
"","feedback","","html-keyboard-response","306","353510","0.0-1.0-411.0-0.0","0","0","76187","","null","","","null","45","","","","","","","","","","","","","","","",""
"","time_out","","html-keyboard-response","307","355516","0.0-1.0-413.0-0.0","0","0","76187","","null","","","null","45","","","","","","","","","","","","","","","",""
"","ITI","","html-keyboard-response","308","356519","0.0-1.0-414.0","0","0","76187","","null","","","null","45","","","","","","","","","","","","","","","NaN",""
"","S1","","html-keyboard-response","309","356672","0.0-1.0-416.0","0","0","76187","","null","","","null","46","","","","","","","","","","","","","","","",""
"","ISI","","html-keyboard-response","310","358675","0.0-1.0-417.0","0","0","76187","","null","","","null","46","NaN","","","","","","","","","","","","","","",""
"","S2","","html-keyboard-response","311","358832","0.0-1.0-418.0","0","0","76187","","null","","","null","46","","NaN","","","","","","","","","","","","","",""
"","response","","html-keyboard-response","312","360059","0.0-1.0-419.0-0.0","0","0","76187","","1224","","","68","46","","","1","46","training","adjacent","DE","4","5","M.jpg","P.jpg","0","1","0","",""
"","feedback","","html-keyboard-response","313","361064","0.0-1.0-420.0-0.0","0","0","76187","","null","","","null","46","","","","","","","","","","","","","","","",""
"","time_out","","html-keyboard-response","314","363068","0.0-1.0-422.0-0.0","0","0","76187","","null","","","null","46","","","","","","","","","","","","","","","",""
"","ITI","","html-keyboard-response","315","364071","0.0-1.0-423.0","0","0","76187","","null","","","null","46","","","","","","","","","","","","","","","NaN",""
"","S1","","html-keyboard-response","316","364224","0.0-1.0-425.0","0","0","76187","","null","","","null","47","","","","","","","","","","","","","","","",""
"","ISI","","html-keyboard-response","317","366231","0.0-1.0-426.0","0","0","76187","","null","","","null","47","NaN","","","","","","","","","","","","","","",""
"","S2","","html-keyboard-response","318","366388","0.0-1.0-427.0","0","0","76187","","null","","","null","47","","NaN","","","","","","","","","","","","","",""
"","response","","html-keyboard-response","319","367307","0.0-1.0-428.0-0.0","0","0","76187","","917","","","75","47","","","1","47","training","adjacent","DC","4","3","M.jpg","R.jpg","1","0","0","",""
"","feedback","","html-keyboard-response","320","368311","0.0-1.0-429.0-0.0","0","0","76187","","null","","","null","47","","","","","","","","","","","","","","","",""
"","time_out","","html-keyboard-response","321","370316","0.0-1.0-431.0-0.0","0","0","76187","","null","","","null","47","","","","","","","","","","","","","","","",""
"","ITI","","html-keyboard-response","322","371321","0.0-1.0-432.0","0","0","76187","","null","","","null","47","","","","","","","","","","","","","","","NaN",""
"","block_over","","html-keyboard-response","323","380852","0.0-1.0-433.0-0.0","0","0","76187","","9528","","","32","47","","","","","","","","","","","","","","","",""
"","S1","","html-keyboard-response","324","381005","0.0-1.0-434.0","0","0","76187","","null","","","null","48","","","","","","","","","","","","","","","",""
"","ISI","","html-keyboard-response","325","383010","0.0-1.0-435.0","0","0","76187","","null","","","null","48","NaN","","","","","","","","","","","","","","",""
"","S2","","html-keyboard-response","326","383166","0.0-1.0-436.0","0","0","76187","","null","","","null","48","","NaN","","","","","","","","","","","","","",""
"","response","","html-keyboard-response","327","384454","0.0-1.0-437.0-0.0","0","0","76187","","1284","","","75","48","","","2","48","training","adjacent","BC","2","3","N.jpg","R.jpg","1","1","1","",""
"","feedback","","html-keyboard-response","328","385459","0.0-1.0-438.0-0.0","0","0","76187","","null","","","null","48","","","","","","","","","","","","","","","",""
"","ITI","","html-keyboard-response","329","386465","0.0-1.0-441.0","0","0","76187","","null","","","null","48","","","","","","","","","","","","","","","NaN",""
"","S1","","html-keyboard-response","330","386620","0.0-1.0-443.0","0","0","76187","","null","","","null","49","","","","","","","","","","","","","","","",""
"","ISI","","html-keyboard-response","331","388624","0.0-1.0-444.0","0","0","76187","","null","","","null","49","NaN","","","","","","","","","","","","","","",""
"","S2","","html-keyboard-response","332","388778","0.0-1.0-445.0","0","0","76187","","null","","","null","49","","NaN","","","","","","","","","","","","","",""
"","response","","html-keyboard-response","333","389868","0.0-1.0-446.0-0.0","0","0","76187","","1087","","","75","49","","","2","49","training","adjacent","FE","6","5","L.jpg","P.jpg","1","0","0","",""
"","feedback","","html-keyboard-response","334","390878","0.0-1.0-447.0-0.0","0","0","76187","","null","","","null","49","","","","","","","","","","","","","","","",""
"","time_out","","html-keyboard-response","335","392889","0.0-1.0-449.0-0.0","0","0","76187","","null","","","null","49","","","","","","","","","","","","","","","",""
"","ITI","","html-keyboard-response","336","393894","0.0-1.0-450.0","0","0","76187","","null","","","null","49","","","","","","","","","","","","","","","NaN",""
"","S1","","html-keyboard-response","337","394053","0.0-1.0-452.0","0","0","76187","","null","","","null","50","","","","","","","","","","","","","","","",""
"","ISI","","html-keyboard-response","338","396056","0.0-1.0-453.0","0","0","76187","","null","","","null","50","NaN","","","","","","","","","","","","","","",""
"","S2","","html-keyboard-response","339","396209","0.0-1.0-454.0","0","0","76187","","null","","","null","50","","NaN","","","","","","","","","","","","","",""
"","response","","html-keyboard-response","340","396947","0.0-1.0-455.0-0.0","0","0","76187","","736","","","68","50","","","2","50","training","adjacent","AB","1","2","O.jpg","N.jpg","0","1","0","",""
"","feedback","","html-keyboard-response","341","397964","0.0-1.0-456.0-0.0","0","0","76187","","null","","","null","50","","","","","","","","","","","","","","","",""
"","time_out","","html-keyboard-response","342","399969","0.0-1.0-458.0-0.0","0","0","76187","","null","","","null","50","","","","","","","","","","","","","","","",""
"","ITI","","html-keyboard-response","343","400975","0.0-1.0-459.0","0","0","76187","","null","","","null","50","","","","","","","","","","","","","","","NaN",""
"","S1","","html-keyboard-response","344","401131","0.0-1.0-461.0","0","0","76187","","null","","","null","51","","","","","","","","","","","","","","","",""
"","ISI","","html-keyboard-response","345","403134","0.0-1.0-462.0","0","0","76187","","null","","","null","51","NaN","","","","","","","","","","","","","","",""
"","S2","","html-keyboard-response","346","403289","0.0-1.0-463.0","0","0","76187","","null","","","null","51","","NaN","","","","","","","","","","","","","",""
"","response","","html-keyboard-response","347","404312","0.0-1.0-464.0-0.0","0","0","76187","","1018","","","75","51","","","2","51","training","adjacent","DE","4","5","M.jpg","P.jpg","1","1","1","",""
"","feedback","","html-keyboard-response","348","405317","0.0-1.0-465.0-0.0","0","0","76187","","null","","","null","51","","","","","","","","","","","","","","","",""
"","ITI","","html-keyboard-response","349","406323","0.0-1.0-468.0","0","0","76187","","null","","","null","51","","","","","","","","","","","","","","","NaN",""
"","S1","","html-keyboard-response","350","406477","0.0-1.0-470.0","0","0","76187","","null","","","null","52","","","","","","","","","","","","","","","",""
"","ISI","","html-keyboard-response","351","408483","0.0-1.0-471.0","0","0","76187","","null","","","null","52","NaN","","","","","","","","","","","","","","",""
"","S2","","html-keyboard-response","352","408639","0.0-1.0-472.0","0","0","76187","","null","","","null","52","","NaN","","","","","","","","","","","","","",""
"","response","","html-keyboard-response","353","409480","0.0-1.0-473.0-0.0","0","0","76187","","835","","","75","52","","","2","52","training","adjacent","FG","6","7","L.jpg","Q.jpg","1","1","1","",""
"","feedback","","html-keyboard-response","354","410486","0.0-1.0-474.0-0.0","0","0","76187","","null","","","null","52","","","","","","","","","","","","","","","",""
"","ITI","","html-keyboard-response","355","411489","0.0-1.0-477.0","0","0","76187","","null","","","null","52","","","","","","","","","","","","","","","NaN",""
"","S1","","html-keyboard-response","356","411642","0.0-1.0-479.0","0","0","76187","","null","","","null","53","","","","","","","","","","","","","","","",""
"","ISI","","html-keyboard-response","357","413647","0.0-1.0-480.0","0","0","76187","","null","","","null","53","NaN","","","","","","","","","","","","","","",""
"","S2","","html-keyboard-response","358","413803","0.0-1.0-481.0","0","0","76187","","null","","","null","53","","NaN","","","","","","","","","","","","","",""
"","response","","html-keyboard-response","359","414685","0.0-1.0-482.0-0.0","0","0","76187","","877","","","68","53","","","2","53","training","adjacent","DE","4","5","M.jpg","P.jpg","0","1","0","",""
"","feedback","","html-keyboard-response","360","415689","0.0-1.0-483.0-0.0","0","0","76187","","null","","","null","53","","","","","","","","","","","","","","","",""
"","time_out","","html-keyboard-response","361","417695","0.0-1.0-485.0-0.0","0","0","76187","","null","","","null","53","","","","","","","","","","","","","","","",""
"","ITI","","html-keyboard-response","362","418699","0.0-1.0-486.0","0","0","76187","","null","","","null","53","","","","","","","","","","","","","","","NaN",""
"","S1","","html-keyboard-response","363","418853","0.0-1.0-488.0","0","0","76187","","null","","","null","54","","","","","","","","","","","","","","","",""
"","ISI","","html-keyboard-response","364","420856","0.0-1.0-489.0","0","0","76187","","null","","","null","54","NaN","","","","","","","","","","","","","","",""
"","S2","","html-keyboard-response","365","421010","0.0-1.0-490.0","0","0","76187","","null","","","null","54","","NaN","","","","","","","","","","","","","",""
"","response","","html-keyboard-response","366","421555","0.0-1.0-491.0-0.0","0","0","76187","","542","","","75","54","","","2","54","training","adjacent","BA","2","1","N.jpg","O.jpg","1","0","0","",""
"","feedback","","html-keyboard-response","367","422559","0.0-1.0-492.0-0.0","0","0","76187","","null","","","null","54","","","","","","","","","","","","","","","",""
"","time_out","","html-keyboard-response","368","424565","0.0-1.0-494.0-0.0","0","0","76187","","null","","","null","54","","","","","","","","","","","","","","","",""
"","ITI","","html-keyboard-response","369","425569","0.0-1.0-495.0","0","0","76187","","null","","","null","54","","","","","","","","","","","","","","","NaN",""
"","S1","","html-keyboard-response","370","425723","0.0-1.0-497.0","0","0","76187","","null","","","null","55","","","","","","","","","","","","","","","",""
"","ISI","","html-keyboard-response","371","427726","0.0-1.0-498.0","0","0","76187","","null","","","null","55","NaN","","","","","","","","","","","","","","",""
"","S2","","html-keyboard-response","372","427880","0.0-1.0-499.0","0","0","76187","","null","","","null","55","","NaN","","","","","","","","","","","","","",""
"","response","","html-keyboard-response","373","429675","0.0-1.0-500.0-0.0","0","0","76187","","1792","","","75","55","","","2","55","training","adjacent","DE","4","5","M.jpg","P.jpg","1","1","1","",""
"","feedback","","html-keyboard-response","374","430679","0.0-1.0-501.0-0.0","0","0","76187","","null","","","null","55","","","","","","","","","","","","","","","",""
"","ITI","","html-keyboard-response","375","431691","0.0-1.0-504.0","0","0","76187","","null","","","null","55","","","","","","","","","","","","","","","NaN",""
"","S1","","html-keyboard-response","376","431845","0.0-1.0-506.0","0","0","76187","","null","","","null","56","","","","","","","","","","","","","","","",""
"","ISI","","html-keyboard-response","377","433865","0.0-1.0-507.0","0","0","76187","","null","","","null","56","NaN","","","","","","","","","","","","","","",""
"","S2","","html-keyboard-response","378","434021","0.0-1.0-508.0","0","0","76187","","null","","","null","56","","NaN","","","","","","","","","","","","","",""
"","response","","html-keyboard-response","379","434611","0.0-1.0-509.0-0.0","0","0","76187","","587","","","75","56","","","2","56","training","adjacent","FE","6","5","L.jpg","P.jpg","1","0","0","",""
"","feedback","","html-keyboard-response","380","435614","0.0-1.0-510.0-0.0","0","0","76187","","null","","","null","56","","","","","","","","","","","","","","","",""
"","time_out","","html-keyboard-response","381","437618","0.0-1.0-512.0-0.0","0","0","76187","","null","","","null","56","","","","","","","","","","","","","","","",""
"","ITI","","html-keyboard-response","382","438620","0.0-1.0-513.0","0","0","76187","","null","","","null","56","","","","","","","","","","","","","","","NaN",""
"","S1","","html-keyboard-response","383","438774","0.0-1.0-515.0","0","0","76187","","null","","","null","57","","","","","","","","","","","","","","","",""
"","ISI","","html-keyboard-response","384","440777","0.0-1.0-516.0","0","0","76187","","null","","","null","57","NaN","","","","","","","","","","","","","","",""
"","S2","","html-keyboard-response","385","440933","0.0-1.0-517.0","0","0","76187","","null","","","null","57","","NaN","","","","","","","","","","","","","",""
"","response","","html-keyboard-response","386","441555","0.0-1.0-518.0-0.0","0","0","76187","","618","","","68","57","","","2","57","training","adjacent","CD","3","4","R.jpg","M.jpg","0","1","0","",""
"","feedback","","html-keyboard-response","387","442560","0.0-1.0-519.0-0.0","0","0","76187","","null","","","null","57","","","","","","","","","","","","","","","",""
"","time_out","","html-keyboard-response","388","444565","0.0-1.0-521.0-0.0","0","0","76187","","null","","","null","57","","","","","","","","","","","","","","","",""
"","ITI","","html-keyboard-response","389","445569","0.0-1.0-522.0","0","0","76187","","null","","","null","57","","","","","","","","","","","","","","","NaN",""
"","S1","","html-keyboard-response","390","445724","0.0-1.0-524.0","0","0","76187","","null","","","null","58","","","","","","","","","","","","","","","",""
"","ISI","","html-keyboard-response","391","447730","0.0-1.0-525.0","0","0","76187","","null","","","null","58","NaN","","","","","","","","","","","","","","",""
"","S2","","html-keyboard-response","392","447885","0.0-1.0-526.0","0","0","76187","","null","","","null","58","","NaN","","","","","","","","","","","","","",""
"","response","","html-keyboard-response","393","448403","0.0-1.0-527.0-0.0","0","0","76187","","516","","","68","58","","","2","58","training","adjacent","CB","3","2","R.jpg","N.jpg","0","0","1","",""
"","feedback","","html-keyboard-response","394","449407","0.0-1.0-528.0-0.0","0","0","76187","","null","","","null","58","","","","","","","","","","","","","","","",""
"","ITI","","html-keyboard-response","395","450410","0.0-1.0-531.0","0","0","76187","","null","","","null","58","","","","","","","","","","","","","","","NaN",""
"","S1","","html-keyboard-response","396","450564","0.0-1.0-533.0","0","0","76187","","null","","","null","59","","","","","","","","","","","","","","","",""
"","ISI","","html-keyboard-response","397","452574","0.0-1.0-534.0","0","0","76187","","null","","","null","59","NaN","","","","","","","","","","","","","","",""
"","S2","","html-keyboard-response","398","452728","0.0-1.0-535.0","0","0","76187","","null","","","null","59","","NaN","","","","","","","","","","","","","",""
"","response","","html-keyboard-response","399","453372","0.0-1.0-536.0-0.0","0","0","76187","","640","","","75","59","","","2","59","training","adjacent","ED","5","4","P.jpg","M.jpg","1","0","0","",""
"","feedback","","html-keyboard-response","400","454377","0.0-1.0-537.0-0.0","0","0","76187","","null","","","null","59","","","","","","","","","","","","","","","",""
"","time_out","","html-keyboard-response","401","456381","0.0-1.0-539.0-0.0","0","0","76187","","null","","","null","59","","","","","","","","","","","","","","","",""
"","ITI","","html-keyboard-response","402","457385","0.0-1.0-540.0","0","0","76187","","null","","","null","59","","","","","","","","","","","","","","","NaN",""
"","S1","","html-keyboard-response","403","457540","0.0-1.0-542.0","0","0","76187","","null","","","null","60","","","","","","","","","","","","","","","",""
"","ISI","","html-keyboard-response","404","459543","0.0-1.0-543.0","0","0","76187","","null","","","null","60","NaN","","","","","","","","","","","","","","",""
"","S2","","html-keyboard-response","405","459698","0.0-1.0-544.0","0","0","76187","","null","","","null","60","","NaN","","","","","","","","","","","","","",""
"","response","","html-keyboard-response","406","461110","0.0-1.0-545.0-0.0","0","0","76187","","1408","","","68","60","","","2","60","training","adjacent","BA","2","1","N.jpg","O.jpg","0","0","1","",""
"","feedback","","html-keyboard-response","407","462114","0.0-1.0-546.0-0.0","0","0","76187","","null","","","null","60","","","","","","","","","","","","","","","",""
"","ITI","","html-keyboard-response","408","463118","0.0-1.0-549.0","0","0","76187","","null","","","null","60","","","","","","","","","","","","","","","NaN",""
"","S1","","html-keyboard-response","409","463273","0.0-1.0-551.0","0","0","76187","","null","","","null","61","","","","","","","","","","","","","","","",""
"","ISI","","html-keyboard-response","410","465278","0.0-1.0-552.0","0","0","76187","","null","","","null","61","NaN","","","","","","","","","","","","","","",""
"","S2","","html-keyboard-response","411","465432","0.0-1.0-553.0","0","0","76187","","null","","","null","61","","NaN","","","","","","","","","","","","","",""
"","response","","html-keyboard-response","412","466119","0.0-1.0-554.0-0.0","0","0","76187","","682","","","75","61","","","2","61","training","adjacent","FE","6","5","L.jpg","P.jpg","1","0","0","",""
"","feedback","","html-keyboard-response","413","467129","0.0-1.0-555.0-0.0","0","0","76187","","null","","","null","61","","","","","","","","","","","","","","","",""
"","time_out","","html-keyboard-response","414","469134","0.0-1.0-557.0-0.0","0","0","76187","","null","","","null","61","","","","","","","","","","","","","","","",""
"","ITI","","html-keyboard-response","415","470140","0.0-1.0-558.0","0","0","76187","","null","","","null","61","","","","","","","","","","","","","","","NaN",""
"","S1","","html-keyboard-response","416","470294","0.0-1.0-560.0","0","0","76187","","null","","","null","62","","","","","","","","","","","","","","","",""
"","ISI","","html-keyboard-response","417","472304","0.0-1.0-561.0","0","0","76187","","null","","","null","62","NaN","","","","","","","","","","","","","","",""
"","S2","","html-keyboard-response","418","472462","0.0-1.0-562.0","0","0","76187","","null","","","null","62","","NaN","","","","","","","","","","","","","",""
"","response","","html-keyboard-response","419","473499","0.0-1.0-563.0-0.0","0","0","76187","","1034","","","75","62","","","2","62","training","adjacent","ED","5","4","P.jpg","M.jpg","1","0","0","",""
"","feedback","","html-keyboard-response","420","474502","0.0-1.0-564.0-0.0","0","0","76187","","null","","","null","62","","","","","","","","","","","","","","","",""
"","time_out","","html-keyboard-response","421","476507","0.0-1.0-566.0-0.0","0","0","76187","","null","","","null","62","","","","","","","","","","","","","","","",""
"","ITI","","html-keyboard-response","422","477512","0.0-1.0-567.0","0","0","76187","","null","","","null","62","","","","","","","","","","","","","","","NaN",""
"","S1","","html-keyboard-response","423","477669","0.0-1.0-569.0","0","0","76187","","null","","","null","63","","","","","","","","","","","","","","","",""
"","ISI","","html-keyboard-response","424","479673","0.0-1.0-570.0","0","0","76187","","null","","","null","63","NaN","","","","","","","","","","","","","","",""
"","S2","","html-keyboard-response","425","479828","0.0-1.0-571.0","0","0","76187","","null","","","null","63","","NaN","","","","","","","","","","","","","",""
"","response","","html-keyboard-response","426","480251","0.0-1.0-572.0-0.0","0","0","76187","","420","","","68","63","","","2","63","training","adjacent","CD","3","4","R.jpg","M.jpg","0","1","0","",""
"","feedback","","html-keyboard-response","427","481255","0.0-1.0-573.0-0.0","0","0","76187","","null","","","null","63","","","","","","","","","","","","","","","",""
"","time_out","","html-keyboard-response","428","483259","0.0-1.0-575.0-0.0","0","0","76187","","null","","","null","63","","","","","","","","","","","","","","","",""
"","ITI","","html-keyboard-response","429","484265","0.0-1.0-576.0","0","0","76187","","null","","","null","63","","","","","","","","","","","","","","","NaN",""
"","S1","","html-keyboard-response","430","484422","0.0-1.0-578.0","0","0","76187","","null","","","null","64","","","","","","","","","","","","","","","",""
"","ISI","","html-keyboard-response","431","486425","0.0-1.0-579.0","0","0","76187","","null","","","null","64","NaN","","","","","","","","","","","","","","",""
"","S2","","html-keyboard-response","432","486579","0.0-1.0-580.0","0","0","76187","","null","","","null","64","","NaN","","","","","","","","","","","","","",""
"","response","","html-keyboard-response","433","486931","0.0-1.0-581.0-0.0","0","0","76187","","351","","","75","64","","","2","64","training","adjacent","BA","2","1","N.jpg","O.jpg","1","0","0","",""
"","feedback","","html-keyboard-response","434","487934","0.0-1.0-582.0-0.0","0","0","76187","","null","","","null","64","","","","","","","","","","","","","","","",""
"","time_out","","html-keyboard-response","435","489940","0.0-1.0-584.0-0.0","0","0","76187","","null","","","null","64","","","","","","","","","","","","","","","",""
"","ITI","","html-keyboard-response","436","490943","0.0-1.0-585.0","0","0","76187","","null","","","null","64","","","","","","","","","","","","","","","NaN",""
"","S1","","html-keyboard-response","437","491098","0.0-1.0-587.0","0","0","76187","","null","","","null","65","","","","","","","","","","","","","","","",""
"","ISI","","html-keyboard-response","438","493102","0.0-1.0-588.0","0","0","76187","","null","","","null","65","NaN","","","","","","","","","","","","","","",""
"","S2","","html-keyboard-response","439","493256","0.0-1.0-589.0","0","0","76187","","null","","","null","65","","NaN","","","","","","","","","","","","","",""
"","response","","html-keyboard-response","440","493751","0.0-1.0-590.0-0.0","0","0","76187","","490","","","68","65","","","2","65","training","adjacent","DC","4","3","M.jpg","R.jpg","0","0","1","",""
"","feedback","","html-keyboard-response","441","494754","0.0-1.0-591.0-0.0","0","0","76187","","null","","","null","65","","","","","","","","","","","","","","","",""
"","ITI","","html-keyboard-response","442","495758","0.0-1.0-594.0","0","0","76187","","null","","","null","65","","","","","","","","","","","","","","","NaN",""
"","S1","","html-keyboard-response","443","495912","0.0-1.0-596.0","0","0","76187","","null","","","null","66","","","","","","","","","","","","","","","",""
"","ISI","","html-keyboard-response","444","497931","0.0-1.0-597.0","0","0","76187","","null","","","null","66","NaN","","","","","","","","","","","","","","",""
"","S2","","html-keyboard-response","445","498090","0.0-1.0-598.0","0","0","76187","","null","","","null","66","","NaN","","","","","","","","","","","","","",""
"","response","","html-keyboard-response","446","498819","0.0-1.0-599.0-0.0","0","0","76187","","725","","","68","66","","","2","66","training","adjacent","EF","5","6","P.jpg","L.jpg","0","1","0","",""
"","feedback","","html-keyboard-response","447","499824","0.0-1.0-600.0-0.0","0","0","76187","","null","","","null","66","","","","","","","","","","","","","","","",""
"","time_out","","html-keyboard-response","448","501830","0.0-1.0-602.0-0.0","0","0","76187","","null","","","null","66","","","","","","","","","","","","","","","",""
"","ITI","","html-keyboard-response","449","502835","0.0-1.0-603.0","0","0","76187","","684","","","75","66","","","","","","","","","","","","","","","k",""
"","S1","","html-keyboard-response","450","502989","0.0-1.0-605.0","0","0","76187","","null","","","null","67","","","","","","","","","","","","","","","",""
"","ISI","","html-keyboard-response","451","504995","0.0-1.0-606.0","0","0","76187","","null","","","null","67","NaN","","","","","","","","","","","","","","",""
"","S2","","html-keyboard-response","452","505151","0.0-1.0-607.0","0","0","76187","","null","","","null","67","","NaN","","","","","","","","","","","","","",""
"","response","","html-keyboard-response","453","506403","0.0-1.0-608.0-0.0","0","0","76187","","1250","","","75","67","","","2","67","training","adjacent","BC","2","3","N.jpg","R.jpg","1","1","1","",""
"","feedback","","html-keyboard-response","454","507406","0.0-1.0-609.0-0.0","0","0","76187","","null","","","null","67","","","","","","","","","","","","","","","",""
"","ITI","","html-keyboard-response","455","508410","0.0-1.0-612.0","0","0","76187","","null","","","null","67","","","","","","","","","","","","","","","NaN",""
"","S1","","html-keyboard-response","456","508565","0.0-1.0-614.0","0","0","76187","","null","","","null","68","","","","","","","","","","","","","","","",""
"","ISI","","html-keyboard-response","457","510570","0.0-1.0-615.0","0","0","76187","","null","","","null","68","NaN","","","","","","","","","","","","","","",""
"","S2","","html-keyboard-response","458","510725","0.0-1.0-616.0","0","0","76187","","null","","","null","68","","NaN","","","","","","","","","","","","","",""
"","response","","html-keyboard-response","459","512201","0.0-1.0-617.0-0.0","0","0","76187","","1470","","","75","68","","","2","68","training","adjacent","FG","6","7","L.jpg","Q.jpg","1","1","1","",""
"","feedback","","html-keyboard-response","460","513206","0.0-1.0-618.0-0.0","0","0","76187","","null","","","null","68","","","","","","","","","","","","","","","",""
"","ITI","","html-keyboard-response","461","514210","0.0-1.0-621.0","0","0","76187","","null","","","null","68","","","","","","","","","","","","","","","NaN",""
"","S1","","html-keyboard-response","462","514364","0.0-1.0-623.0","0","0","76187","","null","","","null","69","","","","","","","","","","","","","","","",""
"","ISI","","html-keyboard-response","463","516366","0.0-1.0-624.0","0","0","76187","","null","","","null","69","NaN","","","","","","","","","","","","","","",""
"","S2","","html-keyboard-response","464","516520","0.0-1.0-625.0","0","0","76187","","null","","","null","69","","NaN","","","","","","","","","","","","","",""
"","response","","html-keyboard-response","465","517297","0.0-1.0-626.0-0.0","0","0","76187","","769","","","68","69","","","2","69","training","adjacent","FE","6","5","L.jpg","P.jpg","0","0","1","",""
"","feedback","","html-keyboard-response","466","518306","0.0-1.0-627.0-0.0","0","0","76187","","null","","","null","69","","","","","","","","","","","","","","","",""
"","ITI","","html-keyboard-response","467","519312","0.0-1.0-630.0","0","0","76187","","null","","","null","69","","","","","","","","","","","","","","","NaN",""
"","S1","","html-keyboard-response","468","519467","0.0-1.0-632.0","0","0","76187","","null","","","null","70","","","","","","","","","","","","","","","",""
"","ISI","","html-keyboard-response","469","521470","0.0-1.0-633.0","0","0","76187","","null","","","null","70","NaN","","","","","","","","","","","","","","",""
"","S2","","html-keyboard-response","470","521627","0.0-1.0-634.0","0","0","76187","","null","","","null","70","","NaN","","","","","","","","","","","","","",""
"","response","","html-keyboard-response","471","523481","0.0-1.0-635.0-0.0","0","0","76187","","null","","","null","70","","","2","70","training","adjacent","DC","4","3","M.jpg","R.jpg","NaN","0","0","",""
"","too_slow_prompt","","html-keyboard-response","472","524485","0.0-1.0-637.0-0.0","1","0","76187","","null","","","null","","","","","","","","","","","","","","","","",""
"","time_out","","html-keyboard-response","473","526488","0.0-1.0-638.0-0.0","0","0","76187","","null","","","null","70","","","","","","","","","","","","","","","",""
"","ITI","","html-keyboard-response","474","527507","0.0-1.0-639.0","0","0","76187","","null","","","null","70","","","","","","","","","","","","","","","NaN",""
"","S1","","html-keyboard-response","475","527663","0.0-1.0-641.0","0","0","76187","","null","","","null","71","","","","","","","","","","","","","","","",""
"","ISI","","html-keyboard-response","476","529667","0.0-1.0-642.0","0","0","76187","","null","","","null","71","NaN","","","","","","","","","","","","","","",""
"","S2","","html-keyboard-response","477","529821","0.0-1.0-643.0","0","0","76187","","null","","","null","71","","NaN","","","","","","","","","","","","","",""
"","response","","html-keyboard-response","478","531219","0.0-1.0-644.0-0.0","0","0","76187","","1395","","","75","71","","","2","71","training","adjacent","BC","2","3","N.jpg","R.jpg","1","1","1","",""
"","feedback","","html-keyboard-response","479","532223","0.0-1.0-645.0-0.0","0","0","76187","","null","","","null","71","","","","","","","","","","","","","","","",""
"","ITI","","html-keyboard-response","480","533228","0.0-1.0-648.0","0","0","76187","","null","","","null","71","","","","","","","","","","","","","","","NaN",""
"","S1","","html-keyboard-response","481","533382","0.0-1.0-650.0","0","0","76187","","null","","","null","72","","","","","","","","","","","","","","","",""
"","ISI","","html-keyboard-response","482","535386","0.0-1.0-651.0","0","0","76187","","null","","","null","72","NaN","","","","","","","","","","","","","","",""
"","S2","","html-keyboard-response","483","535539","0.0-1.0-652.0","0","0","76187","","null","","","null","72","","NaN","","","","","","","","","","","","","",""
"","response","","html-keyboard-response","484","536083","0.0-1.0-653.0-0.0","0","0","76187","","542","","","75","72","","","2","72","training","adjacent","CB","3","2","R.jpg","N.jpg","1","0","0","",""
"","feedback","","html-keyboard-response","485","537086","0.0-1.0-654.0-0.0","0","0","76187","","null","","","null","72","","","","","","","","","","","","","","","",""
"","time_out","","html-keyboard-response","486","539089","0.0-1.0-656.0-0.0","0","0","76187","","null","","","null","72","","","","","","","","","","","","","","","",""
"","ITI","","html-keyboard-response","487","540094","0.0-1.0-657.0","0","0","76187","","null","","","null","72","","","","","","","","","","","","","","","NaN",""
"","S1","","html-keyboard-response","488","540248","0.0-1.0-659.0","0","0","76187","","null","","","null","73","","","","","","","","","","","","","","","",""
"","ISI","","html-keyboard-response","489","542251","0.0-1.0-660.0","0","0","76187","","null","","","null","73","NaN","","","","","","","","","","","","","","",""
"","S2","","html-keyboard-response","490","542404","0.0-1.0-661.0","0","0","76187","","null","","","null","73","","NaN","","","","","","","","","","","","","",""
"","response","","html-keyboard-response","491","543316","0.0-1.0-662.0-0.0","0","0","76187","","909","","","68","73","","","2","73","training","adjacent","DC","4","3","M.jpg","R.jpg","0","0","1","",""
"","feedback","","html-keyboard-response","492","544322","0.0-1.0-663.0-0.0","0","0","76187","","null","","","null","73","","","","","","","","","","","","","","","",""
"","ITI","","html-keyboard-response","493","545331","0.0-1.0-666.0","0","0","76187","","null","","","null","73","","","","","","","","","","","","","","","NaN",""
"","S1","","html-keyboard-response","494","545485","0.0-1.0-668.0","0","0","76187","","null","","","null","74","","","","","","","","","","","","","","","",""
"","ISI","","html-keyboard-response","495","547488","0.0-1.0-669.0","0","0","76187","","null","","","null","74","NaN","","","","","","","","","","","","","","",""
"","S2","","html-keyboard-response","496","547644","0.0-1.0-670.0","0","0","76187","","null","","","null","74","","NaN","","","","","","","","","","","","","",""
"","response","","html-keyboard-response","497","548511","0.0-1.0-671.0-0.0","0","0","76187","","862","","","75","74","","","2","74","training","adjacent","GF","7","6","Q.jpg","L.jpg","1","0","0","",""
"","feedback","","html-keyboard-response","498","549517","0.0-1.0-672.0-0.0","0","0","76187","","null","","","null","74","","","","","","","","","","","","","","","",""
"","time_out","","html-keyboard-response","499","551521","0.0-1.0-674.0-0.0","0","0","76187","","null","","","null","74","","","","","","","","","","","","","","","",""
"","ITI","","html-keyboard-response","500","552525","0.0-1.0-675.0","0","0","76187","","336","","","68","74","","","","","","","","","","","","","","","d",""
"","S1","","html-keyboard-response","501","552689","0.0-1.0-677.0","0","0","76187","","null","","","null","75","","","","","","","","","","","","","","","",""
"","ISI","","html-keyboard-response","502","554694","0.0-1.0-678.0","0","0","76187","","null","","","null","75","NaN","","","","","","","","","","","","","","",""
"","S2","","html-keyboard-response","503","554852","0.0-1.0-679.0","0","0","76187","","null","","","null","75","","NaN","","","","","","","","","","","","","",""
"","response","","html-keyboard-response","504","556547","0.0-1.0-680.0-0.0","0","0","76187","","1691","","","75","75","","","2","75","training","adjacent","ED","5","4","P.jpg","M.jpg","1","0","0","",""
"","feedback","","html-keyboard-response","505","557555","0.0-1.0-681.0-0.0","0","0","76187","","null","","","null","75","","","","","","","","","","","","","","","",""
"","time_out","","html-keyboard-response","506","559560","0.0-1.0-683.0-0.0","0","0","76187","","null","","","null","75","","","","","","","","","","","","","","","",""
"","ITI","","html-keyboard-response","507","560567","0.0-1.0-684.0","0","0","76187","","null","","","null","75","","","","","","","","","","","","","","","NaN",""
"","S1","","html-keyboard-response","508","560721","0.0-1.0-686.0","0","0","76187","","null","","","null","76","","","","","","","","","","","","","","","",""
"","ISI","","html-keyboard-response","509","562724","0.0-1.0-687.0","0","0","76187","","530","","","68","76","d","","","","","","","","","","","","","","",""
"","S2","","html-keyboard-response","510","562878","0.0-1.0-688.0","0","0","76187","","null","","","null","76","","NaN","","","","","","","","","","","","","",""
"","response","","html-keyboard-response","511","564571","0.0-1.0-689.0-0.0","0","0","76187","","1690","","","68","76","","","2","76","training","adjacent","DE","4","5","M.jpg","P.jpg","0","1","0","",""
"","feedback","","html-keyboard-response","512","565576","0.0-1.0-690.0-0.0","0","0","76187","","null","","","null","76","","","","","","","","","","","","","","","",""
"","time_out","","html-keyboard-response","513","567581","0.0-1.0-692.0-0.0","0","0","76187","","null","","","null","76","","","","","","","","","","","","","","","",""
"","ITI","","html-keyboard-response","514","568585","0.0-1.0-693.0","0","0","76187","","null","","","null","76","","","","","","","","","","","","","","","NaN",""
"","S1","","html-keyboard-response","515","568740","0.0-1.0-695.0","0","0","76187","","null","","","null","77","","","","","","","","","","","","","","","",""
"","ISI","","html-keyboard-response","516","570742","0.0-1.0-696.0","0","0","76187","","null","","","null","77","NaN","","","","","","","","","","","","","","",""
"","S2","","html-keyboard-response","517","570895","0.0-1.0-697.0","0","0","76187","","null","","","null","77","","NaN","","","","","","","","","","","","","",""
"","response","","html-keyboard-response","518","571571","0.0-1.0-698.0-0.0","0","0","76187","","673","","","68","77","","","2","77","training","adjacent","CD","3","4","R.jpg","M.jpg","0","1","0","",""
"","feedback","","html-keyboard-response","519","572579","0.0-1.0-699.0-0.0","0","0","76187","","null","","","null","77","","","","","","","","","","","","","","","",""
"","time_out","","html-keyboard-response","520","574597","0.0-1.0-701.0-0.0","0","0","76187","","null","","","null","77","","","","","","","","","","","","","","","",""
"","ITI","","html-keyboard-response","521","575601","0.0-1.0-702.0","0","0","76187","","null","","","null","77","","","","","","","","","","","","","","","NaN",""
"","S1","","html-keyboard-response","522","575756","0.0-1.0-704.0","0","0","76187","","null","","","null","78","","","","","","","","","","","","","","","",""
"","ISI","","html-keyboard-response","523","577762","0.0-1.0-705.0","0","0","76187","","null","","","null","78","NaN","","","","","","","","","","","","","","",""
"","S2","","html-keyboard-response","524","577919","0.0-1.0-706.0","0","0","76187","","null","","","null","78","","NaN","","","","","","","","","","","","","",""
"","response","","html-keyboard-response","525","578718","0.0-1.0-707.0-0.0","0","0","76187","","793","","","75","78","","","2","78","training","adjacent","ED","5","4","P.jpg","M.jpg","1","0","0","",""
"","feedback","","html-keyboard-response","526","579722","0.0-1.0-708.0-0.0","0","0","76187","","null","","","null","78","","","","","","","","","","","","","","","",""
"","time_out","","html-keyboard-response","527","581730","0.0-1.0-710.0-0.0","0","0","76187","","null","","","null","78","","","","","","","","","","","","","","","",""
"","ITI","","html-keyboard-response","528","582737","0.0-1.0-711.0","0","0","76187","","null","","","null","78","","","","","","","","","","","","","","","NaN",""
"","S1","","html-keyboard-response","529","582895","0.0-1.0-713.0","0","0","76187","","null","","","null","79","","","","","","","","","","","","","","","",""
"","ISI","","html-keyboard-response","530","584899","0.0-1.0-714.0","0","0","76187","","null","","","null","79","NaN","","","","","","","","","","","","","","",""
"","S2","","html-keyboard-response","531","585052","0.0-1.0-715.0","0","0","76187","","null","","","null","79","","NaN","","","","","","","","","","","","","",""
"","response","","html-keyboard-response","532","585109","0.0-1.0-716.0-0.0","0","0","76187","","53","","","68","79","","","2","79","training","adjacent","AB","1","2","O.jpg","N.jpg","0","1","0","",""
"","feedback","","html-keyboard-response","533","586129","0.0-1.0-717.0-0.0","0","0","76187","","null","","","null","79","","","","","","","","","","","","","","","",""
"","time_out","","html-keyboard-response","534","588132","0.0-1.0-719.0-0.0","0","0","76187","","null","","","null","79","","","","","","","","","","","","","","","",""
"","ITI","","html-keyboard-response","535","589135","0.0-1.0-720.0","0","0","76187","","null","","","null","79","","","","","","","","","","","","","","","NaN",""
"","S1","","html-keyboard-response","536","589288","0.0-1.0-722.0","0","0","76187","","null","","","null","80","","","","","","","","","","","","","","","",""
"","ISI","","html-keyboard-response","537","591294","0.0-1.0-723.0","0","0","76187","","null","","","null","80","NaN","","","","","","","","","","","","","","",""
"","S2","","html-keyboard-response","538","591449","0.0-1.0-724.0","0","0","76187","","null","","","null","80","","NaN","","","","","","","","","","","","","",""
"","response","","html-keyboard-response","539","592263","0.0-1.0-725.0-0.0","0","0","76187","","810","","","75","80","","","2","80","training","adjacent","BC","2","3","N.jpg","R.jpg","1","1","1","",""
"","feedback","","html-keyboard-response","540","593270","0.0-1.0-726.0-0.0","0","0","76187","","null","","","null","80","","","","","","","","","","","","","","","",""
"","ITI","","html-keyboard-response","541","594276","0.0-1.0-729.0","0","0","76187","","null","","","null","80","","","","","","","","","","","","","","","NaN",""
"","S1","","html-keyboard-response","542","594433","0.0-1.0-731.0","0","0","76187","","null","","","null","81","","","","","","","","","","","","","","","",""
"","ISI","","html-keyboard-response","543","596436","0.0-1.0-732.0","0","0","76187","","null","","","null","81","NaN","","","","","","","","","","","","","","",""
"","S2","","html-keyboard-response","544","596590","0.0-1.0-733.0","0","0","76187","","null","","","null","81","","NaN","","","","","","","","","","","","","",""
"","response","","html-keyboard-response","545","598049","0.0-1.0-734.0-0.0","0","0","76187","","1454","","","75","81","","","2","81","training","adjacent","CD","3","4","R.jpg","M.jpg","1","1","1","",""
"","feedback","","html-keyboard-response","546","599057","0.0-1.0-735.0-0.0","0","0","76187","","null","","","null","81","","","","","","","","","","","","","","","",""
"","ITI","","html-keyboard-response","547","600060","0.0-1.0-738.0","0","0","76187","","null","","","null","81","","","","","","","","","","","","","","","NaN",""
"","S1","","html-keyboard-response","548","600214","0.0-1.0-740.0","0","0","76187","","null","","","null","82","","","","","","","","","","","","","","","",""
"","ISI","","html-keyboard-response","549","602218","0.0-1.0-741.0","0","0","76187","","null","","","null","82","NaN","","","","","","","","","","","","","","",""
"","S2","","html-keyboard-response","550","602372","0.0-1.0-742.0","0","0","76187","","null","","","null","82","","NaN","","","","","","","","","","","","","",""
"","response","","html-keyboard-response","551","603332","0.0-1.0-743.0-0.0","0","0","76187","","957","","","68","82","","","2","82","training","adjacent","CB","3","2","R.jpg","N.jpg","0","0","1","",""
"","feedback","","html-keyboard-response","552","604338","0.0-1.0-744.0-0.0","0","0","76187","","null","","","null","82","","","","","","","","","","","","","","","",""
"","ITI","","html-keyboard-response","553","605342","0.0-1.0-747.0","0","0","76187","","null","","","null","82","","","","","","","","","","","","","","","NaN",""
"","S1","","html-keyboard-response","554","605495","0.0-1.0-749.0","0","0","76187","","null","","","null","83","","","","","","","","","","","","","","","",""
"","ISI","","html-keyboard-response","555","607498","0.0-1.0-750.0","0","0","76187","","null","","","null","83","NaN","","","","","","","","","","","","","","",""
"","S2","","html-keyboard-response","556","607655","0.0-1.0-751.0","0","0","76187","","null","","","null","83","","NaN","","","","","","","","","","","","","",""
"","response","","html-keyboard-response","557","608469","0.0-1.0-752.0-0.0","0","0","76187","","809","","","75","83","","","2","83","training","adjacent","EF","5","6","P.jpg","L.jpg","1","1","1","",""
"","feedback","","html-keyboard-response","558","609475","0.0-1.0-753.0-0.0","0","0","76187","","null","","","null","83","","","","","","","","","","","","","","","",""
"","ITI","","html-keyboard-response","559","610480","0.0-1.0-756.0","0","0","76187","","null","","","null","83","","","","","","","","","","","","","","","NaN",""
"","S1","","html-keyboard-response","560","610636","0.0-1.0-758.0","0","0","76187","","null","","","null","84","","","","","","","","","","","","","","","",""
"","ISI","","html-keyboard-response","561","612642","0.0-1.0-759.0","0","0","76187","","null","","","null","84","NaN","","","","","","","","","","","","","","",""
"","S2","","html-keyboard-response","562","612796","0.0-1.0-760.0","0","0","76187","","null","","","null","84","","NaN","","","","","","","","","","","","","",""
"","response","","html-keyboard-response","563","614274","0.0-1.0-761.0-0.0","0","0","76187","","1476","","","68","84","","","2","84","training","adjacent","GF","7","6","Q.jpg","L.jpg","0","0","1","",""
"","feedback","","html-keyboard-response","564","615279","0.0-1.0-762.0-0.0","0","0","76187","","null","","","null","84","","","","","","","","","","","","","","","",""
"","ITI","","html-keyboard-response","565","616284","0.0-1.0-765.0","0","0","76187","","null","","","null","84","","","","","","","","","","","","","","","NaN",""
"","S1","","html-keyboard-response","566","616448","0.0-1.0-767.0","0","0","76187","","null","","","null","85","","","","","","","","","","","","","","","",""
"","ISI","","html-keyboard-response","567","618452","0.0-1.0-768.0","0","0","76187","","null","","","null","85","NaN","","","","","","","","","","","","","","",""
"","S2","","html-keyboard-response","568","618606","0.0-1.0-769.0","0","0","76187","","null","","","null","85","","NaN","","","","","","","","","","","","","",""
"","response","","html-keyboard-response","569","619251","0.0-1.0-770.0-0.0","0","0","76187","","643","","","68","85","","","2","85","training","adjacent","CB","3","2","R.jpg","N.jpg","0","0","1","",""
"","feedback","","html-keyboard-response","570","620254","0.0-1.0-771.0-0.0","0","0","76187","","null","","","null","85","","","","","","","","","","","","","","","",""
"","ITI","","html-keyboard-response","571","621258","0.0-1.0-774.0","0","0","76187","","null","","","null","85","","","","","","","","","","","","","","","NaN",""
"","S1","","html-keyboard-response","572","621412","0.0-1.0-776.0","0","0","76187","","null","","","null","86","","","","","","","","","","","","","","","",""
"","ISI","","html-keyboard-response","573","623417","0.0-1.0-777.0","0","0","76187","","null","","","null","86","NaN","","","","","","","","","","","","","","",""
"","S2","","html-keyboard-response","574","623573","0.0-1.0-778.0","0","0","76187","","null","","","null","86","","NaN","","","","","","","","","","","","","",""
"","response","","html-keyboard-response","575","624203","0.0-1.0-779.0-0.0","0","0","76187","","626","","","68","86","","","2","86","training","adjacent","EF","5","6","P.jpg","L.jpg","0","1","0","",""
"","feedback","","html-keyboard-response","576","625206","0.0-1.0-780.0-0.0","0","0","76187","","null","","","null","86","","","","","","","","","","","","","","","",""
"","time_out","","html-keyboard-response","577","627209","0.0-1.0-782.0-0.0","0","0","76187","","null","","","null","86","","","","","","","","","","","","","","","",""
"","ITI","","html-keyboard-response","578","628214","0.0-1.0-783.0","0","0","76187","","null","","","null","86","","","","","","","","","","","","","","","NaN",""
"","S1","","html-keyboard-response","579","628369","0.0-1.0-785.0","0","0","76187","","null","","","null","87","","","","","","","","","","","","","","","",""
"","ISI","","html-keyboard-response","580","630372","0.0-1.0-786.0","0","0","76187","","null","","","null","87","NaN","","","","","","","","","","","","","","",""
"","S2","","html-keyboard-response","581","630526","0.0-1.0-787.0","0","0","76187","","null","","","null","87","","NaN","","","","","","","","","","","","","",""
"","response","","html-keyboard-response","582","631720","0.0-1.0-788.0-0.0","0","0","76187","","1188","","","75","87","","","2","87","training","adjacent","EF","5","6","P.jpg","L.jpg","1","1","1","",""
