"success","ttype","start_time","trial_type","trial_index","time_elapsed","internal_node_id","warning","missed_checkup","PID","view_history","rt","responses","repeat_instructions","key_press","index","keypress_isi","keypress_S2","block","trial_num","phase","group_type","pair_type","S1_stim","S2_stim","S1_img","S2_img","S1_chosen","S1_higher","accuracy","keypress_iti","total_bonus_tally"
"true","full_screen","d04072023hr0158","fullscreen","0","8178","0.0-0.0","0","0","96559","","","","","","","","","","","","","","","","","","","","","",""
"","instructions","","instructions","1","55504","0.0-1.0-0.0-0.0","0","0","96559","[{""page_index"":0,""viewing_time"":5594},{""page_index"":1,""viewing_time"":23940},{""page_index"":2,""viewing_time"":10149},{""page_index"":3,""viewing_time"":7636}]","47321","","","","","","","","","","","","","","","","","","","",""
"","comprehension_check","","survey-multi-choice","2","76422","0.0-1.0-0.0-1.0","0","0","96559","","20907","{""Q0"":""True"",""Q1"":""D"",""Q2"":""Once the second image appears and while the screen 'MAKE A CHOICE' is shown"",""Q3"":""Green mark"",""Q4"":""either D or K""}","1","","","","","","","","","","","","","","","","","",""
"","missed_instruction_checkup","","html-keyboard-response","3","78802","0.0-1.0-0.0-2.0-0.0","0","1","96559","","2369","","","32","","","","","","","","","","","","","","","","",""
"","instructions","","instructions","4","95362","0.0-1.0-0.1-0.1","0","0","96559","[{""page_index"":0,""viewing_time"":3062},{""page_index"":1,""viewing_time"":9422},{""page_index"":2,""viewing_time"":2935},{""page_index"":3,""viewing_time"":1137}]","16557","","","","","","","","","","","","","","","","","","","",""
"","comprehension_check","","survey-multi-choice","5","109676","0.0-1.0-0.1-1.1","0","0","96559","","14298","{""Q0"":""True"",""Q1"":""K"",""Q2"":""Once the second image appears and while the screen 'MAKE A CHOICE' is shown"",""Q3"":""Green mark"",""Q4"":""either D or K""}","0","","","","","","","","","","","","","","","","","",""
"","start_exp","","html-keyboard-response","6","111516","0.0-1.0-1.0","0","0","96559","","1832","","","32","","","","","","","","","","","","","","","","",""
"","S1","","html-keyboard-response","7","111670","0.0-1.0-2.0","0","0","96559","","null","","","null","0","","","","","","","","","","","","","","","",""
"","ISI","","html-keyboard-response","8","113674","0.0-1.0-3.0","0","0","96559","","null","","","null","0","NaN","","","","","","","","","","","","","","",""
"","S2","","html-keyboard-response","9","113829","0.0-1.0-4.0","0","0","96559","","null","","","null","0","","NaN","","","","","","","","","","","","","",""
"","response","","html-keyboard-response","10","114723","0.0-1.0-5.0-0.0","0","0","96559","","889","","","75","0","","","1","0","training","adjacent","DE","4","5","P.jpg","Q.jpg","1","1","1","",""
"","feedback","","html-keyboard-response","11","115728","0.0-1.0-6.0-0.0","0","0","96559","","null","","","null","0","","","","","","","","","","","","","","","",""
"","ITI","","html-keyboard-response","12","116733","0.0-1.0-9.0","0","0","96559","","null","","","null","0","","","","","","","","","","","","","","","NaN",""
"","S1","","html-keyboard-response","13","116889","0.0-1.0-11.0","0","0","96559","","null","","","null","1","","","","","","","","","","","","","","","",""
"","ISI","","html-keyboard-response","14","118893","0.0-1.0-12.0","0","0","96559","","null","","","null","1","NaN","","","","","","","","","","","","","","",""
"","S2","","html-keyboard-response","15","119049","0.0-1.0-13.0","0","0","96559","","null","","","null","1","","NaN","","","","","","","","","","","","","",""
"","response","","html-keyboard-response","16","120013","0.0-1.0-14.0-0.0","0","0","96559","","960","","","75","1","","","1","1","training","adjacent","FE","6","5","L.jpg","Q.jpg","1","0","0","",""
"","feedback","","html-keyboard-response","17","121018","0.0-1.0-15.0-0.0","0","0","96559","","null","","","null","1","","","","","","","","","","","","","","","",""
"","time_out","","html-keyboard-response","18","123023","0.0-1.0-17.0-0.0","0","0","96559","","null","","","null","1","","","","","","","","","","","","","","","",""
"","ITI","","html-keyboard-response","19","124028","0.0-1.0-18.0","0","0","96559","","null","","","null","1","","","","","","","","","","","","","","","NaN",""
"","S1","","html-keyboard-response","20","124183","0.0-1.0-20.0","0","0","96559","","null","","","null","2","","","","","","","","","","","","","","","",""
"","ISI","","html-keyboard-response","21","126188","0.0-1.0-21.0","0","0","96559","","null","","","null","2","NaN","","","","","","","","","","","","","","",""
"","S2","","html-keyboard-response","22","126343","0.0-1.0-22.0","0","0","96559","","null","","","null","2","","NaN","","","","","","","","","","","","","",""
"","response","","html-keyboard-response","23","127134","0.0-1.0-23.0-0.0","0","0","96559","","786","","","68","2","","","1","2","training","adjacent","EF","5","6","Q.jpg","L.jpg","0","1","0","",""
"","feedback","","html-keyboard-response","24","128139","0.0-1.0-24.0-0.0","0","0","96559","","null","","","null","2","","","","","","","","","","","","","","","",""
"","time_out","","html-keyboard-response","25","130144","0.0-1.0-26.0-0.0","0","0","96559","","null","","","null","2","","","","","","","","","","","","","","","",""
"","ITI","","html-keyboard-response","26","131149","0.0-1.0-27.0","0","0","96559","","null","","","null","2","","","","","","","","","","","","","","","NaN",""
"","S1","","html-keyboard-response","27","131304","0.0-1.0-29.0","0","0","96559","","null","","","null","3","","","","","","","","","","","","","","","",""
"","ISI","","html-keyboard-response","28","133309","0.0-1.0-30.0","0","0","96559","","null","","","null","3","NaN","","","","","","","","","","","","","","",""
"","S2","","html-keyboard-response","29","133462","0.0-1.0-31.0","0","0","96559","","null","","","null","3","","NaN","","","","","","","","","","","","","",""
"","response","","html-keyboard-response","30","134099","0.0-1.0-32.0-0.0","0","0","96559","","633","","","75","3","","","1","3","training","adjacent","BA","2","1","M.jpg","O.jpg","1","0","0","",""
"","feedback","","html-keyboard-response","31","135104","0.0-1.0-33.0-0.0","0","0","96559","","null","","","null","3","","","","","","","","","","","","","","","",""
"","time_out","","html-keyboard-response","32","137108","0.0-1.0-35.0-0.0","0","0","96559","","null","","","null","3","","","","","","","","","","","","","","","",""
"","ITI","","html-keyboard-response","33","138113","0.0-1.0-36.0","0","0","96559","","null","","","null","3","","","","","","","","","","","","","","","NaN",""
"","S1","","html-keyboard-response","34","138268","0.0-1.0-38.0","0","0","96559","","null","","","null","4","","","","","","","","","","","","","","","",""
"","ISI","","html-keyboard-response","35","140272","0.0-1.0-39.0","0","0","96559","","null","","","null","4","NaN","","","","","","","","","","","","","","",""
"","S2","","html-keyboard-response","36","140426","0.0-1.0-40.0","0","0","96559","","null","","","null","4","","NaN","","","","","","","","","","","","","",""
"","response","","html-keyboard-response","37","141316","0.0-1.0-41.0-0.0","0","0","96559","","886","","","68","4","","","1","4","training","adjacent","DC","4","3","P.jpg","R.jpg","0","0","1","",""
"","feedback","","html-keyboard-response","38","142321","0.0-1.0-42.0-0.0","0","0","96559","","null","","","null","4","","","","","","","","","","","","","","","",""
"","ITI","","html-keyboard-response","39","143326","0.0-1.0-45.0","0","0","96559","","null","","","null","4","","","","","","","","","","","","","","","NaN",""
"","S1","","html-keyboard-response","40","143481","0.0-1.0-47.0","0","0","96559","","null","","","null","5","","","","","","","","","","","","","","","",""
"","ISI","","html-keyboard-response","41","145486","0.0-1.0-48.0","0","0","96559","","null","","","null","5","NaN","","","","","","","","","","","","","","",""
"","S2","","html-keyboard-response","42","145642","0.0-1.0-49.0","0","0","96559","","null","","","null","5","","NaN","","","","","","","","","","","","","",""
"","response","","html-keyboard-response","43","146559","0.0-1.0-50.0-0.0","0","0","96559","","913","","","75","5","","","1","5","training","adjacent","FE","6","5","L.jpg","Q.jpg","1","0","0","",""
"","feedback","","html-keyboard-response","44","147566","0.0-1.0-51.0-0.0","0","0","96559","","null","","","null","5","","","","","","","","","","","","","","","",""
"","time_out","","html-keyboard-response","45","149571","0.0-1.0-53.0-0.0","0","0","96559","","null","","","null","5","","","","","","","","","","","","","","","",""
"","ITI","","html-keyboard-response","46","150575","0.0-1.0-54.0","0","0","96559","","null","","","null","5","","","","","","","","","","","","","","","NaN",""
"","S1","","html-keyboard-response","47","150730","0.0-1.0-56.0","0","0","96559","","null","","","null","6","","","","","","","","","","","","","","","",""
"","ISI","","html-keyboard-response","48","152734","0.0-1.0-57.0","0","0","96559","","null","","","null","6","NaN","","","","","","","","","","","","","","",""
"","S2","","html-keyboard-response","49","152889","0.0-1.0-58.0","0","0","96559","","null","","","null","6","","NaN","","","","","","","","","","","","","",""
"","response","","html-keyboard-response","50","153689","0.0-1.0-59.0-0.0","0","0","96559","","795","","","75","6","","","1","6","training","adjacent","CD","3","4","R.jpg","P.jpg","1","1","1","",""
"","feedback","","html-keyboard-response","51","154694","0.0-1.0-60.0-0.0","0","0","96559","","null","","","null","6","","","","","","","","","","","","","","","",""
"","ITI","","html-keyboard-response","52","155699","0.0-1.0-63.0","0","0","96559","","null","","","null","6","","","","","","","","","","","","","","","NaN",""
"","S1","","html-keyboard-response","53","155854","0.0-1.0-65.0","0","0","96559","","null","","","null","7","","","","","","","","","","","","","","","",""
"","ISI","","html-keyboard-response","54","157858","0.0-1.0-66.0","0","0","96559","","null","","","null","7","NaN","","","","","","","","","","","","","","",""
"","S2","","html-keyboard-response","55","158014","0.0-1.0-67.0","0","0","96559","","null","","","null","7","","NaN","","","","","","","","","","","","","",""
"","response","","html-keyboard-response","56","159205","0.0-1.0-68.0-0.0","0","0","96559","","1185","","","68","7","","","1","7","training","adjacent","EF","5","6","Q.jpg","L.jpg","0","1","0","",""
"","feedback","","html-keyboard-response","57","160210","0.0-1.0-69.0-0.0","0","0","96559","","null","","","null","7","","","","","","","","","","","","","","","",""
"","time_out","","html-keyboard-response","58","162214","0.0-1.0-71.0-0.0","0","0","96559","","null","","","null","7","","","","","","","","","","","","","","","",""
"","ITI","","html-keyboard-response","59","163219","0.0-1.0-72.0","0","0","96559","","null","","","null","7","","","","","","","","","","","","","","","NaN",""
"","S1","","html-keyboard-response","60","163374","0.0-1.0-74.0","0","0","96559","","null","","","null","8","","","","","","","","","","","","","","","",""
"","ISI","","html-keyboard-response","61","165378","0.0-1.0-75.0","0","0","96559","","null","","","null","8","NaN","","","","","","","","","","","","","","",""
"","S2","","html-keyboard-response","62","165533","0.0-1.0-76.0","0","0","96559","","null","","","null","8","","NaN","","","","","","","","","","","","","",""
"","response","","html-keyboard-response","63","166502","0.0-1.0-77.0-0.0","0","0","96559","","964","","","68","8","","","1","8","training","adjacent","AB","1","2","O.jpg","M.jpg","0","1","0","",""
"","feedback","","html-keyboard-response","64","167507","0.0-1.0-78.0-0.0","0","0","96559","","null","","","null","8","","","","","","","","","","","","","","","",""
"","time_out","","html-keyboard-response","65","169511","0.0-1.0-80.0-0.0","0","0","96559","","null","","","null","8","","","","","","","","","","","","","","","",""
"","ITI","","html-keyboard-response","66","170516","0.0-1.0-81.0","0","0","96559","","null","","","null","8","","","","","","","","","","","","","","","NaN",""
"","S1","","html-keyboard-response","67","170671","0.0-1.0-83.0","0","0","96559","","null","","","null","9","","","","","","","","","","","","","","","",""
"","ISI","","html-keyboard-response","68","172675","0.0-1.0-84.0","0","0","96559","","null","","","null","9","NaN","","","","","","","","","","","","","","",""
"","S2","","html-keyboard-response","69","172831","0.0-1.0-85.0","0","0","96559","","null","","","null","9","","NaN","","","","","","","","","","","","","",""
"","response","","html-keyboard-response","70","173930","0.0-1.0-86.0-0.0","0","0","96559","","1096","","","75","9","","","1","9","training","adjacent","CB","3","2","R.jpg","M.jpg","1","0","0","",""
"","feedback","","html-keyboard-response","71","174934","0.0-1.0-87.0-0.0","0","0","96559","","null","","","null","9","","","","","","","","","","","","","","","",""
"","time_out","","html-keyboard-response","72","176939","0.0-1.0-89.0-0.0","0","0","96559","","null","","","null","9","","","","","","","","","","","","","","","",""
"","ITI","","html-keyboard-response","73","177944","0.0-1.0-90.0","0","0","96559","","null","","","null","9","","","","","","","","","","","","","","","NaN",""
"","S1","","html-keyboard-response","74","178098","0.0-1.0-92.0","0","0","96559","","null","","","null","10","","","","","","","","","","","","","","","",""
"","ISI","","html-keyboard-response","75","180103","0.0-1.0-93.0","0","0","96559","","null","","","null","10","NaN","","","","","","","","","","","","","","",""
"","S2","","html-keyboard-response","76","180258","0.0-1.0-94.0","0","0","96559","","null","","","null","10","","NaN","","","","","","","","","","","","","",""
"","response","","html-keyboard-response","77","181471","0.0-1.0-95.0-0.0","0","0","96559","","1209","","","68","10","","","1","10","training","adjacent","FE","6","5","L.jpg","Q.jpg","0","0","1","",""
"","feedback","","html-keyboard-response","78","182476","0.0-1.0-96.0-0.0","0","0","96559","","null","","","null","10","","","","","","","","","","","","","","","",""
"","ITI","","html-keyboard-response","79","183481","0.0-1.0-99.0","0","0","96559","","null","","","null","10","","","","","","","","","","","","","","","NaN",""
"","S1","","html-keyboard-response","80","183636","0.0-1.0-101.0","0","0","96559","","null","","","null","11","","","","","","","","","","","","","","","",""
"","ISI","","html-keyboard-response","81","185640","0.0-1.0-102.0","0","0","96559","","null","","","null","11","NaN","","","","","","","","","","","","","","",""
"","S2","","html-keyboard-response","82","185795","0.0-1.0-103.0","0","0","96559","","null","","","null","11","","NaN","","","","","","","","","","","","","",""
"","response","","html-keyboard-response","83","187152","0.0-1.0-104.0-0.0","0","0","96559","","1352","","","75","11","","","1","11","training","adjacent","DE","4","5","P.jpg","Q.jpg","1","1","1","",""
"","feedback","","html-keyboard-response","84","188157","0.0-1.0-105.0-0.0","0","0","96559","","null","","","null","11","","","","","","","","","","","","","","","",""
"","ITI","","html-keyboard-response","85","189162","0.0-1.0-108.0","0","0","96559","","null","","","null","11","","","","","","","","","","","","","","","NaN",""
"","S1","","html-keyboard-response","86","189317","0.0-1.0-110.0","0","0","96559","","null","","","null","12","","","","","","","","","","","","","","","",""
"","ISI","","html-keyboard-response","87","191321","0.0-1.0-111.0","0","0","96559","","null","","","null","12","NaN","","","","","","","","","","","","","","",""
"","S2","","html-keyboard-response","88","191476","0.0-1.0-112.0","0","0","96559","","null","","","null","12","","NaN","","","","","","","","","","","","","",""
"","response","","html-keyboard-response","89","192534","0.0-1.0-113.0-0.0","0","0","96559","","1053","","","68","12","","","1","12","training","adjacent","CD","3","4","R.jpg","P.jpg","0","1","0","",""
"","feedback","","html-keyboard-response","90","193539","0.0-1.0-114.0-0.0","0","0","96559","","null","","","null","12","","","","","","","","","","","","","","","",""
"","time_out","","html-keyboard-response","91","195543","0.0-1.0-116.0-0.0","0","0","96559","","null","","","null","12","","","","","","","","","","","","","","","",""
"","ITI","","html-keyboard-response","92","196548","0.0-1.0-117.0","0","0","96559","","null","","","null","12","","","","","","","","","","","","","","","NaN",""
"","S1","","html-keyboard-response","93","196703","0.0-1.0-119.0","0","0","96559","","null","","","null","13","","","","","","","","","","","","","","","",""
"","ISI","","html-keyboard-response","94","198710","0.0-1.0-120.0","0","0","96559","","null","","","null","13","NaN","","","","","","","","","","","","","","",""
"","S2","","html-keyboard-response","95","198865","0.0-1.0-121.0","0","0","96559","","null","","","null","13","","NaN","","","","","","","","","","","","","",""
"","response","","html-keyboard-response","96","199903","0.0-1.0-122.0-0.0","0","0","96559","","1033","","","68","13","","","1","13","training","adjacent","BC","2","3","M.jpg","R.jpg","0","1","0","",""
"","feedback","","html-keyboard-response","97","200908","0.0-1.0-123.0-0.0","0","0","96559","","null","","","null","13","","","","","","","","","","","","","","","",""
"","time_out","","html-keyboard-response","98","202913","0.0-1.0-125.0-0.0","0","0","96559","","null","","","null","13","","","","","","","","","","","","","","","",""
"","ITI","","html-keyboard-response","99","203921","0.0-1.0-126.0","0","0","96559","","null","","","null","13","","","","","","","","","","","","","","","NaN",""
"","S1","","html-keyboard-response","100","204076","0.0-1.0-128.0","0","0","96559","","null","","","null","14","","","","","","","","","","","","","","","",""
"","ISI","","html-keyboard-response","101","206081","0.0-1.0-129.0","0","0","96559","","null","","","null","14","NaN","","","","","","","","","","","","","","",""
"","S2","","html-keyboard-response","102","206236","0.0-1.0-130.0","0","0","96559","","null","","","null","14","","NaN","","","","","","","","","","","","","",""
"","response","","html-keyboard-response","103","207266","0.0-1.0-131.0-0.0","0","0","96559","","1025","","","68","14","","","1","14","training","adjacent","BA","2","1","M.jpg","O.jpg","0","0","1","",""
"","feedback","","html-keyboard-response","104","208271","0.0-1.0-132.0-0.0","0","0","96559","","null","","","null","14","","","","","","","","","","","","","","","",""
"","ITI","","html-keyboard-response","105","209275","0.0-1.0-135.0","0","0","96559","","null","","","null","14","","","","","","","","","","","","","","","NaN",""
"","S1","","html-keyboard-response","106","209429","0.0-1.0-137.0","0","0","96559","","null","","","null","15","","","","","","","","","","","","","","","",""
"","ISI","","html-keyboard-response","107","211433","0.0-1.0-138.0","0","0","96559","","null","","","null","15","NaN","","","","","","","","","","","","","","",""
"","S2","","html-keyboard-response","108","211588","0.0-1.0-139.0","0","0","96559","","null","","","null","15","","NaN","","","","","","","","","","","","","",""
"","response","","html-keyboard-response","109","212698","0.0-1.0-140.0-0.0","0","0","96559","","1104","","","68","15","","","1","15","training","adjacent","GF","7","6","N.jpg","L.jpg","0","0","1","",""
"","feedback","","html-keyboard-response","110","213703","0.0-1.0-141.0-0.0","0","0","96559","","null","","","null","15","","","","","","","","","","","","","","","",""
"","ITI","","html-keyboard-response","111","214708","0.0-1.0-144.0","0","0","96559","","null","","","null","15","","","","","","","","","","","","","","","NaN",""
"","S1","","html-keyboard-response","112","214862","0.0-1.0-146.0","0","0","96559","","null","","","null","16","","","","","","","","","","","","","","","",""
"","ISI","","html-keyboard-response","113","216866","0.0-1.0-147.0","0","0","96559","","null","","","null","16","NaN","","","","","","","","","","","","","","",""
"","S2","","html-keyboard-response","114","217021","0.0-1.0-148.0","0","0","96559","","null","","","null","16","","NaN","","","","","","","","","","","","","",""
"","response","","html-keyboard-response","115","218297","0.0-1.0-149.0-0.0","0","0","96559","","1272","","","68","16","","","1","16","training","adjacent","FG","6","7","L.jpg","N.jpg","0","1","0","",""
"","feedback","","html-keyboard-response","116","219303","0.0-1.0-150.0-0.0","0","0","96559","","null","","","null","16","","","","","","","","","","","","","","","",""
"","time_out","","html-keyboard-response","117","221307","0.0-1.0-152.0-0.0","0","0","96559","","null","","","null","16","","","","","","","","","","","","","","","",""
"","ITI","","html-keyboard-response","118","222311","0.0-1.0-153.0","0","0","96559","","null","","","null","16","","","","","","","","","","","","","","","NaN",""
"","S1","","html-keyboard-response","119","222466","0.0-1.0-155.0","0","0","96559","","null","","","null","17","","","","","","","","","","","","","","","",""
"","ISI","","html-keyboard-response","120","224471","0.0-1.0-156.0","0","0","96559","","null","","","null","17","NaN","","","","","","","","","","","","","","",""
"","S2","","html-keyboard-response","121","224626","0.0-1.0-157.0","0","0","96559","","null","","","null","17","","NaN","","","","","","","","","","","","","",""
"","response","","html-keyboard-response","122","225245","0.0-1.0-158.0-0.0","0","0","96559","","614","","","75","17","","","1","17","training","adjacent","EF","5","6","Q.jpg","L.jpg","1","1","1","",""
"","feedback","","html-keyboard-response","123","226250","0.0-1.0-159.0-0.0","0","0","96559","","null","","","null","17","","","","","","","","","","","","","","","",""
"","ITI","","html-keyboard-response","124","227255","0.0-1.0-162.0","0","0","96559","","null","","","null","17","","","","","","","","","","","","","","","NaN",""
"","S1","","html-keyboard-response","125","227410","0.0-1.0-164.0","0","0","96559","","null","","","null","18","","","","","","","","","","","","","","","",""
"","ISI","","html-keyboard-response","126","229414","0.0-1.0-165.0","0","0","96559","","null","","","null","18","NaN","","","","","","","","","","","","","","",""
"","S2","","html-keyboard-response","127","229569","0.0-1.0-166.0","0","0","96559","","null","","","null","18","","NaN","","","","","","","","","","","","","",""
"","response","","html-keyboard-response","128","230081","0.0-1.0-167.0-0.0","0","0","96559","","508","","","75","18","","","1","18","training","adjacent","DC","4","3","P.jpg","R.jpg","1","0","0","",""
"","feedback","","html-keyboard-response","129","231086","0.0-1.0-168.0-0.0","0","0","96559","","null","","","null","18","","","","","","","","","","","","","","","",""
"","time_out","","html-keyboard-response","130","233091","0.0-1.0-170.0-0.0","0","0","96559","","null","","","null","18","","","","","","","","","","","","","","","",""
"","ITI","","html-keyboard-response","131","234095","0.0-1.0-171.0","0","0","96559","","null","","","null","18","","","","","","","","","","","","","","","NaN",""
"","S1","","html-keyboard-response","132","234250","0.0-1.0-173.0","0","0","96559","","null","","","null","19","","","","","","","","","","","","","","","",""
"","ISI","","html-keyboard-response","133","236254","0.0-1.0-174.0","0","0","96559","","null","","","null","19","NaN","","","","","","","","","","","","","","",""
"","S2","","html-keyboard-response","134","236410","0.0-1.0-175.0","0","0","96559","","null","","","null","19","","NaN","","","","","","","","","","","","","",""
"","response","","html-keyboard-response","135","236945","0.0-1.0-176.0-0.0","0","0","96559","","530","","","75","19","","","1","19","training","adjacent","DC","4","3","P.jpg","R.jpg","1","0","0","",""
"","feedback","","html-keyboard-response","136","237950","0.0-1.0-177.0-0.0","0","0","96559","","null","","","null","19","","","","","","","","","","","","","","","",""
"","time_out","","html-keyboard-response","137","239955","0.0-1.0-179.0-0.0","0","0","96559","","null","","","null","19","","","","","","","","","","","","","","","",""
"","ITI","","html-keyboard-response","138","240960","0.0-1.0-180.0","0","0","96559","","null","","","null","19","","","","","","","","","","","","","","","NaN",""
"","S1","","html-keyboard-response","139","241115","0.0-1.0-182.0","0","0","96559","","null","","","null","20","","","","","","","","","","","","","","","",""
"","ISI","","html-keyboard-response","140","243119","0.0-1.0-183.0","0","0","96559","","null","","","null","20","NaN","","","","","","","","","","","","","","",""
"","S2","","html-keyboard-response","141","243274","0.0-1.0-184.0","0","0","96559","","null","","","null","20","","NaN","","","","","","","","","","","","","",""
"","response","","html-keyboard-response","142","244325","0.0-1.0-185.0-0.0","0","0","96559","","1047","","","68","20","","","1","20","training","adjacent","GF","7","6","N.jpg","L.jpg","0","0","1","",""
"","feedback","","html-keyboard-response","143","245330","0.0-1.0-186.0-0.0","0","0","96559","","null","","","null","20","","","","","","","","","","","","","","","",""
"","ITI","","html-keyboard-response","144","246335","0.0-1.0-189.0","0","0","96559","","null","","","null","20","","","","","","","","","","","","","","","NaN",""
"","S1","","html-keyboard-response","145","246490","0.0-1.0-191.0","0","0","96559","","null","","","null","21","","","","","","","","","","","","","","","",""
"","ISI","","html-keyboard-response","146","248495","0.0-1.0-192.0","0","0","96559","","null","","","null","21","NaN","","","","","","","","","","","","","","",""
"","S2","","html-keyboard-response","147","248650","0.0-1.0-193.0","0","0","96559","","null","","","null","21","","NaN","","","","","","","","","","","","","",""
"","response","","html-keyboard-response","148","249500","0.0-1.0-194.0-0.0","0","0","96559","","845","","","68","21","","","1","21","training","adjacent","GF","7","6","N.jpg","L.jpg","0","0","1","",""
"","feedback","","html-keyboard-response","149","250504","0.0-1.0-195.0-0.0","0","0","96559","","null","","","null","21","","","","","","","","","","","","","","","",""
"","ITI","","html-keyboard-response","150","251512","0.0-1.0-198.0","0","0","96559","","null","","","null","21","","","","","","","","","","","","","","","NaN",""
"","S1","","html-keyboard-response","151","251667","0.0-1.0-200.0","0","0","96559","","null","","","null","22","","","","","","","","","","","","","","","",""
"","ISI","","html-keyboard-response","152","253672","0.0-1.0-201.0","0","0","96559","","null","","","null","22","NaN","","","","","","","","","","","","","","",""
"","S2","","html-keyboard-response","153","253828","0.0-1.0-202.0","0","0","96559","","null","","","null","22","","NaN","","","","","","","","","","","","","",""
"","response","","html-keyboard-response","154","255181","0.0-1.0-203.0-0.0","0","0","96559","","1349","","","68","22","","","1","22","training","adjacent","FE","6","5","L.jpg","Q.jpg","0","0","1","",""
"","feedback","","html-keyboard-response","155","256187","0.0-1.0-204.0-0.0","0","0","96559","","null","","","null","22","","","","","","","","","","","","","","","",""
"","ITI","","html-keyboard-response","156","257192","0.0-1.0-207.0","0","0","96559","","null","","","null","22","","","","","","","","","","","","","","","NaN",""
"","S1","","html-keyboard-response","157","257348","0.0-1.0-209.0","0","0","96559","","null","","","null","23","","","","","","","","","","","","","","","",""
"","ISI","","html-keyboard-response","158","259352","0.0-1.0-210.0","0","0","96559","","null","","","null","23","NaN","","","","","","","","","","","","","","",""
"","S2","","html-keyboard-response","159","259507","0.0-1.0-211.0","0","0","96559","","null","","","null","23","","NaN","","","","","","","","","","","","","",""
"","response","","html-keyboard-response","160","260308","0.0-1.0-212.0-0.0","0","0","96559","","796","","","68","23","","","1","23","training","adjacent","FG","6","7","L.jpg","N.jpg","0","1","0","",""
"","feedback","","html-keyboard-response","161","261313","0.0-1.0-213.0-0.0","0","0","96559","","null","","","null","23","","","","","","","","","","","","","","","",""
"","time_out","","html-keyboard-response","162","263318","0.0-1.0-215.0-0.0","0","0","96559","","null","","","null","23","","","","","","","","","","","","","","","",""
"","ITI","","html-keyboard-response","163","264322","0.0-1.0-216.0","0","0","96559","","null","","","null","23","","","","","","","","","","","","","","","NaN",""
"","S1","","html-keyboard-response","164","264478","0.0-1.0-218.0","0","0","96559","","null","","","null","24","","","","","","","","","","","","","","","",""
"","ISI","","html-keyboard-response","165","266482","0.0-1.0-219.0","0","0","96559","","null","","","null","24","NaN","","","","","","","","","","","","","","",""
"","S2","","html-keyboard-response","166","266638","0.0-1.0-220.0","0","0","96559","","null","","","null","24","","NaN","","","","","","","","","","","","","",""
"","response","","html-keyboard-response","167","267931","0.0-1.0-221.0-0.0","0","0","96559","","1289","","","68","24","","","1","24","training","adjacent","BC","2","3","M.jpg","R.jpg","0","1","0","",""
"","feedback","","html-keyboard-response","168","268937","0.0-1.0-222.0-0.0","0","0","96559","","null","","","null","24","","","","","","","","","","","","","","","",""
"","time_out","","html-keyboard-response","169","270941","0.0-1.0-224.0-0.0","0","0","96559","","null","","","null","24","","","","","","","","","","","","","","","",""
"","ITI","","html-keyboard-response","170","271945","0.0-1.0-225.0","0","0","96559","","null","","","null","24","","","","","","","","","","","","","","","NaN",""
"","S1","","html-keyboard-response","171","272100","0.0-1.0-227.0","0","0","96559","","null","","","null","25","","","","","","","","","","","","","","","",""
"","ISI","","html-keyboard-response","172","274105","0.0-1.0-228.0","0","0","96559","","null","","","null","25","NaN","","","","","","","","","","","","","","",""
"","S2","","html-keyboard-response","173","274261","0.0-1.0-229.0","0","0","96559","","null","","","null","25","","NaN","","","","","","","","","","","","","",""
"","response","","html-keyboard-response","174","275461","0.0-1.0-230.0-0.0","0","0","96559","","1196","","","68","25","","","1","25","training","adjacent","GF","7","6","N.jpg","L.jpg","0","0","1","",""
"","feedback","","html-keyboard-response","175","276466","0.0-1.0-231.0-0.0","0","0","96559","","null","","","null","25","","","","","","","","","","","","","","","",""
"","ITI","","html-keyboard-response","176","277471","0.0-1.0-234.0","0","0","96559","","null","","","null","25","","","","","","","","","","","","","","","NaN",""
"","S1","","html-keyboard-response","177","277626","0.0-1.0-236.0","0","0","96559","","null","","","null","26","","","","","","","","","","","","","","","",""
"","ISI","","html-keyboard-response","178","279630","0.0-1.0-237.0","0","0","96559","","null","","","null","26","NaN","","","","","","","","","","","","","","",""
"","S2","","html-keyboard-response","179","279786","0.0-1.0-238.0","0","0","96559","","null","","","null","26","","NaN","","","","","","","","","","","","","",""
"","response","","html-keyboard-response","180","280231","0.0-1.0-239.0-0.0","0","0","96559","","441","","","75","26","","","1","26","training","adjacent","FG","6","7","L.jpg","N.jpg","1","1","1","",""
"","feedback","","html-keyboard-response","181","281236","0.0-1.0-240.0-0.0","0","0","96559","","null","","","null","26","","","","","","","","","","","","","","","",""
"","ITI","","html-keyboard-response","182","282241","0.0-1.0-243.0","0","0","96559","","null","","","null","26","","","","","","","","","","","","","","","NaN",""
"","S1","","html-keyboard-response","183","282397","0.0-1.0-245.0","0","0","96559","","null","","","null","27","","","","","","","","","","","","","","","",""
"","ISI","","html-keyboard-response","184","284401","0.0-1.0-246.0","0","0","96559","","null","","","null","27","NaN","","","","","","","","","","","","","","",""
"","S2","","html-keyboard-response","185","284557","0.0-1.0-247.0","0","0","96559","","null","","","null","27","","NaN","","","","","","","","","","","","","",""
"","response","","html-keyboard-response","186","285570","0.0-1.0-248.0-0.0","0","0","96559","","1007","","","68","27","","","1","27","training","adjacent","BA","2","1","M.jpg","O.jpg","0","0","1","",""
"","feedback","","html-keyboard-response","187","286576","0.0-1.0-249.0-0.0","0","0","96559","","null","","","null","27","","","","","","","","","","","","","","","",""
"","ITI","","html-keyboard-response","188","287580","0.0-1.0-252.0","0","0","96559","","null","","","null","27","","","","","","","","","","","","","","","NaN",""
"","S1","","html-keyboard-response","189","287736","0.0-1.0-254.0","0","0","96559","","null","","","null","28","","","","","","","","","","","","","","","",""
"","ISI","","html-keyboard-response","190","289740","0.0-1.0-255.0","0","0","96559","","null","","","null","28","NaN","","","","","","","","","","","","","","",""
"","S2","","html-keyboard-response","191","289896","0.0-1.0-256.0","0","0","96559","","null","","","null","28","","NaN","","","","","","","","","","","","","",""
"","response","","html-keyboard-response","192","290285","0.0-1.0-257.0-0.0","0","0","96559","","384","","","75","28","","","1","28","training","adjacent","FG","6","7","L.jpg","N.jpg","1","1","1","",""
"","feedback","","html-keyboard-response","193","291290","0.0-1.0-258.0-0.0","0","0","96559","","null","","","null","28","","","","","","","","","","","","","","","",""
"","ITI","","html-keyboard-response","194","292296","0.0-1.0-261.0","0","0","96559","","null","","","null","28","","","","","","","","","","","","","","","NaN",""
"","S1","","html-keyboard-response","195","292451","0.0-1.0-263.0","0","0","96559","","null","","","null","29","","","","","","","","","","","","","","","",""
"","ISI","","html-keyboard-response","196","294455","0.0-1.0-264.0","0","0","96559","","null","","","null","29","NaN","","","","","","","","","","","","","","",""
"","S2","","html-keyboard-response","197","294611","0.0-1.0-265.0","0","0","96559","","null","","","null","29","","NaN","","","","","","","","","","","","","",""
"","response","","html-keyboard-response","198","295578","0.0-1.0-266.0-0.0","0","0","96559","","960","","","75","29","","","1","29","training","adjacent","AB","1","2","O.jpg","M.jpg","1","1","1","",""
"","feedback","","html-keyboard-response","199","296583","0.0-1.0-267.0-0.0","0","0","96559","","null","","","null","29","","","","","","","","","","","","","","","",""
"","ITI","","html-keyboard-response","200","297588","0.0-1.0-270.0","0","0","96559","","null","","","null","29","","","","","","","","","","","","","","","NaN",""
"","S1","","html-keyboard-response","201","297743","0.0-1.0-272.0","0","0","96559","","null","","","null","30","","","","","","","","","","","","","","","",""
"","ISI","","html-keyboard-response","202","299747","0.0-1.0-273.0","0","0","96559","","null","","","null","30","NaN","","","","","","","","","","","","","","",""
"","S2","","html-keyboard-response","203","299903","0.0-1.0-274.0","0","0","96559","","null","","","null","30","","NaN","","","","","","","","","","","","","",""
"","response","","html-keyboard-response","204","301278","0.0-1.0-275.0-0.0","0","0","96559","","1369","","","68","30","","","1","30","training","adjacent","DE","4","5","P.jpg","Q.jpg","0","1","0","",""
"","feedback","","html-keyboard-response","205","302283","0.0-1.0-276.0-0.0","0","0","96559","","null","","","null","30","","","","","","","","","","","","","","","",""
"","time_out","","html-keyboard-response","206","304288","0.0-1.0-278.0-0.0","0","0","96559","","null","","","null","30","","","","","","","","","","","","","","","",""
"","ITI","","html-keyboard-response","207","305292","0.0-1.0-279.0","0","0","96559","","null","","","null","30","","","","","","","","","","","","","","","NaN",""
"","S1","","html-keyboard-response","208","305447","0.0-1.0-281.0","0","0","96559","","null","","","null","31","","","","","","","","","","","","","","","",""
"","ISI","","html-keyboard-response","209","307451","0.0-1.0-282.0","0","0","96559","","null","","","null","31","NaN","","","","","","","","","","","","","","",""
"","S2","","html-keyboard-response","210","307604","0.0-1.0-283.0","0","0","96559","","null","","","null","31","","NaN","","","","","","","","","","","","","",""
"","response","","html-keyboard-response","211","308743","0.0-1.0-284.0-0.0","0","0","96559","","1136","","","75","31","","","1","31","training","adjacent","CB","3","2","R.jpg","M.jpg","1","0","0","",""
"","feedback","","html-keyboard-response","212","309747","0.0-1.0-285.0-0.0","0","0","96559","","null","","","null","31","","","","","","","","","","","","","","","",""
"","time_out","","html-keyboard-response","213","311752","0.0-1.0-287.0-0.0","0","0","96559","","null","","","null","31","","","","","","","","","","","","","","","",""
"","ITI","","html-keyboard-response","214","312757","0.0-1.0-288.0","0","0","96559","","null","","","null","31","","","","","","","","","","","","","","","NaN",""
"","S1","","html-keyboard-response","215","312910","0.0-1.0-290.0","0","0","96559","","null","","","null","32","","","","","","","","","","","","","","","",""
"","ISI","","html-keyboard-response","216","314914","0.0-1.0-291.0","0","0","96559","","null","","","null","32","NaN","","","","","","","","","","","","","","",""
"","S2","","html-keyboard-response","217","315069","0.0-1.0-292.0","0","0","96559","","null","","","null","32","","NaN","","","","","","","","","","","","","",""
"","response","","html-keyboard-response","218","316204","0.0-1.0-293.0-0.0","0","0","96559","","1129","","","68","32","","","1","32","training","adjacent","CD","3","4","R.jpg","P.jpg","0","1","0","",""
"","feedback","","html-keyboard-response","219","317210","0.0-1.0-294.0-0.0","0","0","96559","","null","","","null","32","","","","","","","","","","","","","","","",""
"","time_out","","html-keyboard-response","220","319215","0.0-1.0-296.0-0.0","0","0","96559","","null","","","null","32","","","","","","","","","","","","","","","",""
"","ITI","","html-keyboard-response","221","320219","0.0-1.0-297.0","0","0","96559","","null","","","null","32","","","","","","","","","","","","","","","NaN",""
"","S1","","html-keyboard-response","222","320374","0.0-1.0-299.0","0","0","96559","","null","","","null","33","","","","","","","","","","","","","","","",""
"","ISI","","html-keyboard-response","223","322379","0.0-1.0-300.0","0","0","96559","","null","","","null","33","NaN","","","","","","","","","","","","","","",""
"","S2","","html-keyboard-response","224","322535","0.0-1.0-301.0","0","0","96559","","null","","","null","33","","NaN","","","","","","","","","","","","","",""
"","response","","html-keyboard-response","225","323018","0.0-1.0-302.0-0.0","0","0","96559","","478","","","75","33","","","1","33","training","adjacent","BC","2","3","M.jpg","R.jpg","1","1","1","",""
"","feedback","","html-keyboard-response","226","324022","0.0-1.0-303.0-0.0","0","0","96559","","null","","","null","33","","","","","","","","","","","","","","","",""
"","ITI","","html-keyboard-response","227","325027","0.0-1.0-306.0","0","0","96559","","null","","","null","33","","","","","","","","","","","","","","","NaN",""
"","S1","","html-keyboard-response","228","325182","0.0-1.0-308.0","0","0","96559","","null","","","null","34","","","","","","","","","","","","","","","",""
"","ISI","","html-keyboard-response","229","327187","0.0-1.0-309.0","0","0","96559","","null","","","null","34","NaN","","","","","","","","","","","","","","",""
"","S2","","html-keyboard-response","230","327342","0.0-1.0-310.0","0","0","96559","","null","","","null","34","","NaN","","","","","","","","","","","","","",""
"","response","","html-keyboard-response","231","328852","0.0-1.0-311.0-0.0","0","0","96559","","1505","","","68","34","","","1","34","training","adjacent","ED","5","4","Q.jpg","P.jpg","0","0","1","",""
"","feedback","","html-keyboard-response","232","329857","0.0-1.0-312.0-0.0","0","0","96559","","null","","","null","34","","","","","","","","","","","","","","","",""
"","ITI","","html-keyboard-response","233","330862","0.0-1.0-315.0","0","0","96559","","null","","","null","34","","","","","","","","","","","","","","","NaN",""
"","S1","","html-keyboard-response","234","331016","0.0-1.0-317.0","0","0","96559","","null","","","null","35","","","","","","","","","","","","","","","",""
"","ISI","","html-keyboard-response","235","333020","0.0-1.0-318.0","0","0","96559","","null","","","null","35","NaN","","","","","","","","","","","","","","",""
"","S2","","html-keyboard-response","236","333175","0.0-1.0-319.0","0","0","96559","","null","","","null","35","","NaN","","","","","","","","","","","","","",""
"","response","","html-keyboard-response","237","334317","0.0-1.0-320.0-0.0","0","0","96559","","1139","","","68","35","","","1","35","training","adjacent","ED","5","4","Q.jpg","P.jpg","0","0","1","",""
"","feedback","","html-keyboard-response","238","335322","0.0-1.0-321.0-0.0","0","0","96559","","null","","","null","35","","","","","","","","","","","","","","","",""
"","ITI","","html-keyboard-response","239","336326","0.0-1.0-324.0","0","0","96559","","null","","","null","35","","","","","","","","","","","","","","","NaN",""
"","S1","","html-keyboard-response","240","336480","0.0-1.0-326.0","0","0","96559","","null","","","null","36","","","","","","","","","","","","","","","",""
"","ISI","","html-keyboard-response","241","338484","0.0-1.0-327.0","0","0","96559","","null","","","null","36","NaN","","","","","","","","","","","","","","",""
"","S2","","html-keyboard-response","242","338639","0.0-1.0-328.0","0","0","96559","","null","","","null","36","","NaN","","","","","","","","","","","","","",""
"","response","","html-keyboard-response","243","339010","0.0-1.0-329.0-0.0","0","0","96559","","367","","","75","36","","","1","36","training","adjacent","BA","2","1","M.jpg","O.jpg","1","0","0","",""
"","feedback","","html-keyboard-response","244","340015","0.0-1.0-330.0-0.0","0","0","96559","","null","","","null","36","","","","","","","","","","","","","","","",""
"","time_out","","html-keyboard-response","245","342020","0.0-1.0-332.0-0.0","0","0","96559","","null","","","null","36","","","","","","","","","","","","","","","",""
"","ITI","","html-keyboard-response","246","343024","0.0-1.0-333.0","0","0","96559","","null","","","null","36","","","","","","","","","","","","","","","NaN",""
"","S1","","html-keyboard-response","247","343178","0.0-1.0-335.0","0","0","96559","","null","","","null","37","","","","","","","","","","","","","","","",""
"","ISI","","html-keyboard-response","248","345182","0.0-1.0-336.0","0","0","96559","","null","","","null","37","NaN","","","","","","","","","","","","","","",""
"","S2","","html-keyboard-response","249","345337","0.0-1.0-337.0","0","0","96559","","null","","","null","37","","NaN","","","","","","","","","","","","","",""
"","response","","html-keyboard-response","250","345672","0.0-1.0-338.0-0.0","0","0","96559","","331","","","75","37","","","1","37","training","adjacent","BC","2","3","M.jpg","R.jpg","1","1","1","",""
"","feedback","","html-keyboard-response","251","346677","0.0-1.0-339.0-0.0","0","0","96559","","null","","","null","37","","","","","","","","","","","","","","","",""
"","ITI","","html-keyboard-response","252","347681","0.0-1.0-342.0","0","0","96559","","null","","","null","37","","","","","","","","","","","","","","","NaN",""
"","S1","","html-keyboard-response","253","347835","0.0-1.0-344.0","0","0","96559","","null","","","null","38","","","","","","","","","","","","","","","",""
"","ISI","","html-keyboard-response","254","349838","0.0-1.0-345.0","0","0","96559","","null","","","null","38","NaN","","","","","","","","","","","","","","",""
"","S2","","html-keyboard-response","255","349993","0.0-1.0-346.0","0","0","96559","","null","","","null","38","","NaN","","","","","","","","","","","","","",""
"","response","","html-keyboard-response","256","350405","0.0-1.0-347.0-0.0","0","0","96559","","408","","","68","38","","","1","38","training","adjacent","EF","5","6","Q.jpg","L.jpg","0","1","0","",""
"","feedback","","html-keyboard-response","257","351410","0.0-1.0-348.0-0.0","0","0","96559","","null","","","null","38","","","","","","","","","","","","","","","",""
"","time_out","","html-keyboard-response","258","353414","0.0-1.0-350.0-0.0","0","0","96559","","null","","","null","38","","","","","","","","","","","","","","","",""
"","ITI","","html-keyboard-response","259","354418","0.0-1.0-351.0","0","0","96559","","null","","","null","38","","","","","","","","","","","","","","","NaN",""
"","S1","","html-keyboard-response","260","354572","0.0-1.0-353.0","0","0","96559","","null","","","null","39","","","","","","","","","","","","","","","",""
"","ISI","","html-keyboard-response","261","356576","0.0-1.0-354.0","0","0","96559","","1483","","","68","39","d","","","","","","","","","","","","","","",""
"","S2","","html-keyboard-response","262","356732","0.0-1.0-355.0","0","0","96559","","null","","","null","39","","NaN","","","","","","","","","","","","","",""
"","response","","html-keyboard-response","263","357990","0.0-1.0-356.0-0.0","0","0","96559","","1254","","","68","39","","","1","39","training","adjacent","ED","5","4","Q.jpg","P.jpg","0","0","1","",""
"","feedback","","html-keyboard-response","264","358995","0.0-1.0-357.0-0.0","0","0","96559","","null","","","null","39","","","","","","","","","","","","","","","",""
"","ITI","","html-keyboard-response","265","359999","0.0-1.0-360.0","0","0","96559","","null","","","null","39","","","","","","","","","","","","","","","NaN",""
"","S1","","html-keyboard-response","266","360154","0.0-1.0-362.0","0","0","96559","","null","","","null","40","","","","","","","","","","","","","","","",""
"","ISI","","html-keyboard-response","267","362158","0.0-1.0-363.0","0","0","96559","","null","","","null","40","NaN","","","","","","","","","","","","","","",""
"","S2","","html-keyboard-response","268","362312","0.0-1.0-364.0","0","0","96559","","null","","","null","40","","NaN","","","","","","","","","","","","","",""
"","response","","html-keyboard-response","269","362612","0.0-1.0-365.0-0.0","0","0","96559","","295","","","75","40","","","1","40","training","adjacent","DC","4","3","P.jpg","R.jpg","1","0","0","",""
"","feedback","","html-keyboard-response","270","363617","0.0-1.0-366.0-0.0","0","0","96559","","null","","","null","40","","","","","","","","","","","","","","","",""
"","time_out","","html-keyboard-response","271","365622","0.0-1.0-368.0-0.0","0","0","96559","","null","","","null","40","","","","","","","","","","","","","","","",""
"","ITI","","html-keyboard-response","272","366626","0.0-1.0-369.0","0","0","96559","","null","","","null","40","","","","","","","","","","","","","","","NaN",""
"","S1","","html-keyboard-response","273","366781","0.0-1.0-371.0","0","0","96559","","null","","","null","41","","","","","","","","","","","","","","","",""
"","ISI","","html-keyboard-response","274","368784","0.0-1.0-372.0","0","0","96559","","null","","","null","41","NaN","","","","","","","","","","","","","","",""
"","S2","","html-keyboard-response","275","368939","0.0-1.0-373.0","0","0","96559","","null","","","null","41","","NaN","","","","","","","","","","","","","",""
"","response","","html-keyboard-response","276","370089","0.0-1.0-374.0-0.0","0","0","96559","","1146","","","68","41","","","1","41","training","adjacent","CB","3","2","R.jpg","M.jpg","0","0","1","",""
"","feedback","","html-keyboard-response","277","371094","0.0-1.0-375.0-0.0","0","0","96559","","null","","","null","41","","","","","","","","","","","","","","","",""
"","ITI","","html-keyboard-response","278","372098","0.0-1.0-378.0","0","0","96559","","null","","","null","41","","","","","","","","","","","","","","","NaN",""
"","S1","","html-keyboard-response","279","372253","0.0-1.0-380.0","0","0","96559","","null","","","null","42","","","","","","","","","","","","","","","",""
"","ISI","","html-keyboard-response","280","374257","0.0-1.0-381.0","0","0","96559","","null","","","null","42","NaN","","","","","","","","","","","","","","",""
"","S2","","html-keyboard-response","281","374412","0.0-1.0-382.0","0","0","96559","","null","","","null","42","","NaN","","","","","","","","","","","","","",""
"","response","","html-keyboard-response","282","375629","0.0-1.0-383.0-0.0","0","0","96559","","1214","","","68","42","","","1","42","training","adjacent","AB","1","2","O.jpg","M.jpg","0","1","0","",""
"","feedback","","html-keyboard-response","283","376635","0.0-1.0-384.0-0.0","0","0","96559","","null","","","null","42","","","","","","","","","","","","","","","",""
"","time_out","","html-keyboard-response","284","378639","0.0-1.0-386.0-0.0","0","0","96559","","null","","","null","42","","","","","","","","","","","","","","","",""
"","ITI","","html-keyboard-response","285","379643","0.0-1.0-387.0","0","0","96559","","null","","","null","42","","","","","","","","","","","","","","","NaN",""
"","S1","","html-keyboard-response","286","379797","0.0-1.0-389.0","0","0","96559","","null","","","null","43","","","","","","","","","","","","","","","",""
"","ISI","","html-keyboard-response","287","381800","0.0-1.0-390.0","0","0","96559","","null","","","null","43","NaN","","","","","","","","","","","","","","",""
"","S2","","html-keyboard-response","288","381955","0.0-1.0-391.0","0","0","96559","","null","","","null","43","","NaN","","","","","","","","","","","","","",""
"","response","","html-keyboard-response","289","383644","0.0-1.0-392.0-0.0","0","0","96559","","1685","","","68","43","","","1","43","training","adjacent","CB","3","2","R.jpg","M.jpg","0","0","1","",""
"","feedback","","html-keyboard-response","290","384649","0.0-1.0-393.0-0.0","0","0","96559","","null","","","null","43","","","","","","","","","","","","","","","",""
"","ITI","","html-keyboard-response","291","385655","0.0-1.0-396.0","0","0","96559","","null","","","null","43","","","","","","","","","","","","","","","NaN",""
"","S1","","html-keyboard-response","292","385810","0.0-1.0-398.0","0","0","96559","","null","","","null","44","","","","","","","","","","","","","","","",""
"","ISI","","html-keyboard-response","293","387814","0.0-1.0-399.0","0","0","96559","","null","","","null","44","NaN","","","","","","","","","","","","","","",""
"","S2","","html-keyboard-response","294","387969","0.0-1.0-400.0","0","0","96559","","null","","","null","44","","NaN","","","","","","","","","","","","","",""
"","response","","html-keyboard-response","295","389559","0.0-1.0-401.0-0.0","0","0","96559","","1586","","","75","44","","","1","44","training","adjacent","DE","4","5","P.jpg","Q.jpg","1","1","1","",""
"","feedback","","html-keyboard-response","296","390564","0.0-1.0-402.0-0.0","0","0","96559","","null","","","null","44","","","","","","","","","","","","","","","",""
"","ITI","","html-keyboard-response","297","391569","0.0-1.0-405.0","0","0","96559","","null","","","null","44","","","","","","","","","","","","","","","NaN",""
"","S1","","html-keyboard-response","298","391723","0.0-1.0-407.0","0","0","96559","","null","","","null","45","","","","","","","","","","","","","","","",""
"","ISI","","html-keyboard-response","299","393727","0.0-1.0-408.0","0","0","96559","","null","","","null","45","NaN","","","","","","","","","","","","","","",""
"","S2","","html-keyboard-response","300","393882","0.0-1.0-409.0","0","0","96559","","null","","","null","45","","NaN","","","","","","","","","","","","","",""
"","response","","html-keyboard-response","301","394955","0.0-1.0-410.0-0.0","0","0","96559","","1068","","","68","45","","","1","45","training","adjacent","CD","3","4","R.jpg","P.jpg","0","1","0","",""
"","feedback","","html-keyboard-response","302","395960","0.0-1.0-411.0-0.0","0","0","96559","","null","","","null","45","","","","","","","","","","","","","","","",""
"","time_out","","html-keyboard-response","303","397965","0.0-1.0-413.0-0.0","0","0","96559","","null","","","null","45","","","","","","","","","","","","","","","",""
"","ITI","","html-keyboard-response","304","398969","0.0-1.0-414.0","0","0","96559","","null","","","null","45","","","","","","","","","","","","","","","NaN",""
"","S1","","html-keyboard-response","305","399124","0.0-1.0-416.0","0","0","96559","","null","","","null","46","","","","","","","","","","","","","","","",""
"","ISI","","html-keyboard-response","306","401128","0.0-1.0-417.0","0","0","96559","","null","","","null","46","NaN","","","","","","","","","","","","","","",""
"","S2","","html-keyboard-response","307","401283","0.0-1.0-418.0","0","0","96559","","null","","","null","46","","NaN","","","","","","","","","","","","","",""
"","response","","html-keyboard-response","308","402404","0.0-1.0-419.0-0.0","0","0","96559","","1117","","","75","46","","","1","46","training","adjacent","ED","5","4","Q.jpg","P.jpg","1","0","0","",""
"","feedback","","html-keyboard-response","309","403409","0.0-1.0-420.0-0.0","0","0","96559","","null","","","null","46","","","","","","","","","","","","","","","",""
"","time_out","","html-keyboard-response","310","405413","0.0-1.0-422.0-0.0","0","0","96559","","null","","","null","46","","","","","","","","","","","","","","","",""
"","ITI","","html-keyboard-response","311","406417","0.0-1.0-423.0","0","0","96559","","null","","","null","46","","","","","","","","","","","","","","","NaN",""
"","S1","","html-keyboard-response","312","406572","0.0-1.0-425.0","0","0","96559","","null","","","null","47","","","","","","","","","","","","","","","",""
"","ISI","","html-keyboard-response","313","408576","0.0-1.0-426.0","0","0","96559","","null","","","null","47","NaN","","","","","","","","","","","","","","",""
"","S2","","html-keyboard-response","314","408730","0.0-1.0-427.0","0","0","96559","","null","","","null","47","","NaN","","","","","","","","","","","","","",""
"","response","","html-keyboard-response","315","409923","0.0-1.0-428.0-0.0","0","0","96559","","1188","","","68","47","","","1","47","training","adjacent","AB","1","2","O.jpg","M.jpg","0","1","0","",""
"","feedback","","html-keyboard-response","316","410928","0.0-1.0-429.0-0.0","0","0","96559","","null","","","null","47","","","","","","","","","","","","","","","",""
"","time_out","","html-keyboard-response","317","412932","0.0-1.0-431.0-0.0","0","0","96559","","null","","","null","47","","","","","","","","","","","","","","","",""
"","ITI","","html-keyboard-response","318","413936","0.0-1.0-432.0","0","0","96559","","null","","","null","47","","","","","","","","","","","","","","","NaN",""
"","block_over","","html-keyboard-response","319","418491","0.0-1.0-433.0-0.0","0","0","96559","","4549","","","32","47","","","","","","","","","","","","","","","",""
"","S1","","html-keyboard-response","320","418645","0.0-1.0-434.0","0","0","96559","","null","","","null","48","","","","","","","","","","","","","","","",""
"","ISI","","html-keyboard-response","321","420649","0.0-1.0-435.0","0","0","96559","","null","","","null","48","NaN","","","","","","","","","","","","","","",""
"","S2","","html-keyboard-response","322","420804","0.0-1.0-436.0","0","0","96559","","null","","","null","48","","NaN","","","","","","","","","","","","","",""
"","response","","html-keyboard-response","323","421850","0.0-1.0-437.0-0.0","0","0","96559","","1042","","","68","48","","","2","48","training","adjacent","FE","6","5","L.jpg","Q.jpg","0","0","1","",""
"","feedback","","html-keyboard-response","324","422855","0.0-1.0-438.0-0.0","0","0","96559","","null","","","null","48","","","","","","","","","","","","","","","",""
"","ITI","","html-keyboard-response","325","423860","0.0-1.0-441.0","0","0","96559","","null","","","null","48","","","","","","","","","","","","","","","NaN",""
"","S1","","html-keyboard-response","326","424014","0.0-1.0-443.0","0","0","96559","","null","","","null","49","","","","","","","","","","","","","","","",""
"","ISI","","html-keyboard-response","327","426018","0.0-1.0-444.0","0","0","96559","","null","","","null","49","NaN","","","","","","","","","","","","","","",""
"","S2","","html-keyboard-response","328","426173","0.0-1.0-445.0","0","0","96559","","null","","","null","49","","NaN","","","","","","","","","","","","","",""
"","response","","html-keyboard-response","329","426278","0.0-1.0-446.0-0.0","0","0","96559","","101","","","68","49","","","2","49","training","adjacent","AB","1","2","O.jpg","M.jpg","0","1","0","",""
"","feedback","","html-keyboard-response","330","427283","0.0-1.0-447.0-0.0","0","0","96559","","null","","","null","49","","","","","","","","","","","","","","","",""
"","time_out","","html-keyboard-response","331","429287","0.0-1.0-449.0-0.0","0","0","96559","","null","","","null","49","","","","","","","","","","","","","","","",""
"","ITI","","html-keyboard-response","332","430291","0.0-1.0-450.0","0","0","96559","","null","","","null","49","","","","","","","","","","","","","","","NaN",""
"","S1","","html-keyboard-response","333","430446","0.0-1.0-452.0","0","0","96559","","null","","","null","50","","","","","","","","","","","","","","","",""
"","ISI","","html-keyboard-response","334","432450","0.0-1.0-453.0","0","0","96559","","null","","","null","50","NaN","","","","","","","","","","","","","","",""
"","S2","","html-keyboard-response","335","432605","0.0-1.0-454.0","0","0","96559","","null","","","null","50","","NaN","","","","","","","","","","","","","",""
"","response","","html-keyboard-response","336","433378","0.0-1.0-455.0-0.0","0","0","96559","","770","","","68","50","","","2","50","training","adjacent","ED","5","4","Q.jpg","P.jpg","0","0","1","",""
"","feedback","","html-keyboard-response","337","434383","0.0-1.0-456.0-0.0","0","0","96559","","null","","","null","50","","","","","","","","","","","","","","","",""
"","ITI","","html-keyboard-response","338","435387","0.0-1.0-459.0","0","0","96559","","null","","","null","50","","","","","","","","","","","","","","","NaN",""
"","S1","","html-keyboard-response","339","435543","0.0-1.0-461.0","0","0","96559","","null","","","null","51","","","","","","","","","","","","","","","",""
"","ISI","","html-keyboard-response","340","437547","0.0-1.0-462.0","0","0","96559","","null","","","null","51","NaN","","","","","","","","","","","","","","",""
"","S2","","html-keyboard-response","341","437702","0.0-1.0-463.0","0","0","96559","","null","","","null","51","","NaN","","","","","","","","","","","","","",""
"","response","","html-keyboard-response","342","438809","0.0-1.0-464.0-0.0","0","0","96559","","1103","","","75","51","","","2","51","training","adjacent","CD","3","4","R.jpg","P.jpg","1","1","1","",""
"","feedback","","html-keyboard-response","343","439812","0.0-1.0-465.0-0.0","0","0","96559","","null","","","null","51","","","","","","","","","","","","","","","",""
"","ITI","","html-keyboard-response","344","440817","0.0-1.0-468.0","0","0","96559","","null","","","null","51","","","","","","","","","","","","","","","NaN",""
"","S1","","html-keyboard-response","345","440971","0.0-1.0-470.0","0","0","96559","","null","","","null","52","","","","","","","","","","","","","","","",""
"","ISI","","html-keyboard-response","346","442975","0.0-1.0-471.0","0","0","96559","","null","","","null","52","NaN","","","","","","","","","","","","","","",""
"","S2","","html-keyboard-response","347","443130","0.0-1.0-472.0","0","0","96559","","null","","","null","52","","NaN","","","","","","","","","","","","","",""
"","response","","html-keyboard-response","348","444097","0.0-1.0-473.0-0.0","0","0","96559","","962","","","75","52","","","2","52","training","adjacent","DC","4","3","P.jpg","R.jpg","1","0","0","",""
"","feedback","","html-keyboard-response","349","445102","0.0-1.0-474.0-0.0","0","0","96559","","null","","","null","52","","","","","","","","","","","","","","","",""
"","time_out","","html-keyboard-response","350","447107","0.0-1.0-476.0-0.0","0","0","96559","","null","","","null","52","","","","","","","","","","","","","","","",""
"","ITI","","html-keyboard-response","351","448111","0.0-1.0-477.0","0","0","96559","","null","","","null","52","","","","","","","","","","","","","","","NaN",""
"","S1","","html-keyboard-response","352","448266","0.0-1.0-479.0","0","0","96559","","null","","","null","53","","","","","","","","","","","","","","","",""
"","ISI","","html-keyboard-response","353","450270","0.0-1.0-480.0","0","0","96559","","null","","","null","53","NaN","","","","","","","","","","","","","","",""
"","S2","","html-keyboard-response","354","450426","0.0-1.0-481.0","0","0","96559","","null","","","null","53","","NaN","","","","","","","","","","","","","",""
"","response","","html-keyboard-response","355","451455","0.0-1.0-482.0-0.0","0","0","96559","","1025","","","75","53","","","2","53","training","adjacent","DC","4","3","P.jpg","R.jpg","1","0","0","",""
"","feedback","","html-keyboard-response","356","452460","0.0-1.0-483.0-0.0","0","0","96559","","null","","","null","53","","","","","","","","","","","","","","","",""
"","time_out","","html-keyboard-response","357","454464","0.0-1.0-485.0-0.0","0","0","96559","","null","","","null","53","","","","","","","","","","","","","","","",""
"","ITI","","html-keyboard-response","358","455468","0.0-1.0-486.0","0","0","96559","","null","","","null","53","","","","","","","","","","","","","","","NaN",""
"","S1","","html-keyboard-response","359","455623","0.0-1.0-488.0","0","0","96559","","null","","","null","54","","","","","","","","","","","","","","","",""
"","ISI","","html-keyboard-response","360","457627","0.0-1.0-489.0","0","0","96559","","null","","","null","54","NaN","","","","","","","","","","","","","","",""
"","S2","","html-keyboard-response","361","457782","0.0-1.0-490.0","0","0","96559","","null","","","null","54","","NaN","","","","","","","","","","","","","",""
"","response","","html-keyboard-response","362","458715","0.0-1.0-491.0-0.0","0","0","96559","","927","","","75","54","","","2","54","training","adjacent","CD","3","4","R.jpg","P.jpg","1","1","1","",""
"","feedback","","html-keyboard-response","363","459720","0.0-1.0-492.0-0.0","0","0","96559","","null","","","null","54","","","","","","","","","","","","","","","",""
"","ITI","","html-keyboard-response","364","460724","0.0-1.0-495.0","0","0","96559","","null","","","null","54","","","","","","","","","","","","","","","NaN",""
"","S1","","html-keyboard-response","365","460879","0.0-1.0-497.0","0","0","96559","","null","","","null","55","","","","","","","","","","","","","","","",""
"","ISI","","html-keyboard-response","366","462883","0.0-1.0-498.0","0","0","96559","","null","","","null","55","NaN","","","","","","","","","","","","","","",""
"","S2","","html-keyboard-response","367","463037","0.0-1.0-499.0","0","0","96559","","null","","","null","55","","NaN","","","","","","","","","","","","","",""
"","response","","html-keyboard-response","368","463983","0.0-1.0-500.0-0.0","0","0","96559","","943","","","68","55","","","2","55","training","adjacent","GF","7","6","N.jpg","L.jpg","0","0","1","",""
"","feedback","","html-keyboard-response","369","464987","0.0-1.0-501.0-0.0","0","0","96559","","null","","","null","55","","","","","","","","","","","","","","","",""
"","ITI","","html-keyboard-response","370","465992","0.0-1.0-504.0","0","0","96559","","null","","","null","55","","","","","","","","","","","","","","","NaN",""
"","S1","","html-keyboard-response","371","466147","0.0-1.0-506.0","0","0","96559","","null","","","null","56","","","","","","","","","","","","","","","",""
"","ISI","","html-keyboard-response","372","468150","0.0-1.0-507.0","0","0","96559","","null","","","null","56","NaN","","","","","","","","","","","","","","",""
"","S2","","html-keyboard-response","373","468305","0.0-1.0-508.0","0","0","96559","","null","","","null","56","","NaN","","","","","","","","","","","","","",""
"","response","","html-keyboard-response","374","469578","0.0-1.0-509.0-0.0","0","0","96559","","1269","","","68","56","","","2","56","training","adjacent","EF","5","6","Q.jpg","L.jpg","0","1","0","",""
"","feedback","","html-keyboard-response","375","470584","0.0-1.0-510.0-0.0","0","0","96559","","null","","","null","56","","","","","","","","","","","","","","","",""
"","time_out","","html-keyboard-response","376","472589","0.0-1.0-512.0-0.0","0","0","96559","","null","","","null","56","","","","","","","","","","","","","","","",""
"","ITI","","html-keyboard-response","377","473592","0.0-1.0-513.0","0","0","96559","","null","","","null","56","","","","","","","","","","","","","","","NaN",""
"","S1","","html-keyboard-response","378","473747","0.0-1.0-515.0","0","0","96559","","null","","","null","57","","","","","","","","","","","","","","","",""
"","ISI","","html-keyboard-response","379","475751","0.0-1.0-516.0","0","0","96559","","null","","","null","57","NaN","","","","","","","","","","","","","","",""
"","S2","","html-keyboard-response","380","475905","0.0-1.0-517.0","0","0","96559","","null","","","null","57","","NaN","","","","","","","","","","","","","",""
"","response","","html-keyboard-response","381","477059","0.0-1.0-518.0-0.0","0","0","96559","","1149","","","68","57","","","2","57","training","adjacent","BA","2","1","M.jpg","O.jpg","0","0","1","",""
"","feedback","","html-keyboard-response","382","478064","0.0-1.0-519.0-0.0","0","0","96559","","null","","","null","57","","","","","","","","","","","","","","","",""
"","ITI","","html-keyboard-response","383","479069","0.0-1.0-522.0","0","0","96559","","null","","","null","57","","","","","","","","","","","","","","","NaN",""
"","S1","","html-keyboard-response","384","479224","0.0-1.0-524.0","0","0","96559","","null","","","null","58","","","","","","","","","","","","","","","",""
"","ISI","","html-keyboard-response","385","481227","0.0-1.0-525.0","0","0","96559","","null","","","null","58","NaN","","","","","","","","","","","","","","",""
"","S2","","html-keyboard-response","386","481382","0.0-1.0-526.0","0","0","96559","","null","","","null","58","","NaN","","","","","","","","","","","","","",""
"","response","","html-keyboard-response","387","482554","0.0-1.0-527.0-0.0","0","0","96559","","1167","","","68","58","","","2","58","training","adjacent","AB","1","2","O.jpg","M.jpg","0","1","0","",""
"","feedback","","html-keyboard-response","388","483559","0.0-1.0-528.0-0.0","0","0","96559","","null","","","null","58","","","","","","","","","","","","","","","",""
"","time_out","","html-keyboard-response","389","485565","0.0-1.0-530.0-0.0","0","0","96559","","null","","","null","58","","","","","","","","","","","","","","","",""
"","ITI","","html-keyboard-response","390","486569","0.0-1.0-531.0","0","0","96559","","null","","","null","58","","","","","","","","","","","","","","","NaN",""
"","S1","","html-keyboard-response","391","486723","0.0-1.0-533.0","0","0","96559","","null","","","null","59","","","","","","","","","","","","","","","",""
"","ISI","","html-keyboard-response","392","488727","0.0-1.0-534.0","0","0","96559","","null","","","null","59","NaN","","","","","","","","","","","","","","",""
"","S2","","html-keyboard-response","393","488882","0.0-1.0-535.0","0","0","96559","","null","","","null","59","","NaN","","","","","","","","","","","","","",""
"","response","","html-keyboard-response","394","490695","0.0-1.0-536.0-0.0","0","0","96559","","1808","","","75","59","","","2","59","training","adjacent","FE","6","5","L.jpg","Q.jpg","1","0","0","",""
"","feedback","","html-keyboard-response","395","491700","0.0-1.0-537.0-0.0","0","0","96559","","null","","","null","59","","","","","","","","","","","","","","","",""
"","time_out","","html-keyboard-response","396","493705","0.0-1.0-539.0-0.0","0","0","96559","","null","","","null","59","","","","","","","","","","","","","","","",""
"","ITI","","html-keyboard-response","397","494709","0.0-1.0-540.0","0","0","96559","","null","","","null","59","","","","","","","","","","","","","","","NaN",""
"","S1","","html-keyboard-response","398","494863","0.0-1.0-542.0","0","0","96559","","null","","","null","60","","","","","","","","","","","","","","","",""
"","ISI","","html-keyboard-response","399","496867","0.0-1.0-543.0","0","0","96559","","null","","","null","60","NaN","","","","","","","","","","","","","","",""
"","S2","","html-keyboard-response","400","497022","0.0-1.0-544.0","0","0","96559","","null","","","null","60","","NaN","","","","","","","","","","","","","",""
"","response","","html-keyboard-response","401","497847","0.0-1.0-545.0-0.0","0","0","96559","","821","","","75","60","","","2","60","training","adjacent","CB","3","2","R.jpg","M.jpg","1","0","0","",""
"","feedback","","html-keyboard-response","402","498852","0.0-1.0-546.0-0.0","0","0","96559","","null","","","null","60","","","","","","","","","","","","","","","",""
"","time_out","","html-keyboard-response","403","500857","0.0-1.0-548.0-0.0","0","0","96559","","null","","","null","60","","","","","","","","","","","","","","","",""
"","ITI","","html-keyboard-response","404","501861","0.0-1.0-549.0","0","0","96559","","null","","","null","60","","","","","","","","","","","","","","","NaN",""
"","S1","","html-keyboard-response","405","502015","0.0-1.0-551.0","0","0","96559","","null","","","null","61","","","","","","","","","","","","","","","",""
"","ISI","","html-keyboard-response","406","504018","0.0-1.0-552.0","0","0","96559","","null","","","null","61","NaN","","","","","","","","","","","","","","",""
"","S2","","html-keyboard-response","407","504173","0.0-1.0-553.0","0","0","96559","","null","","","null","61","","NaN","","","","","","","","","","","","","",""
"","response","","html-keyboard-response","408","505013","0.0-1.0-554.0-0.0","0","0","96559","","837","","","75","61","","","2","61","training","adjacent","DC","4","3","P.jpg","R.jpg","1","0","0","",""
"","feedback","","html-keyboard-response","409","506017","0.0-1.0-555.0-0.0","0","0","96559","","null","","","null","61","","","","","","","","","","","","","","","",""
"","time_out","","html-keyboard-response","410","508022","0.0-1.0-557.0-0.0","0","0","96559","","null","","","null","61","","","","","","","","","","","","","","","",""
"","ITI","","html-keyboard-response","411","509026","0.0-1.0-558.0","0","0","96559","","null","","","null","61","","","","","","","","","","","","","","","NaN",""
"","S1","","html-keyboard-response","412","509181","0.0-1.0-560.0","0","0","96559","","null","","","null","62","","","","","","","","","","","","","","","",""
"","ISI","","html-keyboard-response","413","511185","0.0-1.0-561.0","0","0","96559","","null","","","null","62","NaN","","","","","","","","","","","","","","",""
"","S2","","html-keyboard-response","414","511340","0.0-1.0-562.0","0","0","96559","","null","","","null","62","","NaN","","","","","","","","","","","","","",""
"","response","","html-keyboard-response","415","511690","0.0-1.0-563.0-0.0","0","0","96559","","346","","","75","62","","","2","62","training","adjacent","EF","5","6","Q.jpg","L.jpg","1","1","1","",""
"","feedback","","html-keyboard-response","416","512695","0.0-1.0-564.0-0.0","0","0","96559","","null","","","null","62","","","","","","","","","","","","","","","",""
"","ITI","","html-keyboard-response","417","513701","0.0-1.0-567.0","0","0","96559","","null","","","null","62","","","","","","","","","","","","","","","NaN",""
"","S1","","html-keyboard-response","418","513855","0.0-1.0-569.0","0","0","96559","","null","","","null","63","","","","","","","","","","","","","","","",""
"","ISI","","html-keyboard-response","419","515860","0.0-1.0-570.0","0","0","96559","","null","","","null","63","NaN","","","","","","","","","","","","","","",""
"","S2","","html-keyboard-response","420","516015","0.0-1.0-571.0","0","0","96559","","null","","","null","63","","NaN","","","","","","","","","","","","","",""
"","response","","html-keyboard-response","421","517829","0.0-1.0-572.0-0.0","0","0","96559","","1809","","","68","63","","","2","63","training","adjacent","DE","4","5","P.jpg","Q.jpg","0","1","0","",""
"","feedback","","html-keyboard-response","422","518834","0.0-1.0-573.0-0.0","0","0","96559","","null","","","null","63","","","","","","","","","","","","","","","",""
"","time_out","","html-keyboard-response","423","520838","0.0-1.0-575.0-0.0","0","0","96559","","null","","","null","63","","","","","","","","","","","","","","","",""
"","ITI","","html-keyboard-response","424","521842","0.0-1.0-576.0","0","0","96559","","null","","","null","63","","","","","","","","","","","","","","","NaN",""
"","S1","","html-keyboard-response","425","521997","0.0-1.0-578.0","0","0","96559","","null","","","null","64","","","","","","","","","","","","","","","",""
"","ISI","","html-keyboard-response","426","524000","0.0-1.0-579.0","0","0","96559","","null","","","null","64","NaN","","","","","","","","","","","","","","",""
"","S2","","html-keyboard-response","427","524155","0.0-1.0-580.0","0","0","96559","","null","","","null","64","","NaN","","","","","","","","","","","","","",""
"","response","","html-keyboard-response","428","525986","0.0-1.0-581.0-0.0","0","0","96559","","1827","","","68","64","","","2","64","training","adjacent","FE","6","5","L.jpg","Q.jpg","0","0","1","",""
"","feedback","","html-keyboard-response","429","526991","0.0-1.0-582.0-0.0","0","0","96559","","null","","","null","64","","","","","","","","","","","","","","","",""
"","ITI","","html-keyboard-response","430","527996","0.0-1.0-585.0","0","0","96559","","null","","","null","64","","","","","","","","","","","","","","","NaN",""
"","S1","","html-keyboard-response","431","528151","0.0-1.0-587.0","0","0","96559","","null","","","null","65","","","","","","","","","","","","","","","",""
"","ISI","","html-keyboard-response","432","530155","0.0-1.0-588.0","0","0","96559","","null","","","null","65","NaN","","","","","","","","","","","","","","",""
"","S2","","html-keyboard-response","433","530310","0.0-1.0-589.0","0","0","96559","","null","","","null","65","","NaN","","","","","","","","","","","","","",""
"","response","","html-keyboard-response","434","531596","0.0-1.0-590.0-0.0","0","0","96559","","1281","","","68","65","","","2","65","training","adjacent","ED","5","4","Q.jpg","P.jpg","0","0","1","",""
"","feedback","","html-keyboard-response","435","532602","0.0-1.0-591.0-0.0","0","0","96559","","null","","","null","65","","","","","","","","","","","","","","","",""
"","ITI","","html-keyboard-response","436","533606","0.0-1.0-594.0","0","0","96559","","null","","","null","65","","","","","","","","","","","","","","","NaN",""
"","S1","","html-keyboard-response","437","533761","0.0-1.0-596.0","0","0","96559","","null","","","null","66","","","","","","","","","","","","","","","",""
"","ISI","","html-keyboard-response","438","535765","0.0-1.0-597.0","0","0","96559","","null","","","null","66","NaN","","","","","","","","","","","","","","",""
"","S2","","html-keyboard-response","439","535919","0.0-1.0-598.0","0","0","96559","","null","","","null","66","","NaN","","","","","","","","","","","","","",""
"","response","","html-keyboard-response","440","537156","0.0-1.0-599.0-0.0","0","0","96559","","1231","","","75","66","","","2","66","training","adjacent","FG","6","7","L.jpg","N.jpg","1","1","1","",""
"","feedback","","html-keyboard-response","441","538163","0.0-1.0-600.0-0.0","0","0","96559","","null","","","null","66","","","","","","","","","","","","","","","",""
"","ITI","","html-keyboard-response","442","539169","0.0-1.0-603.0","0","0","96559","","null","","","null","66","","","","","","","","","","","","","","","NaN",""
"","S1","","html-keyboard-response","443","539323","0.0-1.0-605.0","0","0","96559","","null","","","null","67","","","","","","","","","","","","","","","",""
"","ISI","","html-keyboard-response","444","541327","0.0-1.0-606.0","0","0","96559","","null","","","null","67","NaN","","","","","","","","","","","","","","",""
"","S2","","html-keyboard-response","445","541482","0.0-1.0-607.0","0","0","96559","","null","","","null","67","","NaN","","","","","","","","","","","","","",""
"","response","","html-keyboard-response","446","542342","0.0-1.0-608.0-0.0","0","0","96559","","857","","","75","67","","","2","67","training","adjacent","EF","5","6","Q.jpg","L.jpg","1","1","1","",""
"","feedback","","html-keyboard-response","447","543348","0.0-1.0-609.0-0.0","0","0","96559","","null","","","null","67","","","","","","","","","","","","","","","",""
"","ITI","","html-keyboard-response","448","544352","0.0-1.0-612.0","0","0","96559","","null","","","null","67","","","","","","","","","","","","","","","NaN",""
"","S1","","html-keyboard-response","449","544507","0.0-1.0-614.0","0","0","96559","","null","","","null","68","","","","","","","","","","","","","","","",""
"","ISI","","html-keyboard-response","450","546511","0.0-1.0-615.0","0","0","96559","","null","","","null","68","NaN","","","","","","","","","","","","","","",""
"","S2","","html-keyboard-response","451","546666","0.0-1.0-616.0","0","0","96559","","null","","","null","68","","NaN","","","","","","","","","","","","","",""
"","response","","html-keyboard-response","452","547760","0.0-1.0-617.0-0.0","0","0","96559","","1091","","","68","68","","","2","68","training","adjacent","FE","6","5","L.jpg","Q.jpg","0","0","1","",""
"","feedback","","html-keyboard-response","453","548766","0.0-1.0-618.0-0.0","0","0","96559","","null","","","null","68","","","","","","","","","","","","","","","",""
"","ITI","","html-keyboard-response","454","549771","0.0-1.0-621.0","0","0","96559","","null","","","null","68","","","","","","","","","","","","","","","NaN",""
"","S1","","html-keyboard-response","455","549925","0.0-1.0-623.0","0","0","96559","","null","","","null","69","","","","","","","","","","","","","","","",""
"","ISI","","html-keyboard-response","456","551929","0.0-1.0-624.0","0","0","96559","","null","","","null","69","NaN","","","","","","","","","","","","","","",""
"","S2","","html-keyboard-response","457","552084","0.0-1.0-625.0","0","0","96559","","null","","","null","69","","NaN","","","","","","","","","","","","","",""
"","response","","html-keyboard-response","458","553594","0.0-1.0-626.0-0.0","0","0","96559","","1506","","","75","69","","","2","69","training","adjacent","CB","3","2","R.jpg","M.jpg","1","0","0","",""
"","feedback","","html-keyboard-response","459","554600","0.0-1.0-627.0-0.0","0","0","96559","","null","","","null","69","","","","","","","","","","","","","","","",""
"","time_out","","html-keyboard-response","460","556604","0.0-1.0-629.0-0.0","0","0","96559","","null","","","null","69","","","","","","","","","","","","","","","",""
"","ITI","","html-keyboard-response","461","557608","0.0-1.0-630.0","0","0","96559","","null","","","null","69","","","","","","","","","","","","","","","NaN",""
"","S1","","html-keyboard-response","462","557763","0.0-1.0-632.0","0","0","96559","","null","","","null","70","","","","","","","","","","","","","","","",""
"","ISI","","html-keyboard-response","463","559767","0.0-1.0-633.0","0","0","96559","","null","","","null","70","NaN","","","","","","","","","","","","","","",""
"","S2","","html-keyboard-response","464","559921","0.0-1.0-634.0","0","0","96559","","null","","","null","70","","NaN","","","","","","","","","","","","","",""
"","response","","html-keyboard-response","465","560804","0.0-1.0-635.0-0.0","0","0","96559","","879","","","75","70","","","2","70","training","adjacent","GF","7","6","N.jpg","L.jpg","1","0","0","",""
"","feedback","","html-keyboard-response","466","561809","0.0-1.0-636.0-0.0","0","0","96559","","null","","","null","70","","","","","","","","","","","","","","","",""
"","time_out","","html-keyboard-response","467","563814","0.0-1.0-638.0-0.0","0","0","96559","","null","","","null","70","","","","","","","","","","","","","","","",""
"","ITI","","html-keyboard-response","468","564819","0.0-1.0-639.0","0","0","96559","","null","","","null","70","","","","","","","","","","","","","","","NaN",""
"","S1","","html-keyboard-response","469","564974","0.0-1.0-641.0","0","0","96559","","null","","","null","71","","","","","","","","","","","","","","","",""
"","ISI","","html-keyboard-response","470","566978","0.0-1.0-642.0","0","0","96559","","null","","","null","71","NaN","","","","","","","","","","","","","","",""
"","S2","","html-keyboard-response","471","567133","0.0-1.0-643.0","0","0","96559","","null","","","null","71","","NaN","","","","","","","","","","","","","",""
"","response","","html-keyboard-response","472","568145","0.0-1.0-644.0-0.0","0","0","96559","","1008","","","75","71","","","2","71","training","adjacent","BC","2","3","M.jpg","R.jpg","1","1","1","",""
"","feedback","","html-keyboard-response","473","569150","0.0-1.0-645.0-0.0","0","0","96559","","null","","","null","71","","","","","","","","","","","","","","","",""
"","ITI","","html-keyboard-response","474","570156","0.0-1.0-648.0","0","0","96559","","71","","","68","71","","","","","","","","","","","","","","","d",""
"","S1","","html-keyboard-response","475","570311","0.0-1.0-650.0","0","0","96559","","null","","","null","72","","","","","","","","","","","","","","","",""
"","ISI","","html-keyboard-response","476","572315","0.0-1.0-651.0","0","0","96559","","null","","","null","72","NaN","","","","","","","","","","","","","","",""
"","S2","","html-keyboard-response","477","572470","0.0-1.0-652.0","0","0","96559","","null","","","null","72","","NaN","","","","","","","","","","","","","",""
"","response","","html-keyboard-response","478","573588","0.0-1.0-653.0-0.0","0","0","96559","","1114","","","68","72","","","2","72","training","adjacent","AB","1","2","O.jpg","M.jpg","0","1","0","",""
"","feedback","","html-keyboard-response","479","574593","0.0-1.0-654.0-0.0","0","0","96559","","null","","","null","72","","","","","","","","","","","","","","","",""
"","time_out","","html-keyboard-response","480","576598","0.0-1.0-656.0-0.0","0","0","96559","","null","","","null","72","","","","","","","","","","","","","","","",""
"","ITI","","html-keyboard-response","481","577602","0.0-1.0-657.0","0","0","96559","","null","","","null","72","","","","","","","","","","","","","","","NaN",""
"","S1","","html-keyboard-response","482","577757","0.0-1.0-659.0","0","0","96559","","null","","","null","73","","","","","","","","","","","","","","","",""
"","ISI","","html-keyboard-response","483","579762","0.0-1.0-660.0","0","0","96559","","null","","","null","73","NaN","","","","","","","","","","","","","","",""
"","S2","","html-keyboard-response","484","579917","0.0-1.0-661.0","0","0","96559","","null","","","null","73","","NaN","","","","","","","","","","","","","",""
"","response","","html-keyboard-response","485","581120","0.0-1.0-662.0-0.0","0","0","96559","","1199","","","68","73","","","2","73","training","adjacent","CB","3","2","R.jpg","M.jpg","0","0","1","",""
"","feedback","","html-keyboard-response","486","582126","0.0-1.0-663.0-0.0","0","0","96559","","null","","","null","73","","","","","","","","","","","","","","","",""
"","ITI","","html-keyboard-response","487","583130","0.0-1.0-666.0","0","0","96559","","null","","","null","73","","","","","","","","","","","","","","","NaN",""
"","S1","","html-keyboard-response","488","583285","0.0-1.0-668.0","0","0","96559","","null","","","null","74","","","","","","","","","","","","","","","",""
"","ISI","","html-keyboard-response","489","585289","0.0-1.0-669.0","0","0","96559","","null","","","null","74","NaN","","","","","","","","","","","","","","",""
"","S2","","html-keyboard-response","490","585444","0.0-1.0-670.0","0","0","96559","","null","","","null","74","","NaN","","","","","","","","","","","","","",""
"","response","","html-keyboard-response","491","586338","0.0-1.0-671.0-0.0","0","0","96559","","890","","","75","74","","","2","74","training","adjacent","ED","5","4","Q.jpg","P.jpg","1","0","0","",""
"","feedback","","html-keyboard-response","492","587344","0.0-1.0-672.0-0.0","0","0","96559","","null","","","null","74","","","","","","","","","","","","","","","",""
"","time_out","","html-keyboard-response","493","589348","0.0-1.0-674.0-0.0","0","0","96559","","null","","","null","74","","","","","","","","","","","","","","","",""
"","ITI","","html-keyboard-response","494","590352","0.0-1.0-675.0","0","0","96559","","null","","","null","74","","","","","","","","","","","","","","","NaN",""
"","S1","","html-keyboard-response","495","590508","0.0-1.0-677.0","0","0","96559","","null","","","null","75","","","","","","","","","","","","","","","",""
"","ISI","","html-keyboard-response","496","592512","0.0-1.0-678.0","0","0","96559","","null","","","null","75","NaN","","","","","","","","","","","","","","",""
"","S2","","html-keyboard-response","497","592667","0.0-1.0-679.0","0","0","96559","","null","","","null","75","","NaN","","","","","","","","","","","","","",""
"","response","","html-keyboard-response","498","593710","0.0-1.0-680.0-0.0","0","0","96559","","1038","","","68","75","","","2","75","training","adjacent","BA","2","1","M.jpg","O.jpg","0","0","1","",""
"","feedback","","html-keyboard-response","499","594715","0.0-1.0-681.0-0.0","0","0","96559","","null","","","null","75","","","","","","","","","","","","","","","",""
"","ITI","","html-keyboard-response","500","595720","0.0-1.0-684.0","0","0","96559","","null","","","null","75","","","","","","","","","","","","","","","NaN",""
"","S1","","html-keyboard-response","501","595875","0.0-1.0-686.0","0","0","96559","","null","","","null","76","","","","","","","","","","","","","","","",""
"","ISI","","html-keyboard-response","502","597878","0.0-1.0-687.0","0","0","96559","","null","","","null","76","NaN","","","","","","","","","","","","","","",""
"","S2","","html-keyboard-response","503","598034","0.0-1.0-688.0","0","0","96559","","null","","","null","76","","NaN","","","","","","","","","","","","","",""
"","response","","html-keyboard-response","504","599710","0.0-1.0-689.0-0.0","0","0","96559","","1672","","","75","76","","","2","76","training","adjacent","BC","2","3","M.jpg","R.jpg","1","1","1","",""
"","feedback","","html-keyboard-response","505","600715","0.0-1.0-690.0-0.0","0","0","96559","","null","","","null","76","","","","","","","","","","","","","","","",""
"","ITI","","html-keyboard-response","506","601721","0.0-1.0-693.0","0","0","96559","","null","","","null","76","","","","","","","","","","","","","","","NaN",""
"","S1","","html-keyboard-response","507","601877","0.0-1.0-695.0","0","0","96559","","null","","","null","77","","","","","","","","","","","","","","","",""
"","ISI","","html-keyboard-response","508","603881","0.0-1.0-696.0","0","0","96559","","null","","","null","77","NaN","","","","","","","","","","","","","","",""
"","S2","","html-keyboard-response","509","604036","0.0-1.0-697.0","0","0","96559","","null","","","null","77","","NaN","","","","","","","","","","","","","",""
"","response","","html-keyboard-response","510","605365","0.0-1.0-698.0-0.0","0","0","96559","","1326","","","68","77","","","2","77","training","adjacent","DC","4","3","P.jpg","R.jpg","0","0","1","",""
"","feedback","","html-keyboard-response","511","606371","0.0-1.0-699.0-0.0","0","0","96559","","null","","","null","77","","","","","","","","","","","","","","","",""
"","ITI","","html-keyboard-response","512","607377","0.0-1.0-702.0","0","0","96559","","null","","","null","77","","","","","","","","","","","","","","","NaN",""
"","S1","","html-keyboard-response","513","607532","0.0-1.0-704.0","0","0","96559","","null","","","null","78","","","","","","","","","","","","","","","",""
"","ISI","","html-keyboard-response","514","609536","0.0-1.0-705.0","0","0","96559","","null","","","null","78","NaN","","","","","","","","","","","","","","",""
"","S2","","html-keyboard-response","515","609691","0.0-1.0-706.0","0","0","96559","","null","","","null","78","","NaN","","","","","","","","","","","","","",""
"","response","","html-keyboard-response","516","611303","0.0-1.0-707.0-0.0","0","0","96559","","1607","","","68","78","","","2","78","training","adjacent","CB","3","2","R.jpg","M.jpg","0","0","1","",""
"","feedback","","html-keyboard-response","517","612308","0.0-1.0-708.0-0.0","0","0","96559","","null","","","null","78","","","","","","","","","","","","","","","",""
"","ITI","","html-keyboard-response","518","613313","0.0-1.0-711.0","0","0","96559","","null","","","null","78","","","","","","","","","","","","","","","NaN",""
"","S1","","html-keyboard-response","519","613468","0.0-1.0-713.0","0","0","96559","","null","","","null","79","","","","","","","","","","","","","","","",""
"","ISI","","html-keyboard-response","520","615472","0.0-1.0-714.0","0","0","96559","","null","","","null","79","NaN","","","","","","","","","","","","","","",""
"","S2","","html-keyboard-response","521","615627","0.0-1.0-715.0","0","0","96559","","null","","","null","79","","NaN","","","","","","","","","","","","","",""
"","response","","html-keyboard-response","522","617165","0.0-1.0-716.0-0.0","0","0","96559","","1532","","","68","79","","","2","79","training","adjacent","GF","7","6","N.jpg","L.jpg","0","0","1","",""
"","feedback","","html-keyboard-response","523","618170","0.0-1.0-717.0-0.0","0","0","96559","","null","","","null","79","","","","","","","","","","","","","","","",""
"","ITI","","html-keyboard-response","524","619175","0.0-1.0-720.0","0","0","96559","","null","","","null","79","","","","","","","","","","","","","","","NaN",""
"","S1","","html-keyboard-response","525","619330","0.0-1.0-722.0","0","0","96559","","null","","","null","80","","","","","","","","","","","","","","","",""
"","ISI","","html-keyboard-response","526","621334","0.0-1.0-723.0","0","0","96559","","null","","","null","80","NaN","","","","","","","","","","","","","","",""
"","S2","","html-keyboard-response","527","621490","0.0-1.0-724.0","0","0","96559","","null","","","null","80","","NaN","","","","","","","","","","","","","",""
"","response","","html-keyboard-response","528","622837","0.0-1.0-725.0-0.0","0","0","96559","","1343","","","68","80","","","2","80","training","adjacent","DE","4","5","P.jpg","Q.jpg","0","1","0","",""
"","feedback","","html-keyboard-response","529","623843","0.0-1.0-726.0-0.0","0","0","96559","","null","","","null","80","","","","","","","","","","","","","","","",""
"","time_out","","html-keyboard-response","530","625848","0.0-1.0-728.0-0.0","0","0","96559","","null","","","null","80","","","","","","","","","","","","","","","",""
"","ITI","","html-keyboard-response","531","626852","0.0-1.0-729.0","0","0","96559","","null","","","null","80","","","","","","","","","","","","","","","NaN",""
"","S1","","html-keyboard-response","532","627007","0.0-1.0-731.0","0","0","96559","","null","","","null","81","","","","","","","","","","","","","","","",""
"","ISI","","html-keyboard-response","533","629011","0.0-1.0-732.0","0","0","96559","","null","","","null","81","NaN","","","","","","","","","","","","","","",""
"","S2","","html-keyboard-response","534","629166","0.0-1.0-733.0","0","0","96559","","null","","","null","81","","NaN","","","","","","","","","","","","","",""
"","response","","html-keyboard-response","535","630414","0.0-1.0-734.0-0.0","0","0","96559","","1243","","","75","81","","","2","81","training","adjacent","FG","6","7","L.jpg","N.jpg","1","1","1","",""
"","feedback","","html-keyboard-response","536","631420","0.0-1.0-735.0-0.0","0","0","96559","","null","","","null","81","","","","","","","","","","","","","","","",""
"","ITI","","html-keyboard-response","537","632425","0.0-1.0-738.0","0","0","96559","","null","","","null","81","","","","","","","","","","","","","","","NaN",""
"","S1","","html-keyboard-response","538","632581","0.0-1.0-740.0","0","0","96559","","null","","","null","82","","","","","","","","","","","","","","","",""
"","ISI","","html-keyboard-response","539","634585","0.0-1.0-741.0","0","0","96559","","null","","","null","82","NaN","","","","","","","","","","","","","","",""
"","S2","","html-keyboard-response","540","634740","0.0-1.0-742.0","0","0","96559","","null","","","null","82","","NaN","","","","","","","","","","","","","",""
"","response","","html-keyboard-response","541","636380","0.0-1.0-743.0-0.0","0","0","96559","","1636","","","68","82","","","2","82","training","adjacent","BC","2","3","M.jpg","R.jpg","0","1","0","",""
"","feedback","","html-keyboard-response","542","637385","0.0-1.0-744.0-0.0","0","0","96559","","null","","","null","82","","","","","","","","","","","","","","","",""
"","time_out","","html-keyboard-response","543","639391","0.0-1.0-746.0-0.0","0","0","96559","","null","","","null","82","","","","","","","","","","","","","","","",""
"","ITI","","html-keyboard-response","544","640395","0.0-1.0-747.0","0","0","96559","","null","","","null","82","","","","","","","","","","","","","","","NaN",""
"","S1","","html-keyboard-response","545","640549","0.0-1.0-749.0","0","0","96559","","null","","","null","83","","","","","","","","","","","","","","","",""
"","ISI","","html-keyboard-response","546","642553","0.0-1.0-750.0","0","0","96559","","null","","","null","83","NaN","","","","","","","","","","","","","","",""
"","S2","","html-keyboard-response","547","642708","0.0-1.0-751.0","0","0","96559","","null","","","null","83","","NaN","","","","","","","","","","","","","",""
"","response","","html-keyboard-response","548","643636","0.0-1.0-752.0-0.0","0","0","96559","","923","","","75","83","","","2","83","training","adjacent","BC","2","3","M.jpg","R.jpg","1","1","1","",""
"","feedback","","html-keyboard-response","549","644642","0.0-1.0-753.0-0.0","0","0","96559","","null","","","null","83","","","","","","","","","","","","","","","",""
"","ITI","","html-keyboard-response","550","645648","0.0-1.0-756.0","0","0","96559","","null","","","null","83","","","","","","","","","","","","","","","NaN",""
"","S1","","html-keyboard-response","551","645803","0.0-1.0-758.0","0","0","96559","","null","","","null","84","","","","","","","","","","","","","","","",""
"","ISI","","html-keyboard-response","552","647806","0.0-1.0-759.0","0","0","96559","","null","","","null","84","NaN","","","","","","","","","","","","","","",""
"","S2","","html-keyboard-response","553","647961","0.0-1.0-760.0","0","0","96559","","null","","","null","84","","NaN","","","","","","","","","","","","","",""
"","response","","html-keyboard-response","554","649050","0.0-1.0-761.0-0.0","0","0","96559","","1084","","","68","84","","","2","84","training","adjacent","CD","3","4","R.jpg","P.jpg","0","1","0","",""
"","feedback","","html-keyboard-response","555","650056","0.0-1.0-762.0-0.0","0","0","96559","","null","","","null","84","","","","","","","","","","","","","","","",""
"","time_out","","html-keyboard-response","556","652061","0.0-1.0-764.0-0.0","0","0","96559","","null","","","null","84","","","","","","","","","","","","","","","",""
"","ITI","","html-keyboard-response","557","653065","0.0-1.0-765.0","0","0","96559","","null","","","null","84","","","","","","","","","","","","","","","NaN",""
"","S1","","html-keyboard-response","558","653220","0.0-1.0-767.0","0","0","96559","","null","","","null","85","","","","","","","","","","","","","","","",""
"","ISI","","html-keyboard-response","559","655225","0.0-1.0-768.0","0","0","96559","","null","","","null","85","NaN","","","","","","","","","","","","","","",""
"","S2","","html-keyboard-response","560","655379","0.0-1.0-769.0","0","0","96559","","null","","","null","85","","NaN","","","","","","","","","","","","","",""
"","response","","html-keyboard-response","561","656540","0.0-1.0-770.0-0.0","0","0","96559","","1156","","","68","85","","","2","85","training","adjacent","BA","2","1","M.jpg","O.jpg","0","0","1","",""
"","feedback","","html-keyboard-response","562","657545","0.0-1.0-771.0-0.0","0","0","96559","","null","","","null","85","","","","","","","","","","","","","","","",""
"","ITI","","html-keyboard-response","563","658551","0.0-1.0-774.0","0","0","96559","","null","","","null","85","","","","","","","","","","","","","","","NaN",""
"","S1","","html-keyboard-response","564","658706","0.0-1.0-776.0","0","0","96559","","null","","","null","86","","","","","","","","","","","","","","","",""
"","ISI","","html-keyboard-response","565","660710","0.0-1.0-777.0","0","0","96559","","null","","","null","86","NaN","","","","","","","","","","","","","","",""
"","S2","","html-keyboard-response","566","660865","0.0-1.0-778.0","0","0","96559","","null","","","null","86","","NaN","","","","","","","","","","","","","",""
"","response","","html-keyboard-response","567","661936","0.0-1.0-779.0-0.0","0","0","96559","","1066","","","68","86","","","2","86","training","adjacent","GF","7","6","N.jpg","L.jpg","0","0","1","",""
"","feedback","","html-keyboard-response","568","662942","0.0-1.0-780.0-0.0","0","0","96559","","null","","","null","86","","","","","","","","","","","","","","","",""
"","ITI","","html-keyboard-response","569","663948","0.0-1.0-783.0","0","0","96559","","null","","","null","86","","","","","","","","","","","","","","","NaN",""
"","S1","","html-keyboard-response","570","664102","0.0-1.0-785.0","0","0","96559","","null","","","null","87","","","","","","","","","","","","","","","",""
"","ISI","","html-keyboard-response","571","666106","0.0-1.0-786.0","0","0","96559","","null","","","null","87","NaN","","","","","","","","","","","","","","",""
"","S2","","html-keyboard-response","572","666261","0.0-1.0-787.0","0","0","96559","","null","","","null","87","","NaN","","","","","","","","","","","","","",""
"","response","","html-keyboard-response","573","667066","0.0-1.0-788.0-0.0","0","0","96559","","801","","","68","87","","","2","87","training","adjacent","EF","5","6","Q.jpg","L.jpg","0","1","0","",""
"","feedback","","html-keyboard-response","574","668070","0.0-1.0-789.0-0.0","0","0","96559","","null","","","null","87","","","","","","","","","","","","","","","",""
"","time_out","","html-keyboard-response","575","670075","0.0-1.0-791.0-0.0","0","0","96559","","null","","","null","87","","","","","","","","","","","","","","","",""
"","ITI","","html-keyboard-response","576","671079","0.0-1.0-792.0","0","0","96559","","null","","","null","87","","","","","","","","","","","","","","","NaN",""
"","S1","","html-keyboard-response","577","671235","0.0-1.0-794.0","0","0","96559","","null","","","null","88","","","","","","","","","","","","","","","",""
"","ISI","","html-keyboard-response","578","673238","0.0-1.0-795.0","0","0","96559","","null","","","null","88","NaN","","","","","","","","","","","","","","",""
"","S2","","html-keyboard-response","579","673394","0.0-1.0-796.0","0","0","96559","","null","","","null","88","","NaN","","","","","","","","","","","","","",""
"","response","","html-keyboard-response","580","674647","0.0-1.0-797.0-0.0","0","0","96559","","1248","","","75","88","","","2","88","training","adjacent","AB","1","2","O.jpg","M.jpg","1","1","1","",""
