"success","ttype","start_time","trial_type","trial_index","time_elapsed","internal_node_id","warning","missed_checkup","PID","view_history","rt","responses","repeat_instructions","key_press","index","keypress_isi","keypress_S2","block","trial_num","phase","group_type","pair_type","S1_stim","S2_stim","S1_img","S2_img","S1_chosen","S1_higher","accuracy","keypress_iti","total_bonus_tally"
"true","full_screen","d08012022hr1341","fullscreen","0","27725","0.0-0.0","0","0","17987","","","","","","","","","","","","","","","","","","","","","",""
"","instructions","","instructions","1","155473","0.0-1.0-0.0-0.0","0","0","17987","[{""page_index"":0,""viewing_time"":9979},{""page_index"":1,""viewing_time"":107384},{""page_index"":2,""viewing_time"":8829},{""page_index"":3,""viewing_time"":1554}]","127746","","","","","","","","","","","","","","","","","","","",""
"","comprehension_check","","survey-multi-choice","2","180478","0.0-1.0-0.0-1.0","0","0","17987","","24999","{""Q0"":""True"",""Q1"":""D"",""Q2"":""When you see the prompt 'MAKE A CHOICE' after the second image was presented"",""Q3"":""Green mark"",""Q4"":""either D or K""}","1","","","","","","","","","","","","","","","","","",""
"","missed_instruction_checkup","","html-keyboard-response","3","182820","0.0-1.0-0.0-2.0-0.0","0","1","17987","","2336","","","32","","","","","","","","","","","","","","","","",""
"","instructions","","instructions","4","215356","0.0-1.0-0.1-0.1","0","0","17987","[{""page_index"":0,""viewing_time"":6125},{""page_index"":1,""viewing_time"":24598},{""page_index"":2,""viewing_time"":872},{""page_index"":3,""viewing_time"":939}]","32534","","","","","","","","","","","","","","","","","","","",""
"","comprehension_check","","survey-multi-choice","5","226875","0.0-1.0-0.1-1.1","0","0","17987","","11511","{""Q0"":""True"",""Q1"":""K"",""Q2"":""When you see the prompt 'MAKE A CHOICE' after the second image was presented"",""Q3"":""Green mark"",""Q4"":""either D or K""}","0","","","","","","","","","","","","","","","","","",""
"","start_exp","","html-keyboard-response","6","228902","0.0-1.0-1.0","0","0","17987","","2022","","","32","","","","","","","","","","","","","","","","",""
"","S1","","html-keyboard-response","7","229158","0.0-1.0-2.0","0","0","17987","","null","","","null","0","","","","","","","","","","","","","","","",""
"","ISI","","html-keyboard-response","8","231162","0.0-1.0-3.0","0","0","17987","","null","","","null","0","NaN","","","","","","","","","","","","","","",""
"","S2","","html-keyboard-response","9","231417","0.0-1.0-4.0","0","0","17987","","null","","","null","0","","NaN","","","","","","","","","","","","","",""
"","response","","html-keyboard-response","10","232386","0.0-1.0-5.0","0","0","17987","","967","","","75","0","","","1","0","training","adjacent","BA","2","1","L.jpg","Q.jpg","1","0","0","",""
"","feedback","","html-keyboard-response","11","233391","0.0-1.0-6.0-0.0","0","0","17987","","null","","","null","0","","","","","","","","","","","","","","","",""
"","time_out","","html-keyboard-response","12","235394","0.0-1.0-8.0-0.0","0","0","17987","","null","","","null","0","","","","","","","","","","","","","","","",""
"","ITI","","html-keyboard-response","13","236398","0.0-1.0-9.0","0","0","17987","","null","","","null","0","","","","","","","","","","","","","","","NaN",""
"","S1","","html-keyboard-response","14","236653","0.0-1.0-11.0","0","0","17987","","null","","","null","1","","","","","","","","","","","","","","","",""
"","ISI","","html-keyboard-response","15","238656","0.0-1.0-12.0","0","0","17987","","null","","","null","1","NaN","","","","","","","","","","","","","","",""
"","S2","","html-keyboard-response","16","238911","0.0-1.0-13.0","0","0","17987","","null","","","null","1","","NaN","","","","","","","","","","","","","",""
"","response","","html-keyboard-response","17","239567","0.0-1.0-14.0","0","0","17987","","654","","","68","1","","","1","1","training","adjacent","DE","4","5","O.jpg","M.jpg","0","1","0","",""
"","feedback","","html-keyboard-response","18","240571","0.0-1.0-15.0-0.0","0","0","17987","","null","","","null","1","","","","","","","","","","","","","","","",""
"","time_out","","html-keyboard-response","19","242577","0.0-1.0-17.0-0.0","0","0","17987","","null","","","null","1","","","","","","","","","","","","","","","",""
"","ITI","","html-keyboard-response","20","243582","0.0-1.0-18.0","0","0","17987","","null","","","null","1","","","","","","","","","","","","","","","NaN",""
"","S1","","html-keyboard-response","21","243840","0.0-1.0-20.0","0","0","17987","","null","","","null","2","","","","","","","","","","","","","","","",""
"","ISI","","html-keyboard-response","22","245843","0.0-1.0-21.0","0","0","17987","","null","","","null","2","NaN","","","","","","","","","","","","","","",""
"","S2","","html-keyboard-response","23","246098","0.0-1.0-22.0","0","0","17987","","null","","","null","2","","NaN","","","","","","","","","","","","","",""
"","response","","html-keyboard-response","24","246564","0.0-1.0-23.0","0","0","17987","","464","","","75","2","","","1","2","training","adjacent","CD","3","4","N.jpg","O.jpg","1","1","1","",""
"","feedback","","html-keyboard-response","25","247567","0.0-1.0-24.0-0.0","0","0","17987","","null","","","null","2","","","","","","","","","","","","","","","",""
"","ITI","","html-keyboard-response","26","248571","0.0-1.0-27.0","0","0","17987","","null","","","null","2","","","","","","","","","","","","","","","NaN",""
"","S1","","html-keyboard-response","27","248826","0.0-1.0-29.0","0","0","17987","","null","","","null","3","","","","","","","","","","","","","","","",""
"","ISI","","html-keyboard-response","28","250829","0.0-1.0-30.0","0","0","17987","","null","","","null","3","NaN","","","","","","","","","","","","","","",""
"","S2","","html-keyboard-response","29","251085","0.0-1.0-31.0","0","0","17987","","null","","","null","3","","NaN","","","","","","","","","","","","","",""
"","response","","html-keyboard-response","30","251350","0.0-1.0-32.0","0","0","17987","","264","","","75","3","","","1","3","training","adjacent","GF","7","6","R.jpg","P.jpg","1","0","0","",""
"","feedback","","html-keyboard-response","31","252356","0.0-1.0-33.0-0.0","0","0","17987","","null","","","null","3","","","","","","","","","","","","","","","",""
"","time_out","","html-keyboard-response","32","254363","0.0-1.0-35.0-0.0","0","0","17987","","null","","","null","3","","","","","","","","","","","","","","","",""
"","ITI","","html-keyboard-response","33","255369","0.0-1.0-36.0","0","0","17987","","null","","","null","3","","","","","","","","","","","","","","","NaN",""
"","S1","","html-keyboard-response","34","255624","0.0-1.0-38.0","0","0","17987","","null","","","null","4","","","","","","","","","","","","","","","",""
"","ISI","","html-keyboard-response","35","257627","0.0-1.0-39.0","0","0","17987","","null","","","null","4","NaN","","","","","","","","","","","","","","",""
"","S2","","html-keyboard-response","36","257883","0.0-1.0-40.0","0","0","17987","","null","","","null","4","","NaN","","","","","","","","","","","","","",""
"","response","","html-keyboard-response","37","258186","0.0-1.0-41.0","0","0","17987","","302","","","68","4","","","1","4","training","adjacent","DE","4","5","O.jpg","M.jpg","0","1","0","",""
"","feedback","","html-keyboard-response","38","259190","0.0-1.0-42.0-0.0","0","0","17987","","null","","","null","4","","","","","","","","","","","","","","","",""
"","time_out","","html-keyboard-response","39","261197","0.0-1.0-44.0-0.0","0","0","17987","","null","","","null","4","","","","","","","","","","","","","","","",""
"","ITI","","html-keyboard-response","40","262202","0.0-1.0-45.0","0","0","17987","","null","","","null","4","","","","","","","","","","","","","","","NaN",""
"","S1","","html-keyboard-response","41","262457","0.0-1.0-47.0","0","0","17987","","null","","","null","5","","","","","","","","","","","","","","","",""
"","ISI","","html-keyboard-response","42","264460","0.0-1.0-48.0","0","0","17987","","null","","","null","5","NaN","","","","","","","","","","","","","","",""
"","S2","","html-keyboard-response","43","264715","0.0-1.0-49.0","0","0","17987","","null","","","null","5","","NaN","","","","","","","","","","","","","",""
"","response","","html-keyboard-response","44","265167","0.0-1.0-50.0","0","0","17987","","450","","","75","5","","","1","5","training","adjacent","FG","6","7","P.jpg","R.jpg","1","1","1","",""
"","feedback","","html-keyboard-response","45","266172","0.0-1.0-51.0-0.0","0","0","17987","","null","","","null","5","","","","","","","","","","","","","","","",""
"","ITI","","html-keyboard-response","46","267177","0.0-1.0-54.0","0","0","17987","","null","","","null","5","","","","","","","","","","","","","","","NaN",""
"","S1","","html-keyboard-response","47","267431","0.0-1.0-56.0","0","0","17987","","null","","","null","6","","","","","","","","","","","","","","","",""
"","ISI","","html-keyboard-response","48","269442","0.0-1.0-57.0","0","0","17987","","null","","","null","6","NaN","","","","","","","","","","","","","","",""
"","S2","","html-keyboard-response","49","269696","0.0-1.0-58.0","0","0","17987","","null","","","null","6","","NaN","","","","","","","","","","","","","",""
"","response","","html-keyboard-response","50","270313","0.0-1.0-59.0","0","0","17987","","616","","","68","6","","","1","6","training","adjacent","GF","7","6","R.jpg","P.jpg","0","0","1","",""
"","feedback","","html-keyboard-response","51","271327","0.0-1.0-60.0-0.0","0","0","17987","","null","","","null","6","","","","","","","","","","","","","","","",""
"","ITI","","html-keyboard-response","52","272332","0.0-1.0-63.0","0","0","17987","","null","","","null","6","","","","","","","","","","","","","","","NaN",""
"","S1","","html-keyboard-response","53","272587","0.0-1.0-65.0","0","0","17987","","null","","","null","7","","","","","","","","","","","","","","","",""
"","ISI","","html-keyboard-response","54","274590","0.0-1.0-66.0","0","0","17987","","null","","","null","7","NaN","","","","","","","","","","","","","","",""
"","S2","","html-keyboard-response","55","274846","0.0-1.0-67.0","0","0","17987","","null","","","null","7","","NaN","","","","","","","","","","","","","",""
"","response","","html-keyboard-response","56","275127","0.0-1.0-68.0","0","0","17987","","280","","","75","7","","","1","7","training","adjacent","ED","5","4","M.jpg","O.jpg","1","0","0","",""
"","feedback","","html-keyboard-response","57","276130","0.0-1.0-69.0-0.0","0","0","17987","","null","","","null","7","","","","","","","","","","","","","","","",""
"","time_out","","html-keyboard-response","58","278132","0.0-1.0-71.0-0.0","0","0","17987","","null","","","null","7","","","","","","","","","","","","","","","",""
"","ITI","","html-keyboard-response","59","279135","0.0-1.0-72.0","0","0","17987","","null","","","null","7","","","","","","","","","","","","","","","NaN",""
"","S1","","html-keyboard-response","60","279390","0.0-1.0-74.0","0","0","17987","","null","","","null","8","","","","","","","","","","","","","","","",""
"","ISI","","html-keyboard-response","61","281394","0.0-1.0-75.0","0","0","17987","","null","","","null","8","NaN","","","","","","","","","","","","","","",""
"","S2","","html-keyboard-response","62","281651","0.0-1.0-76.0","0","0","17987","","null","","","null","8","","NaN","","","","","","","","","","","","","",""
"","response","","html-keyboard-response","63","282099","0.0-1.0-77.0","0","0","17987","","445","","","75","8","","","1","8","training","adjacent","CD","3","4","N.jpg","O.jpg","1","1","1","",""
"","feedback","","html-keyboard-response","64","283103","0.0-1.0-78.0-0.0","0","0","17987","","null","","","null","8","","","","","","","","","","","","","","","",""
"","ITI","","html-keyboard-response","65","284105","0.0-1.0-81.0","0","0","17987","","null","","","null","8","","","","","","","","","","","","","","","NaN",""
"","S1","","html-keyboard-response","66","284360","0.0-1.0-83.0","0","0","17987","","null","","","null","9","","","","","","","","","","","","","","","",""
"","ISI","","html-keyboard-response","67","286362","0.0-1.0-84.0","0","0","17987","","null","","","null","9","NaN","","","","","","","","","","","","","","",""
"","S2","","html-keyboard-response","68","286617","0.0-1.0-85.0","0","0","17987","","null","","","null","9","","NaN","","","","","","","","","","","","","",""
"","response","","html-keyboard-response","69","287054","0.0-1.0-86.0","0","0","17987","","436","","","75","9","","","1","9","training","adjacent","AB","1","2","Q.jpg","L.jpg","1","1","1","",""
"","feedback","","html-keyboard-response","70","288057","0.0-1.0-87.0-0.0","0","0","17987","","null","","","null","9","","","","","","","","","","","","","","","",""
"","ITI","","html-keyboard-response","71","289061","0.0-1.0-90.0","0","0","17987","","null","","","null","9","","","","","","","","","","","","","","","NaN",""
"","S1","","html-keyboard-response","72","289318","0.0-1.0-92.0","0","0","17987","","null","","","null","10","","","","","","","","","","","","","","","",""
"","ISI","","html-keyboard-response","73","291319","0.0-1.0-93.0","0","0","17987","","null","","","null","10","NaN","","","","","","","","","","","","","","",""
"","S2","","html-keyboard-response","74","291576","0.0-1.0-94.0","0","0","17987","","null","","","null","10","","NaN","","","","","","","","","","","","","",""
"","response","","html-keyboard-response","75","291996","0.0-1.0-95.0","0","0","17987","","419","","","75","10","","","1","10","training","adjacent","ED","5","4","M.jpg","O.jpg","1","0","0","",""
"","feedback","","html-keyboard-response","76","293001","0.0-1.0-96.0-0.0","0","0","17987","","null","","","null","10","","","","","","","","","","","","","","","",""
"","time_out","","html-keyboard-response","77","295005","0.0-1.0-98.0-0.0","0","0","17987","","null","","","null","10","","","","","","","","","","","","","","","",""
"","ITI","","html-keyboard-response","78","296011","0.0-1.0-99.0","0","0","17987","","null","","","null","10","","","","","","","","","","","","","","","NaN",""
"","S1","","html-keyboard-response","79","296266","0.0-1.0-101.0","0","0","17987","","null","","","null","11","","","","","","","","","","","","","","","",""
"","ISI","","html-keyboard-response","80","298271","0.0-1.0-102.0","0","0","17987","","null","","","null","11","NaN","","","","","","","","","","","","","","",""
"","S2","","html-keyboard-response","81","298524","0.0-1.0-103.0","0","0","17987","","null","","","null","11","","NaN","","","","","","","","","","","","","",""
"","response","","html-keyboard-response","82","299041","0.0-1.0-104.0","0","0","17987","","515","","","68","11","","","1","11","training","adjacent","CB","3","2","N.jpg","L.jpg","0","0","1","",""
"","feedback","","html-keyboard-response","83","300045","0.0-1.0-105.0-0.0","0","0","17987","","null","","","null","11","","","","","","","","","","","","","","","",""
"","ITI","","html-keyboard-response","84","301049","0.0-1.0-108.0","0","0","17987","","null","","","null","11","","","","","","","","","","","","","","","NaN",""
"","S1","","html-keyboard-response","85","301303","0.0-1.0-110.0","0","0","17987","","null","","","null","12","","","","","","","","","","","","","","","",""
"","ISI","","html-keyboard-response","86","303308","0.0-1.0-111.0","0","0","17987","","null","","","null","12","NaN","","","","","","","","","","","","","","",""
"","S2","","html-keyboard-response","87","303563","0.0-1.0-112.0","0","0","17987","","null","","","null","12","","NaN","","","","","","","","","","","","","",""
"","response","","html-keyboard-response","88","303828","0.0-1.0-113.0","0","0","17987","","263","","","75","12","","","1","12","training","adjacent","BC","2","3","L.jpg","N.jpg","1","1","1","",""
"","feedback","","html-keyboard-response","89","304834","0.0-1.0-114.0-0.0","0","0","17987","","null","","","null","12","","","","","","","","","","","","","","","",""
"","ITI","","html-keyboard-response","90","305838","0.0-1.0-117.0","0","0","17987","","null","","","null","12","","","","","","","","","","","","","","","NaN",""
"","S1","","html-keyboard-response","91","306094","0.0-1.0-119.0","0","0","17987","","null","","","null","13","","","","","","","","","","","","","","","",""
"","ISI","","html-keyboard-response","92","308097","0.0-1.0-120.0","0","0","17987","","null","","","null","13","NaN","","","","","","","","","","","","","","",""
"","S2","","html-keyboard-response","93","308353","0.0-1.0-121.0","0","0","17987","","null","","","null","13","","NaN","","","","","","","","","","","","","",""
"","response","","html-keyboard-response","94","308780","0.0-1.0-122.0","0","0","17987","","426","","","68","13","","","1","13","training","adjacent","AB","1","2","Q.jpg","L.jpg","0","1","0","",""
"","feedback","","html-keyboard-response","95","309786","0.0-1.0-123.0-0.0","0","0","17987","","null","","","null","13","","","","","","","","","","","","","","","",""
"","time_out","","html-keyboard-response","96","311789","0.0-1.0-125.0-0.0","0","0","17987","","null","","","null","13","","","","","","","","","","","","","","","",""
"","ITI","","html-keyboard-response","97","312794","0.0-1.0-126.0","0","0","17987","","null","","","null","13","","","","","","","","","","","","","","","NaN",""
"","S1","","html-keyboard-response","98","313048","0.0-1.0-128.0","0","0","17987","","null","","","null","14","","","","","","","","","","","","","","","",""
"","ISI","","html-keyboard-response","99","315052","0.0-1.0-129.0","0","0","17987","","null","","","null","14","NaN","","","","","","","","","","","","","","",""
"","S2","","html-keyboard-response","100","315308","0.0-1.0-130.0","0","0","17987","","null","","","null","14","","NaN","","","","","","","","","","","","","",""
"","response","","html-keyboard-response","101","315631","0.0-1.0-131.0","0","0","17987","","321","","","75","14","","","1","14","training","adjacent","ED","5","4","M.jpg","O.jpg","1","0","0","",""
"","feedback","","html-keyboard-response","102","316635","0.0-1.0-132.0-0.0","0","0","17987","","null","","","null","14","","","","","","","","","","","","","","","",""
"","time_out","","html-keyboard-response","103","318642","0.0-1.0-134.0-0.0","0","0","17987","","null","","","null","14","","","","","","","","","","","","","","","",""
"","ITI","","html-keyboard-response","104","319647","0.0-1.0-135.0","0","0","17987","","null","","","null","14","","","","","","","","","","","","","","","NaN",""
"","S1","","html-keyboard-response","105","319902","0.0-1.0-137.0","0","0","17987","","null","","","null","15","","","","","","","","","","","","","","","",""
"","ISI","","html-keyboard-response","106","321906","0.0-1.0-138.0","0","0","17987","","null","","","null","15","NaN","","","","","","","","","","","","","","",""
"","S2","","html-keyboard-response","107","322164","0.0-1.0-139.0","0","0","17987","","null","","","null","15","","NaN","","","","","","","","","","","","","",""
"","response","","html-keyboard-response","108","322644","0.0-1.0-140.0","0","0","17987","","478","","","68","15","","","1","15","training","adjacent","FE","6","5","P.jpg","M.jpg","0","0","1","",""
"","feedback","","html-keyboard-response","109","323648","0.0-1.0-141.0-0.0","0","0","17987","","null","","","null","15","","","","","","","","","","","","","","","",""
"","ITI","","html-keyboard-response","110","324652","0.0-1.0-144.0","0","0","17987","","null","","","null","15","","","","","","","","","","","","","","","NaN",""
"","S1","","html-keyboard-response","111","324907","0.0-1.0-146.0","0","0","17987","","null","","","null","16","","","","","","","","","","","","","","","",""
"","ISI","","html-keyboard-response","112","326910","0.0-1.0-147.0","0","0","17987","","null","","","null","16","NaN","","","","","","","","","","","","","","",""
"","S2","","html-keyboard-response","113","327166","0.0-1.0-148.0","0","0","17987","","null","","","null","16","","NaN","","","","","","","","","","","","","",""
"","response","","html-keyboard-response","114","327788","0.0-1.0-149.0","0","0","17987","","620","","","75","16","","","1","16","training","adjacent","GF","7","6","R.jpg","P.jpg","1","0","0","",""
"","feedback","","html-keyboard-response","115","328792","0.0-1.0-150.0-0.0","0","0","17987","","null","","","null","16","","","","","","","","","","","","","","","",""
"","time_out","","html-keyboard-response","116","330795","0.0-1.0-152.0-0.0","0","0","17987","","null","","","null","16","","","","","","","","","","","","","","","",""
"","ITI","","html-keyboard-response","117","331800","0.0-1.0-153.0","0","0","17987","","null","","","null","16","","","","","","","","","","","","","","","NaN",""
"","S1","","html-keyboard-response","118","332055","0.0-1.0-155.0","0","0","17987","","null","","","null","17","","","","","","","","","","","","","","","",""
"","ISI","","html-keyboard-response","119","334058","0.0-1.0-156.0","0","0","17987","","null","","","null","17","NaN","","","","","","","","","","","","","","",""
"","S2","","html-keyboard-response","120","334313","0.0-1.0-157.0","0","0","17987","","null","","","null","17","","NaN","","","","","","","","","","","","","",""
"","response","","html-keyboard-response","121","334934","0.0-1.0-158.0","0","0","17987","","619","","","68","17","","","1","17","training","adjacent","FE","6","5","P.jpg","M.jpg","0","0","1","",""
"","feedback","","html-keyboard-response","122","335942","0.0-1.0-159.0-0.0","0","0","17987","","null","","","null","17","","","","","","","","","","","","","","","",""
"","ITI","","html-keyboard-response","123","336949","0.0-1.0-162.0","0","0","17987","","null","","","null","17","","","","","","","","","","","","","","","NaN",""
"","S1","","html-keyboard-response","124","337205","0.0-1.0-164.0","0","0","17987","","null","","","null","18","","","","","","","","","","","","","","","",""
"","ISI","","html-keyboard-response","125","339214","0.0-1.0-165.0","0","0","17987","","null","","","null","18","NaN","","","","","","","","","","","","","","",""
"","S2","","html-keyboard-response","126","339469","0.0-1.0-166.0","0","0","17987","","null","","","null","18","","NaN","","","","","","","","","","","","","",""
"","response","","html-keyboard-response","127","339985","0.0-1.0-167.0","0","0","17987","","515","","","68","18","","","1","18","training","adjacent","DC","4","3","O.jpg","N.jpg","0","0","1","",""
"","feedback","","html-keyboard-response","128","340990","0.0-1.0-168.0-0.0","0","0","17987","","null","","","null","18","","","","","","","","","","","","","","","",""
"","ITI","","html-keyboard-response","129","341995","0.0-1.0-171.0","0","0","17987","","null","","","null","18","","","","","","","","","","","","","","","NaN",""
"","S1","","html-keyboard-response","130","342250","0.0-1.0-173.0","0","0","17987","","null","","","null","19","","","","","","","","","","","","","","","",""
"","ISI","","html-keyboard-response","131","344253","0.0-1.0-174.0","0","0","17987","","null","","","null","19","NaN","","","","","","","","","","","","","","",""
"","S2","","html-keyboard-response","132","344510","0.0-1.0-175.0","0","0","17987","","null","","","null","19","","NaN","","","","","","","","","","","","","",""
"","response","","html-keyboard-response","133","345216","0.0-1.0-176.0","0","0","17987","","704","","","75","19","","","1","19","training","adjacent","CD","3","4","N.jpg","O.jpg","1","1","1","",""
"","feedback","","html-keyboard-response","134","346221","0.0-1.0-177.0-0.0","0","0","17987","","null","","","null","19","","","","","","","","","","","","","","","",""
"","ITI","","html-keyboard-response","135","347226","0.0-1.0-180.0","0","0","17987","","null","","","null","19","","","","","","","","","","","","","","","NaN",""
"","S1","","html-keyboard-response","136","347481","0.0-1.0-182.0","0","0","17987","","null","","","null","20","","","","","","","","","","","","","","","",""
"","ISI","","html-keyboard-response","137","349484","0.0-1.0-183.0","0","0","17987","","null","","","null","20","NaN","","","","","","","","","","","","","","",""
"","S2","","html-keyboard-response","138","349739","0.0-1.0-184.0","0","0","17987","","null","","","null","20","","NaN","","","","","","","","","","","","","",""
"","response","","html-keyboard-response","139","350780","0.0-1.0-185.0","0","0","17987","","1039","","","68","20","","","1","20","training","adjacent","BA","2","1","L.jpg","Q.jpg","0","0","1","",""
"","feedback","","html-keyboard-response","140","351783","0.0-1.0-186.0-0.0","0","0","17987","","null","","","null","20","","","","","","","","","","","","","","","",""
"","ITI","","html-keyboard-response","141","352787","0.0-1.0-189.0","0","0","17987","","null","","","null","20","","","","","","","","","","","","","","","NaN",""
"","S1","","html-keyboard-response","142","353042","0.0-1.0-191.0","0","0","17987","","null","","","null","21","","","","","","","","","","","","","","","",""
"","ISI","","html-keyboard-response","143","355046","0.0-1.0-192.0","0","0","17987","","null","","","null","21","NaN","","","","","","","","","","","","","","",""
"","S2","","html-keyboard-response","144","355301","0.0-1.0-193.0","0","0","17987","","null","","","null","21","","NaN","","","","","","","","","","","","","",""
"","response","","html-keyboard-response","145","355756","0.0-1.0-194.0","0","0","17987","","454","","","75","21","","","1","21","training","adjacent","BC","2","3","L.jpg","N.jpg","1","1","1","",""
"","feedback","","html-keyboard-response","146","356761","0.0-1.0-195.0-0.0","0","0","17987","","null","","","null","21","","","","","","","","","","","","","","","",""
"","ITI","","html-keyboard-response","147","357765","0.0-1.0-198.0","0","0","17987","","null","","","null","21","","","","","","","","","","","","","","","NaN",""
"","S1","","html-keyboard-response","148","358018","0.0-1.0-200.0","0","0","17987","","null","","","null","22","","","","","","","","","","","","","","","",""
"","ISI","","html-keyboard-response","149","360020","0.0-1.0-201.0","0","0","17987","","null","","","null","22","NaN","","","","","","","","","","","","","","",""
"","S2","","html-keyboard-response","150","360275","0.0-1.0-202.0","0","0","17987","","null","","","null","22","","NaN","","","","","","","","","","","","","",""
"","response","","html-keyboard-response","151","360817","0.0-1.0-203.0","0","0","17987","","540","","","75","22","","","1","22","training","adjacent","EF","5","6","M.jpg","P.jpg","1","1","1","",""
"","feedback","","html-keyboard-response","152","361820","0.0-1.0-204.0-0.0","0","0","17987","","null","","","null","22","","","","","","","","","","","","","","","",""
"","ITI","","html-keyboard-response","153","362825","0.0-1.0-207.0","0","0","17987","","null","","","null","22","","","","","","","","","","","","","","","NaN",""
"","S1","","html-keyboard-response","154","363080","0.0-1.0-209.0","0","0","17987","","null","","","null","23","","","","","","","","","","","","","","","",""
"","ISI","","html-keyboard-response","155","365083","0.0-1.0-210.0","0","0","17987","","null","","","null","23","NaN","","","","","","","","","","","","","","",""
"","S2","","html-keyboard-response","156","365338","0.0-1.0-211.0","0","0","17987","","null","","","null","23","","NaN","","","","","","","","","","","","","",""
"","response","","html-keyboard-response","157","365869","0.0-1.0-212.0","0","0","17987","","529","","","68","23","","","1","23","training","adjacent","AB","1","2","Q.jpg","L.jpg","0","1","0","",""
"","feedback","","html-keyboard-response","158","366876","0.0-1.0-213.0-0.0","0","0","17987","","null","","","null","23","","","","","","","","","","","","","","","",""
"","time_out","","html-keyboard-response","159","368879","0.0-1.0-215.0-0.0","0","0","17987","","null","","","null","23","","","","","","","","","","","","","","","",""
"","ITI","","html-keyboard-response","160","369883","0.0-1.0-216.0","0","0","17987","","null","","","null","23","","","","","","","","","","","","","","","NaN",""
"","S1","","html-keyboard-response","161","370138","0.0-1.0-218.0","0","0","17987","","null","","","null","24","","","","","","","","","","","","","","","",""
"","ISI","","html-keyboard-response","162","372142","0.0-1.0-219.0","0","0","17987","","null","","","null","24","NaN","","","","","","","","","","","","","","",""
"","S2","","html-keyboard-response","163","372397","0.0-1.0-220.0","0","0","17987","","null","","","null","24","","NaN","","","","","","","","","","","","","",""
"","response","","html-keyboard-response","164","372838","0.0-1.0-221.0","0","0","17987","","440","","","68","24","","","1","24","training","adjacent","DE","4","5","O.jpg","M.jpg","0","1","0","",""
"","feedback","","html-keyboard-response","165","373843","0.0-1.0-222.0-0.0","0","0","17987","","null","","","null","24","","","","","","","","","","","","","","","",""
"","time_out","","html-keyboard-response","166","375846","0.0-1.0-224.0-0.0","0","0","17987","","null","","","null","24","","","","","","","","","","","","","","","",""
"","ITI","","html-keyboard-response","167","376850","0.0-1.0-225.0","0","0","17987","","null","","","null","24","","","","","","","","","","","","","","","NaN",""
"","S1","","html-keyboard-response","168","377105","0.0-1.0-227.0","0","0","17987","","null","","","null","25","","","","","","","","","","","","","","","",""
"","ISI","","html-keyboard-response","169","379107","0.0-1.0-228.0","0","0","17987","","null","","","null","25","NaN","","","","","","","","","","","","","","",""
"","S2","","html-keyboard-response","170","379364","0.0-1.0-229.0","0","0","17987","","null","","","null","25","","NaN","","","","","","","","","","","","","",""
"","response","","html-keyboard-response","171","380027","0.0-1.0-230.0","0","0","17987","","662","","","68","25","","","1","25","training","adjacent","FG","6","7","P.jpg","R.jpg","0","1","0","",""
"","feedback","","html-keyboard-response","172","381029","0.0-1.0-231.0-0.0","0","0","17987","","null","","","null","25","","","","","","","","","","","","","","","",""
"","time_out","","html-keyboard-response","173","383033","0.0-1.0-233.0-0.0","0","0","17987","","null","","","null","25","","","","","","","","","","","","","","","",""
"","ITI","","html-keyboard-response","174","384037","0.0-1.0-234.0","0","0","17987","","null","","","null","25","","","","","","","","","","","","","","","NaN",""
"","S1","","html-keyboard-response","175","384292","0.0-1.0-236.0","0","0","17987","","null","","","null","26","","","","","","","","","","","","","","","",""
"","ISI","","html-keyboard-response","176","386295","0.0-1.0-237.0","0","0","17987","","null","","","null","26","NaN","","","","","","","","","","","","","","",""
"","S2","","html-keyboard-response","177","386550","0.0-1.0-238.0","0","0","17987","","null","","","null","26","","NaN","","","","","","","","","","","","","",""
"","response","","html-keyboard-response","178","387000","0.0-1.0-239.0","0","0","17987","","447","","","75","26","","","1","26","training","adjacent","BA","2","1","L.jpg","Q.jpg","1","0","0","",""
"","feedback","","html-keyboard-response","179","388007","0.0-1.0-240.0-0.0","0","0","17987","","null","","","null","26","","","","","","","","","","","","","","","",""
"","time_out","","html-keyboard-response","180","390010","0.0-1.0-242.0-0.0","0","0","17987","","null","","","null","26","","","","","","","","","","","","","","","",""
"","ITI","","html-keyboard-response","181","391014","0.0-1.0-243.0","0","0","17987","","null","","","null","26","","","","","","","","","","","","","","","NaN",""
"","S1","","html-keyboard-response","182","391270","0.0-1.0-245.0","0","0","17987","","null","","","null","27","","","","","","","","","","","","","","","",""
"","ISI","","html-keyboard-response","183","393275","0.0-1.0-246.0","0","0","17987","","null","","","null","27","NaN","","","","","","","","","","","","","","",""
"","S2","","html-keyboard-response","184","393529","0.0-1.0-247.0","0","0","17987","","null","","","null","27","","NaN","","","","","","","","","","","","","",""
"","response","","html-keyboard-response","185","393802","0.0-1.0-248.0","0","0","17987","","272","","","75","27","","","1","27","training","adjacent","BC","2","3","L.jpg","N.jpg","1","1","1","",""
"","feedback","","html-keyboard-response","186","394805","0.0-1.0-249.0-0.0","0","0","17987","","null","","","null","27","","","","","","","","","","","","","","","",""
"","ITI","","html-keyboard-response","187","395812","0.0-1.0-252.0","0","0","17987","","null","","","null","27","","","","","","","","","","","","","","","NaN",""
"","S1","","html-keyboard-response","188","396065","0.0-1.0-254.0","0","0","17987","","null","","","null","28","","","","","","","","","","","","","","","",""
"","ISI","","html-keyboard-response","189","398070","0.0-1.0-255.0","0","0","17987","","null","","","null","28","NaN","","","","","","","","","","","","","","",""
"","S2","","html-keyboard-response","190","398322","0.0-1.0-256.0","0","0","17987","","null","","","null","28","","NaN","","","","","","","","","","","","","",""
"","response","","html-keyboard-response","191","398792","0.0-1.0-257.0","0","0","17987","","468","","","68","28","","","1","28","training","adjacent","CB","3","2","N.jpg","L.jpg","0","0","1","",""
"","feedback","","html-keyboard-response","192","399799","0.0-1.0-258.0-0.0","0","0","17987","","null","","","null","28","","","","","","","","","","","","","","","",""
"","ITI","","html-keyboard-response","193","400805","0.0-1.0-261.0","0","0","17987","","null","","","null","28","","","","","","","","","","","","","","","NaN",""
"","S1","","html-keyboard-response","194","401058","0.0-1.0-263.0","0","0","17987","","null","","","null","29","","","","","","","","","","","","","","","",""
"","ISI","","html-keyboard-response","195","403061","0.0-1.0-264.0","0","0","17987","","null","","","null","29","NaN","","","","","","","","","","","","","","",""
"","S2","","html-keyboard-response","196","403316","0.0-1.0-265.0","0","0","17987","","null","","","null","29","","NaN","","","","","","","","","","","","","",""
"","response","","html-keyboard-response","197","404035","0.0-1.0-266.0","0","0","17987","","717","","","68","29","","","1","29","training","adjacent","FG","6","7","P.jpg","R.jpg","0","1","0","",""
"","feedback","","html-keyboard-response","198","405040","0.0-1.0-267.0-0.0","0","0","17987","","null","","","null","29","","","","","","","","","","","","","","","",""
"","time_out","","html-keyboard-response","199","407043","0.0-1.0-269.0-0.0","0","0","17987","","null","","","null","29","","","","","","","","","","","","","","","",""
"","ITI","","html-keyboard-response","200","408046","0.0-1.0-270.0","0","0","17987","","null","","","null","29","","","","","","","","","","","","","","","NaN",""
"","S1","","html-keyboard-response","201","408302","0.0-1.0-272.0","0","0","17987","","null","","","null","30","","","","","","","","","","","","","","","",""
"","ISI","","html-keyboard-response","202","410305","0.0-1.0-273.0","0","0","17987","","null","","","null","30","NaN","","","","","","","","","","","","","","",""
"","S2","","html-keyboard-response","203","410561","0.0-1.0-274.0","0","0","17987","","null","","","null","30","","NaN","","","","","","","","","","","","","",""
"","response","","html-keyboard-response","204","411057","0.0-1.0-275.0","0","0","17987","","495","","","68","30","","","1","30","training","adjacent","AB","1","2","Q.jpg","L.jpg","0","1","0","",""
"","feedback","","html-keyboard-response","205","412064","0.0-1.0-276.0-0.0","0","0","17987","","null","","","null","30","","","","","","","","","","","","","","","",""
"","time_out","","html-keyboard-response","206","414066","0.0-1.0-278.0-0.0","0","0","17987","","null","","","null","30","","","","","","","","","","","","","","","",""
"","ITI","","html-keyboard-response","207","415071","0.0-1.0-279.0","0","0","17987","","null","","","null","30","","","","","","","","","","","","","","","NaN",""
"","S1","","html-keyboard-response","208","415326","0.0-1.0-281.0","0","0","17987","","null","","","null","31","","","","","","","","","","","","","","","",""
"","ISI","","html-keyboard-response","209","417329","0.0-1.0-282.0","0","0","17987","","null","","","null","31","NaN","","","","","","","","","","","","","","",""
"","S2","","html-keyboard-response","210","417598","0.0-1.0-283.0","0","0","17987","","null","","","null","31","","NaN","","","","","","","","","","","","","",""
"","response","","html-keyboard-response","211","418091","0.0-1.0-284.0","0","0","17987","","491","","","68","31","","","1","31","training","adjacent","DC","4","3","O.jpg","N.jpg","0","0","1","",""
"","feedback","","html-keyboard-response","212","419094","0.0-1.0-285.0-0.0","0","0","17987","","null","","","null","31","","","","","","","","","","","","","","","",""
"","ITI","","html-keyboard-response","213","420098","0.0-1.0-288.0","0","0","17987","","null","","","null","31","","","","","","","","","","","","","","","NaN",""
"","S1","","html-keyboard-response","214","420350","0.0-1.0-290.0","0","0","17987","","null","","","null","32","","","","","","","","","","","","","","","",""
"","ISI","","html-keyboard-response","215","422353","0.0-1.0-291.0","0","0","17987","","null","","","null","32","NaN","","","","","","","","","","","","","","",""
"","S2","","html-keyboard-response","216","422607","0.0-1.0-292.0","0","0","17987","","null","","","null","32","","NaN","","","","","","","","","","","","","",""
"","response","","html-keyboard-response","217","423704","0.0-1.0-293.0","0","0","17987","","1096","","","75","32","","","1","32","training","adjacent","CD","3","4","N.jpg","O.jpg","1","1","1","",""
"","feedback","","html-keyboard-response","218","424707","0.0-1.0-294.0-0.0","0","0","17987","","null","","","null","32","","","","","","","","","","","","","","","",""
"","ITI","","html-keyboard-response","219","425712","0.0-1.0-297.0","0","0","17987","","null","","","null","32","","","","","","","","","","","","","","","NaN",""
"","S1","","html-keyboard-response","220","425968","0.0-1.0-299.0","0","0","17987","","null","","","null","33","","","","","","","","","","","","","","","",""
"","ISI","","html-keyboard-response","221","427970","0.0-1.0-300.0","0","0","17987","","null","","","null","33","NaN","","","","","","","","","","","","","","",""
"","S2","","html-keyboard-response","222","428226","0.0-1.0-301.0","0","0","17987","","null","","","null","33","","NaN","","","","","","","","","","","","","",""
"","response","","html-keyboard-response","223","428757","0.0-1.0-302.0","0","0","17987","","530","","","68","33","","","1","33","training","adjacent","FE","6","5","P.jpg","M.jpg","0","0","1","",""
"","feedback","","html-keyboard-response","224","429764","0.0-1.0-303.0-0.0","0","0","17987","","null","","","null","33","","","","","","","","","","","","","","","",""
"","ITI","","html-keyboard-response","225","430768","0.0-1.0-306.0","0","0","17987","","null","","","null","33","","","","","","","","","","","","","","","NaN",""
"","S1","","html-keyboard-response","226","431024","0.0-1.0-308.0","0","0","17987","","null","","","null","34","","","","","","","","","","","","","","","",""
"","ISI","","html-keyboard-response","227","433026","0.0-1.0-309.0","0","0","17987","","null","","","null","34","NaN","","","","","","","","","","","","","","",""
"","S2","","html-keyboard-response","228","433282","0.0-1.0-310.0","0","0","17987","","null","","","null","34","","NaN","","","","","","","","","","","","","",""
"","response","","html-keyboard-response","229","433721","0.0-1.0-311.0","0","0","17987","","438","","","68","34","","","1","34","training","adjacent","DE","4","5","O.jpg","M.jpg","0","1","0","",""
"","feedback","","html-keyboard-response","230","434728","0.0-1.0-312.0-0.0","0","0","17987","","null","","","null","34","","","","","","","","","","","","","","","",""
"","time_out","","html-keyboard-response","231","436730","0.0-1.0-314.0-0.0","0","0","17987","","null","","","null","34","","","","","","","","","","","","","","","",""
"","ITI","","html-keyboard-response","232","437734","0.0-1.0-315.0","0","0","17987","","null","","","null","34","","","","","","","","","","","","","","","NaN",""
"","S1","","html-keyboard-response","233","437995","0.0-1.0-317.0","0","0","17987","","null","","","null","35","","","","","","","","","","","","","","","",""
"","ISI","","html-keyboard-response","234","439998","0.0-1.0-318.0","0","0","17987","","null","","","null","35","NaN","","","","","","","","","","","","","","",""
"","S2","","html-keyboard-response","235","440254","0.0-1.0-319.0","0","0","17987","","null","","","null","35","","NaN","","","","","","","","","","","","","",""
"","response","","html-keyboard-response","236","440967","0.0-1.0-320.0","0","0","17987","","712","","","68","35","","","1","35","training","adjacent","FG","6","7","P.jpg","R.jpg","0","1","0","",""
"","feedback","","html-keyboard-response","237","441971","0.0-1.0-321.0-0.0","0","0","17987","","null","","","null","35","","","","","","","","","","","","","","","",""
"","time_out","","html-keyboard-response","238","443974","0.0-1.0-323.0-0.0","0","0","17987","","null","","","null","35","","","","","","","","","","","","","","","",""
"","ITI","","html-keyboard-response","239","444979","0.0-1.0-324.0","0","0","17987","","null","","","null","35","","","","","","","","","","","","","","","NaN",""
"","S1","","html-keyboard-response","240","445234","0.0-1.0-326.0","0","0","17987","","null","","","null","36","","","","","","","","","","","","","","","",""
"","ISI","","html-keyboard-response","241","447237","0.0-1.0-327.0","0","0","17987","","null","","","null","36","NaN","","","","","","","","","","","","","","",""
"","S2","","html-keyboard-response","242","447493","0.0-1.0-328.0","0","0","17987","","null","","","null","36","","NaN","","","","","","","","","","","","","",""
"","response","","html-keyboard-response","243","447990","0.0-1.0-329.0","0","0","17987","","496","","","75","36","","","1","36","training","adjacent","ED","5","4","M.jpg","O.jpg","1","0","0","",""
"","feedback","","html-keyboard-response","244","448996","0.0-1.0-330.0-0.0","0","0","17987","","null","","","null","36","","","","","","","","","","","","","","","",""
"","time_out","","html-keyboard-response","245","450998","0.0-1.0-332.0-0.0","0","0","17987","","null","","","null","36","","","","","","","","","","","","","","","",""
"","ITI","","html-keyboard-response","246","452003","0.0-1.0-333.0","0","0","17987","","null","","","null","36","","","","","","","","","","","","","","","NaN",""
"","S1","","html-keyboard-response","247","452259","0.0-1.0-335.0","0","0","17987","","null","","","null","37","","","","","","","","","","","","","","","",""
"","ISI","","html-keyboard-response","248","454262","0.0-1.0-336.0","0","0","17987","","null","","","null","37","NaN","","","","","","","","","","","","","","",""
"","S2","","html-keyboard-response","249","454517","0.0-1.0-337.0","0","0","17987","","null","","","null","37","","NaN","","","","","","","","","","","","","",""
"","response","","html-keyboard-response","250","454879","0.0-1.0-338.0","0","0","17987","","360","","","75","37","","","1","37","training","adjacent","EF","5","6","M.jpg","P.jpg","1","1","1","",""
"","feedback","","html-keyboard-response","251","455885","0.0-1.0-339.0-0.0","0","0","17987","","null","","","null","37","","","","","","","","","","","","","","","",""
"","ITI","","html-keyboard-response","252","456892","0.0-1.0-342.0","0","0","17987","","null","","","null","37","","","","","","","","","","","","","","","NaN",""
"","S1","","html-keyboard-response","253","457147","0.0-1.0-344.0","0","0","17987","","null","","","null","38","","","","","","","","","","","","","","","",""
"","ISI","","html-keyboard-response","254","459150","0.0-1.0-345.0","0","0","17987","","null","","","null","38","NaN","","","","","","","","","","","","","","",""
"","S2","","html-keyboard-response","255","459405","0.0-1.0-346.0","0","0","17987","","null","","","null","38","","NaN","","","","","","","","","","","","","",""
"","response","","html-keyboard-response","256","460063","0.0-1.0-347.0","0","0","17987","","657","","","68","38","","","1","38","training","adjacent","DC","4","3","O.jpg","N.jpg","0","0","1","",""
"","feedback","","html-keyboard-response","257","461067","0.0-1.0-348.0-0.0","0","0","17987","","null","","","null","38","","","","","","","","","","","","","","","",""
"","ITI","","html-keyboard-response","258","462069","0.0-1.0-351.0","0","0","17987","","null","","","null","38","","","","","","","","","","","","","","","NaN",""
"","S1","","html-keyboard-response","259","462324","0.0-1.0-353.0","0","0","17987","","null","","","null","39","","","","","","","","","","","","","","","",""
"","ISI","","html-keyboard-response","260","464328","0.0-1.0-354.0","0","0","17987","","null","","","null","39","NaN","","","","","","","","","","","","","","",""
"","S2","","html-keyboard-response","261","464583","0.0-1.0-355.0","0","0","17987","","null","","","null","39","","NaN","","","","","","","","","","","","","",""
"","response","","html-keyboard-response","262","465109","0.0-1.0-356.0","0","0","17987","","525","","","68","39","","","1","39","training","adjacent","CB","3","2","N.jpg","L.jpg","0","0","1","",""
"","feedback","","html-keyboard-response","263","466116","0.0-1.0-357.0-0.0","0","0","17987","","null","","","null","39","","","","","","","","","","","","","","","",""
"","ITI","","html-keyboard-response","264","467120","0.0-1.0-360.0","0","0","17987","","null","","","null","39","","","","","","","","","","","","","","","NaN",""
"","S1","","html-keyboard-response","265","467376","0.0-1.0-362.0","0","0","17987","","null","","","null","40","","","","","","","","","","","","","","","",""
"","ISI","","html-keyboard-response","266","469378","0.0-1.0-363.0","0","0","17987","","null","","","null","40","NaN","","","","","","","","","","","","","","",""
"","S2","","html-keyboard-response","267","469631","0.0-1.0-364.0","0","0","17987","","null","","","null","40","","NaN","","","","","","","","","","","","","",""
"","response","","html-keyboard-response","268","470188","0.0-1.0-365.0","0","0","17987","","555","","","68","40","","","1","40","training","adjacent","GF","7","6","R.jpg","P.jpg","0","0","1","",""
"","feedback","","html-keyboard-response","269","471195","0.0-1.0-366.0-0.0","0","0","17987","","null","","","null","40","","","","","","","","","","","","","","","",""
"","ITI","","html-keyboard-response","270","472200","0.0-1.0-369.0","0","0","17987","","null","","","null","40","","","","","","","","","","","","","","","NaN",""
"","S1","","html-keyboard-response","271","472455","0.0-1.0-371.0","0","0","17987","","null","","","null","41","","","","","","","","","","","","","","","",""
"","ISI","","html-keyboard-response","272","474458","0.0-1.0-372.0","0","0","17987","","null","","","null","41","NaN","","","","","","","","","","","","","","",""
"","S2","","html-keyboard-response","273","474713","0.0-1.0-373.0","0","0","17987","","null","","","null","41","","NaN","","","","","","","","","","","","","",""
"","response","","html-keyboard-response","274","475185","0.0-1.0-374.0","0","0","17987","","471","","","68","41","","","1","41","training","adjacent","CB","3","2","N.jpg","L.jpg","0","0","1","",""
"","feedback","","html-keyboard-response","275","476188","0.0-1.0-375.0-0.0","0","0","17987","","null","","","null","41","","","","","","","","","","","","","","","",""
"","ITI","","html-keyboard-response","276","477192","0.0-1.0-378.0","0","0","17987","","null","","","null","41","","","","","","","","","","","","","","","NaN",""
"","S1","","html-keyboard-response","277","477448","0.0-1.0-380.0","0","0","17987","","null","","","null","42","","","","","","","","","","","","","","","",""
"","ISI","","html-keyboard-response","278","479450","0.0-1.0-381.0","0","0","17987","","null","","","null","42","NaN","","","","","","","","","","","","","","",""
"","S2","","html-keyboard-response","279","479706","0.0-1.0-382.0","0","0","17987","","null","","","null","42","","NaN","","","","","","","","","","","","","",""
"","response","","html-keyboard-response","280","480265","0.0-1.0-383.0","0","0","17987","","558","","","75","42","","","1","42","training","adjacent","BA","2","1","L.jpg","Q.jpg","1","0","0","",""
"","feedback","","html-keyboard-response","281","481271","0.0-1.0-384.0-0.0","0","0","17987","","null","","","null","42","","","","","","","","","","","","","","","",""
"","time_out","","html-keyboard-response","282","483275","0.0-1.0-386.0-0.0","0","0","17987","","null","","","null","42","","","","","","","","","","","","","","","",""
"","ITI","","html-keyboard-response","283","484280","0.0-1.0-387.0","0","0","17987","","null","","","null","42","","","","","","","","","","","","","","","NaN",""
"","S1","","html-keyboard-response","284","484536","0.0-1.0-389.0","0","0","17987","","null","","","null","43","","","","","","","","","","","","","","","",""
"","ISI","","html-keyboard-response","285","486539","0.0-1.0-390.0","0","0","17987","","null","","","null","43","NaN","","","","","","","","","","","","","","",""
"","S2","","html-keyboard-response","286","486794","0.0-1.0-391.0","0","0","17987","","null","","","null","43","","NaN","","","","","","","","","","","","","",""
"","response","","html-keyboard-response","287","487138","0.0-1.0-392.0","0","0","17987","","343","","","68","43","","","1","43","training","adjacent","EF","5","6","M.jpg","P.jpg","0","1","0","",""
"","feedback","","html-keyboard-response","288","488141","0.0-1.0-393.0-0.0","0","0","17987","","null","","","null","43","","","","","","","","","","","","","","","",""
"","time_out","","html-keyboard-response","289","490144","0.0-1.0-395.0-0.0","0","0","17987","","null","","","null","43","","","","","","","","","","","","","","","",""
"","ITI","","html-keyboard-response","290","491148","0.0-1.0-396.0","0","0","17987","","null","","","null","43","","","","","","","","","","","","","","","NaN",""
"","S1","","html-keyboard-response","291","491403","0.0-1.0-398.0","0","0","17987","","null","","","null","44","","","","","","","","","","","","","","","",""
"","ISI","","html-keyboard-response","292","493406","0.0-1.0-399.0","0","0","17987","","null","","","null","44","NaN","","","","","","","","","","","","","","",""
"","S2","","html-keyboard-response","293","493662","0.0-1.0-400.0","0","0","17987","","null","","","null","44","","NaN","","","","","","","","","","","","","",""
"","response","","html-keyboard-response","294","494199","0.0-1.0-401.0","0","0","17987","","536","","","68","44","","","1","44","training","adjacent","DC","4","3","O.jpg","N.jpg","0","0","1","",""
"","feedback","","html-keyboard-response","295","495205","0.0-1.0-402.0-0.0","0","0","17987","","null","","","null","44","","","","","","","","","","","","","","","",""
"","ITI","","html-keyboard-response","296","496212","0.0-1.0-405.0","0","0","17987","","null","","","null","44","","","","","","","","","","","","","","","NaN",""
"","S1","","html-keyboard-response","297","496465","0.0-1.0-407.0","0","0","17987","","null","","","null","45","","","","","","","","","","","","","","","",""
"","ISI","","html-keyboard-response","298","498468","0.0-1.0-408.0","0","0","17987","","null","","","null","45","NaN","","","","","","","","","","","","","","",""
"","S2","","html-keyboard-response","299","498724","0.0-1.0-409.0","0","0","17987","","null","","","null","45","","NaN","","","","","","","","","","","","","",""
"","response","","html-keyboard-response","300","499218","0.0-1.0-410.0","0","0","17987","","493","","","75","45","","","1","45","training","adjacent","EF","5","6","M.jpg","P.jpg","1","1","1","",""
"","feedback","","html-keyboard-response","301","500220","0.0-1.0-411.0-0.0","0","0","17987","","null","","","null","45","","","","","","","","","","","","","","","",""
"","ITI","","html-keyboard-response","302","501226","0.0-1.0-414.0","0","0","17987","","null","","","null","45","","","","","","","","","","","","","","","NaN",""
"","S1","","html-keyboard-response","303","501481","0.0-1.0-416.0","0","0","17987","","null","","","null","46","","","","","","","","","","","","","","","",""
"","ISI","","html-keyboard-response","304","503484","0.0-1.0-417.0","0","0","17987","","null","","","null","46","NaN","","","","","","","","","","","","","","",""
"","S2","","html-keyboard-response","305","503739","0.0-1.0-418.0","0","0","17987","","null","","","null","46","","NaN","","","","","","","","","","","","","",""
"","response","","html-keyboard-response","306","504281","0.0-1.0-419.0","0","0","17987","","541","","","68","46","","","1","46","training","adjacent","FE","6","5","P.jpg","M.jpg","0","0","1","",""
"","feedback","","html-keyboard-response","307","505289","0.0-1.0-420.0-0.0","0","0","17987","","null","","","null","46","","","","","","","","","","","","","","","",""
"","ITI","","html-keyboard-response","308","506295","0.0-1.0-423.0","0","0","17987","","null","","","null","46","","","","","","","","","","","","","","","NaN",""
"","S1","","html-keyboard-response","309","506549","0.0-1.0-425.0","0","0","17987","","null","","","null","47","","","","","","","","","","","","","","","",""
"","ISI","","html-keyboard-response","310","508552","0.0-1.0-426.0","0","0","17987","","null","","","null","47","NaN","","","","","","","","","","","","","","",""
"","S2","","html-keyboard-response","311","508807","0.0-1.0-427.0","0","0","17987","","null","","","null","47","","NaN","","","","","","","","","","","","","",""
"","response","","html-keyboard-response","312","509390","0.0-1.0-428.0","0","0","17987","","580","","","68","47","","","1","47","training","adjacent","BC","2","3","L.jpg","N.jpg","0","1","0","",""
"","feedback","","html-keyboard-response","313","510397","0.0-1.0-429.0-0.0","0","0","17987","","null","","","null","47","","","","","","","","","","","","","","","",""
"","time_out","","html-keyboard-response","314","512400","0.0-1.0-431.0-0.0","0","0","17987","","null","","","null","47","","","","","","","","","","","","","","","",""
"","ITI","","html-keyboard-response","315","513405","0.0-1.0-432.0","0","0","17987","","null","","","null","47","","","","","","","","","","","","","","","NaN",""
"","block_over","","html-keyboard-response","316","570184","0.0-1.0-433.0-0.0","0","0","17987","","56776","","","32","47","","","","","","","","","","","","","","","",""
"","S1","","html-keyboard-response","317","570440","0.0-1.0-434.0","0","0","17987","","null","","","null","48","","","","","","","","","","","","","","","",""
"","ISI","","html-keyboard-response","318","572443","0.0-1.0-435.0","0","0","17987","","null","","","null","48","NaN","","","","","","","","","","","","","","",""
"","S2","","html-keyboard-response","319","572698","0.0-1.0-436.0","0","0","17987","","null","","","null","48","","NaN","","","","","","","","","","","","","",""
"","response","","html-keyboard-response","320","573247","0.0-1.0-437.0","0","0","17987","","547","","","75","48","","","2","48","training","adjacent","GF","7","6","R.jpg","P.jpg","1","0","0","",""
"","feedback","","html-keyboard-response","321","574254","0.0-1.0-438.0-0.0","0","0","17987","","null","","","null","48","","","","","","","","","","","","","","","",""
"","time_out","","html-keyboard-response","322","576257","0.0-1.0-440.0-0.0","0","0","17987","","null","","","null","48","","","","","","","","","","","","","","","",""
"","ITI","","html-keyboard-response","323","577261","0.0-1.0-441.0","0","0","17987","","null","","","null","48","","","","","","","","","","","","","","","NaN",""
"","S1","","html-keyboard-response","324","577517","0.0-1.0-443.0","0","0","17987","","null","","","null","49","","","","","","","","","","","","","","","",""
"","ISI","","html-keyboard-response","325","579519","0.0-1.0-444.0","0","0","17987","","null","","","null","49","NaN","","","","","","","","","","","","","","",""
"","S2","","html-keyboard-response","326","579775","0.0-1.0-445.0","0","0","17987","","null","","","null","49","","NaN","","","","","","","","","","","","","",""
"","response","","html-keyboard-response","327","579962","0.0-1.0-446.0","0","0","17987","","185","","","75","49","","","2","49","training","adjacent","BA","2","1","L.jpg","Q.jpg","1","0","0","",""
"","feedback","","html-keyboard-response","328","580965","0.0-1.0-447.0-0.0","0","0","17987","","null","","","null","49","","","","","","","","","","","","","","","",""
"","time_out","","html-keyboard-response","329","582967","0.0-1.0-449.0-0.0","0","0","17987","","null","","","null","49","","","","","","","","","","","","","","","",""
"","ITI","","html-keyboard-response","330","583972","0.0-1.0-450.0","0","0","17987","","null","","","null","49","","","","","","","","","","","","","","","NaN",""
"","S1","","html-keyboard-response","331","584227","0.0-1.0-452.0","0","0","17987","","null","","","null","50","","","","","","","","","","","","","","","",""
"","ISI","","html-keyboard-response","332","586234","0.0-1.0-453.0","0","0","17987","","null","","","null","50","NaN","","","","","","","","","","","","","","",""
"","S2","","html-keyboard-response","333","586490","0.0-1.0-454.0","0","0","17987","","null","","","null","50","","NaN","","","","","","","","","","","","","",""
"","response","","html-keyboard-response","334","586866","0.0-1.0-455.0","0","0","17987","","374","","","68","50","","","2","50","training","adjacent","DC","4","3","O.jpg","N.jpg","0","0","1","",""
"","feedback","","html-keyboard-response","335","587868","0.0-1.0-456.0-0.0","0","0","17987","","null","","","null","50","","","","","","","","","","","","","","","",""
"","ITI","","html-keyboard-response","336","588872","0.0-1.0-459.0","0","0","17987","","null","","","null","50","","","","","","","","","","","","","","","NaN",""
"","S1","","html-keyboard-response","337","589127","0.0-1.0-461.0","0","0","17987","","null","","","null","51","","","","","","","","","","","","","","","",""
"","ISI","","html-keyboard-response","338","591130","0.0-1.0-462.0","0","0","17987","","null","","","null","51","NaN","","","","","","","","","","","","","","",""
"","S2","","html-keyboard-response","339","591385","0.0-1.0-463.0","0","0","17987","","null","","","null","51","","NaN","","","","","","","","","","","","","",""
"","response","","html-keyboard-response","340","591900","0.0-1.0-464.0","0","0","17987","","513","","","68","51","","","2","51","training","adjacent","CB","3","2","N.jpg","L.jpg","0","0","1","",""
"","feedback","","html-keyboard-response","341","592906","0.0-1.0-465.0-0.0","0","0","17987","","null","","","null","51","","","","","","","","","","","","","","","",""
"","ITI","","html-keyboard-response","342","593911","0.0-1.0-468.0","0","0","17987","","null","","","null","51","","","","","","","","","","","","","","","NaN",""
"","S1","","html-keyboard-response","343","594178","0.0-1.0-470.0","0","0","17987","","null","","","null","52","","","","","","","","","","","","","","","",""
"","ISI","","html-keyboard-response","344","596181","0.0-1.0-471.0","0","0","17987","","null","","","null","52","NaN","","","","","","","","","","","","","","",""
"","S2","","html-keyboard-response","345","596435","0.0-1.0-472.0","0","0","17987","","null","","","null","52","","NaN","","","","","","","","","","","","","",""
"","response","","html-keyboard-response","346","596817","0.0-1.0-473.0","0","0","17987","","380","","","75","52","","","2","52","training","adjacent","EF","5","6","M.jpg","P.jpg","1","1","1","",""
"","feedback","","html-keyboard-response","347","597823","0.0-1.0-474.0-0.0","0","0","17987","","null","","","null","52","","","","","","","","","","","","","","","",""
"","ITI","","html-keyboard-response","348","598827","0.0-1.0-477.0","0","0","17987","","null","","","null","52","","","","","","","","","","","","","","","NaN",""
"","S1","","html-keyboard-response","349","599082","0.0-1.0-479.0","0","0","17987","","null","","","null","53","","","","","","","","","","","","","","","",""
"","ISI","","html-keyboard-response","350","601085","0.0-1.0-480.0","0","0","17987","","null","","","null","53","NaN","","","","","","","","","","","","","","",""
"","S2","","html-keyboard-response","351","601341","0.0-1.0-481.0","0","0","17987","","null","","","null","53","","NaN","","","","","","","","","","","","","",""
"","response","","html-keyboard-response","352","601862","0.0-1.0-482.0","0","0","17987","","516","","","68","53","","","2","53","training","adjacent","FE","6","5","P.jpg","M.jpg","0","0","1","",""
"","feedback","","html-keyboard-response","353","602867","0.0-1.0-483.0-0.0","0","0","17987","","null","","","null","53","","","","","","","","","","","","","","","",""
"","ITI","","html-keyboard-response","354","603872","0.0-1.0-486.0","0","0","17987","","null","","","null","53","","","","","","","","","","","","","","","NaN",""
"","S1","","html-keyboard-response","355","604128","0.0-1.0-488.0","0","0","17987","","null","","","null","54","","","","","","","","","","","","","","","",""
"","ISI","","html-keyboard-response","356","606131","0.0-1.0-489.0","0","0","17987","","null","","","null","54","NaN","","","","","","","","","","","","","","",""
"","S2","","html-keyboard-response","357","606386","0.0-1.0-490.0","0","0","17987","","null","","","null","54","","NaN","","","","","","","","","","","","","",""
"","response","","html-keyboard-response","358","606976","0.0-1.0-491.0","0","0","17987","","588","","","68","54","","","2","54","training","adjacent","AB","1","2","Q.jpg","L.jpg","0","1","0","",""
"","feedback","","html-keyboard-response","359","607982","0.0-1.0-492.0-0.0","0","0","17987","","null","","","null","54","","","","","","","","","","","","","","","",""
"","time_out","","html-keyboard-response","360","609986","0.0-1.0-494.0-0.0","0","0","17987","","null","","","null","54","","","","","","","","","","","","","","","",""
"","ITI","","html-keyboard-response","361","610990","0.0-1.0-495.0","0","0","17987","","null","","","null","54","","","","","","","","","","","","","","","NaN",""
"","S1","","html-keyboard-response","362","611243","0.0-1.0-497.0","0","0","17987","","null","","","null","55","","","","","","","","","","","","","","","",""
"","ISI","","html-keyboard-response","363","613248","0.0-1.0-498.0","0","0","17987","","null","","","null","55","NaN","","","","","","","","","","","","","","",""
"","S2","","html-keyboard-response","364","613503","0.0-1.0-499.0","0","0","17987","","null","","","null","55","","NaN","","","","","","","","","","","","","",""
"","response","","html-keyboard-response","365","614056","0.0-1.0-500.0","0","0","17987","","551","","","75","55","","","2","55","training","adjacent","ED","5","4","M.jpg","O.jpg","1","0","0","",""
"","feedback","","html-keyboard-response","366","615059","0.0-1.0-501.0-0.0","0","0","17987","","null","","","null","55","","","","","","","","","","","","","","","",""
"","time_out","","html-keyboard-response","367","617061","0.0-1.0-503.0-0.0","0","0","17987","","null","","","null","55","","","","","","","","","","","","","","","",""
"","ITI","","html-keyboard-response","368","618067","0.0-1.0-504.0","0","0","17987","","null","","","null","55","","","","","","","","","","","","","","","NaN",""
"","S1","","html-keyboard-response","369","618321","0.0-1.0-506.0","0","0","17987","","null","","","null","56","","","","","","","","","","","","","","","",""
"","ISI","","html-keyboard-response","370","620324","0.0-1.0-507.0","0","0","17987","","null","","","null","56","NaN","","","","","","","","","","","","","","",""
"","S2","","html-keyboard-response","371","620578","0.0-1.0-508.0","0","0","17987","","null","","","null","56","","NaN","","","","","","","","","","","","","",""
"","response","","html-keyboard-response","372","621009","0.0-1.0-509.0","0","0","17987","","429","","","75","56","","","2","56","training","adjacent","BC","2","3","L.jpg","N.jpg","1","1","1","",""
"","feedback","","html-keyboard-response","373","622013","0.0-1.0-510.0-0.0","0","0","17987","","null","","","null","56","","","","","","","","","","","","","","","",""
"","ITI","","html-keyboard-response","374","623018","0.0-1.0-513.0","0","0","17987","","null","","","null","56","","","","","","","","","","","","","","","NaN",""
"","S1","","html-keyboard-response","375","623273","0.0-1.0-515.0","0","0","17987","","null","","","null","57","","","","","","","","","","","","","","","",""
"","ISI","","html-keyboard-response","376","625276","0.0-1.0-516.0","0","0","17987","","null","","","null","57","NaN","","","","","","","","","","","","","","",""
"","S2","","html-keyboard-response","377","625531","0.0-1.0-517.0","0","0","17987","","null","","","null","57","","NaN","","","","","","","","","","","","","",""
"","response","","html-keyboard-response","378","626031","0.0-1.0-518.0","0","0","17987","","498","","","75","57","","","2","57","training","adjacent","BC","2","3","L.jpg","N.jpg","1","1","1","",""
"","feedback","","html-keyboard-response","379","627043","0.0-1.0-519.0-0.0","0","0","17987","","null","","","null","57","","","","","","","","","","","","","","","",""
"","ITI","","html-keyboard-response","380","628050","0.0-1.0-522.0","0","0","17987","","null","","","null","57","","","","","","","","","","","","","","","NaN",""
"","S1","","html-keyboard-response","381","628305","0.0-1.0-524.0","0","0","17987","","null","","","null","58","","","","","","","","","","","","","","","",""
"","ISI","","html-keyboard-response","382","630309","0.0-1.0-525.0","0","0","17987","","null","","","null","58","NaN","","","","","","","","","","","","","","",""
"","S2","","html-keyboard-response","383","630564","0.0-1.0-526.0","0","0","17987","","null","","","null","58","","NaN","","","","","","","","","","","","","",""
"","response","","html-keyboard-response","384","631355","0.0-1.0-527.0","0","0","17987","","789","","","68","58","","","2","58","training","adjacent","GF","7","6","R.jpg","P.jpg","0","0","1","",""
"","feedback","","html-keyboard-response","385","632358","0.0-1.0-528.0-0.0","0","0","17987","","null","","","null","58","","","","","","","","","","","","","","","",""
"","ITI","","html-keyboard-response","386","633362","0.0-1.0-531.0","0","0","17987","","null","","","null","58","","","","","","","","","","","","","","","NaN",""
"","S1","","html-keyboard-response","387","633617","0.0-1.0-533.0","0","0","17987","","null","","","null","59","","","","","","","","","","","","","","","",""
"","ISI","","html-keyboard-response","388","635624","0.0-1.0-534.0","0","0","17987","","null","","","null","59","NaN","","","","","","","","","","","","","","",""
"","S2","","html-keyboard-response","389","635881","0.0-1.0-535.0","0","0","17987","","null","","","null","59","","NaN","","","","","","","","","","","","","",""
"","response","","html-keyboard-response","390","636588","0.0-1.0-536.0","0","0","17987","","705","","","75","59","","","2","59","training","adjacent","CD","3","4","N.jpg","O.jpg","1","1","1","",""
"","feedback","","html-keyboard-response","391","637601","0.0-1.0-537.0-0.0","0","0","17987","","null","","","null","59","","","","","","","","","","","","","","","",""
"","ITI","","html-keyboard-response","392","638604","0.0-1.0-540.0","0","0","17987","","null","","","null","59","","","","","","","","","","","","","","","NaN",""
"","S1","","html-keyboard-response","393","638859","0.0-1.0-542.0","0","0","17987","","null","","","null","60","","","","","","","","","","","","","","","",""
"","ISI","","html-keyboard-response","394","640862","0.0-1.0-543.0","0","0","17987","","null","","","null","60","NaN","","","","","","","","","","","","","","",""
"","S2","","html-keyboard-response","395","641118","0.0-1.0-544.0","0","0","17987","","null","","","null","60","","NaN","","","","","","","","","","","","","",""
"","response","","html-keyboard-response","396","641684","0.0-1.0-545.0","0","0","17987","","564","","","75","60","","","2","60","training","adjacent","DC","4","3","O.jpg","N.jpg","1","0","0","",""
"","feedback","","html-keyboard-response","397","642691","0.0-1.0-546.0-0.0","0","0","17987","","null","","","null","60","","","","","","","","","","","","","","","",""
"","time_out","","html-keyboard-response","398","644693","0.0-1.0-548.0-0.0","0","0","17987","","null","","","null","60","","","","","","","","","","","","","","","",""
"","ITI","","html-keyboard-response","399","645698","0.0-1.0-549.0","0","0","17987","","null","","","null","60","","","","","","","","","","","","","","","NaN",""
"","S1","","html-keyboard-response","400","645954","0.0-1.0-551.0","0","0","17987","","null","","","null","61","","","","","","","","","","","","","","","",""
"","ISI","","html-keyboard-response","401","647957","0.0-1.0-552.0","0","0","17987","","null","","","null","61","NaN","","","","","","","","","","","","","","",""
"","S2","","html-keyboard-response","402","648212","0.0-1.0-553.0","0","0","17987","","null","","","null","61","","NaN","","","","","","","","","","","","","",""
"","response","","html-keyboard-response","403","648758","0.0-1.0-554.0","0","0","17987","","544","","","75","61","","","2","61","training","adjacent","FE","6","5","P.jpg","M.jpg","1","0","0","",""
"","feedback","","html-keyboard-response","404","649762","0.0-1.0-555.0-0.0","0","0","17987","","null","","","null","61","","","","","","","","","","","","","","","",""
"","time_out","","html-keyboard-response","405","651765","0.0-1.0-557.0-0.0","0","0","17987","","null","","","null","61","","","","","","","","","","","","","","","",""
"","ITI","","html-keyboard-response","406","652769","0.0-1.0-558.0","0","0","17987","","null","","","null","61","","","","","","","","","","","","","","","NaN",""
"","S1","","html-keyboard-response","407","653024","0.0-1.0-560.0","0","0","17987","","null","","","null","62","","","","","","","","","","","","","","","",""
"","ISI","","html-keyboard-response","408","655027","0.0-1.0-561.0","0","0","17987","","null","","","null","62","NaN","","","","","","","","","","","","","","",""
"","S2","","html-keyboard-response","409","655283","0.0-1.0-562.0","0","0","17987","","null","","","null","62","","NaN","","","","","","","","","","","","","",""
"","response","","html-keyboard-response","410","656217","0.0-1.0-563.0","0","0","17987","","933","","","75","62","","","2","62","training","adjacent","GF","7","6","R.jpg","P.jpg","1","0","0","",""
"","feedback","","html-keyboard-response","411","657222","0.0-1.0-564.0-0.0","0","0","17987","","null","","","null","62","","","","","","","","","","","","","","","",""
"","time_out","","html-keyboard-response","412","659225","0.0-1.0-566.0-0.0","0","0","17987","","null","","","null","62","","","","","","","","","","","","","","","",""
"","ITI","","html-keyboard-response","413","660229","0.0-1.0-567.0","0","0","17987","","null","","","null","62","","","","","","","","","","","","","","","NaN",""
"","S1","","html-keyboard-response","414","660484","0.0-1.0-569.0","0","0","17987","","null","","","null","63","","","","","","","","","","","","","","","",""
"","ISI","","html-keyboard-response","415","662486","0.0-1.0-570.0","0","0","17987","","null","","","null","63","NaN","","","","","","","","","","","","","","",""
"","S2","","html-keyboard-response","416","662742","0.0-1.0-571.0","0","0","17987","","null","","","null","63","","NaN","","","","","","","","","","","","","",""
"","response","","html-keyboard-response","417","663207","0.0-1.0-572.0","0","0","17987","","462","","","68","63","","","2","63","training","adjacent","FE","6","5","P.jpg","M.jpg","0","0","1","",""
"","feedback","","html-keyboard-response","418","664211","0.0-1.0-573.0-0.0","0","0","17987","","null","","","null","63","","","","","","","","","","","","","","","",""
"","ITI","","html-keyboard-response","419","665215","0.0-1.0-576.0","0","0","17987","","null","","","null","63","","","","","","","","","","","","","","","NaN",""
"","S1","","html-keyboard-response","420","665470","0.0-1.0-578.0","0","0","17987","","null","","","null","64","","","","","","","","","","","","","","","",""
"","ISI","","html-keyboard-response","421","667473","0.0-1.0-579.0","0","0","17987","","null","","","null","64","NaN","","","","","","","","","","","","","","",""
"","S2","","html-keyboard-response","422","667729","0.0-1.0-580.0","0","0","17987","","null","","","null","64","","NaN","","","","","","","","","","","","","",""
"","response","","html-keyboard-response","423","668226","0.0-1.0-581.0","0","0","17987","","495","","","68","64","","","2","64","training","adjacent","DE","4","5","O.jpg","M.jpg","0","1","0","",""
"","feedback","","html-keyboard-response","424","669232","0.0-1.0-582.0-0.0","0","0","17987","","null","","","null","64","","","","","","","","","","","","","","","",""
"","time_out","","html-keyboard-response","425","671247","0.0-1.0-584.0-0.0","0","0","17987","","null","","","null","64","","","","","","","","","","","","","","","",""
"","ITI","","html-keyboard-response","426","672251","0.0-1.0-585.0","0","0","17987","","null","","","null","64","","","","","","","","","","","","","","","NaN",""
"","S1","","html-keyboard-response","427","672507","0.0-1.0-587.0","0","0","17987","","null","","","null","65","","","","","","","","","","","","","","","",""
"","ISI","","html-keyboard-response","428","674515","0.0-1.0-588.0","0","0","17987","","null","","","null","65","NaN","","","","","","","","","","","","","","",""
"","S2","","html-keyboard-response","429","674772","0.0-1.0-589.0","0","0","17987","","null","","","null","65","","NaN","","","","","","","","","","","","","",""
"","response","","html-keyboard-response","430","675350","0.0-1.0-590.0","0","0","17987","","576","","","68","65","","","2","65","training","adjacent","CB","3","2","N.jpg","L.jpg","0","0","1","",""
"","feedback","","html-keyboard-response","431","676353","0.0-1.0-591.0-0.0","0","0","17987","","null","","","null","65","","","","","","","","","","","","","","","",""
"","ITI","","html-keyboard-response","432","677360","0.0-1.0-594.0","0","0","17987","","null","","","null","65","","","","","","","","","","","","","","","NaN",""
"","S1","","html-keyboard-response","433","677625","0.0-1.0-596.0","0","0","17987","","null","","","null","66","","","","","","","","","","","","","","","",""
"","ISI","","html-keyboard-response","434","679630","0.0-1.0-597.0","0","0","17987","","null","","","null","66","NaN","","","","","","","","","","","","","","",""
"","S2","","html-keyboard-response","435","679885","0.0-1.0-598.0","0","0","17987","","null","","","null","66","","NaN","","","","","","","","","","","","","",""
"","response","","html-keyboard-response","436","680701","0.0-1.0-599.0","0","0","17987","","814","","","68","66","","","2","66","training","adjacent","DE","4","5","O.jpg","M.jpg","0","1","0","",""
"","feedback","","html-keyboard-response","437","681708","0.0-1.0-600.0-0.0","0","0","17987","","null","","","null","66","","","","","","","","","","","","","","","",""
"","time_out","","html-keyboard-response","438","683710","0.0-1.0-602.0-0.0","0","0","17987","","null","","","null","66","","","","","","","","","","","","","","","",""
"","ITI","","html-keyboard-response","439","684715","0.0-1.0-603.0","0","0","17987","","null","","","null","66","","","","","","","","","","","","","","","NaN",""
"","S1","","html-keyboard-response","440","684970","0.0-1.0-605.0","0","0","17987","","null","","","null","67","","","","","","","","","","","","","","","",""
"","ISI","","html-keyboard-response","441","686973","0.0-1.0-606.0","0","0","17987","","null","","","null","67","NaN","","","","","","","","","","","","","","",""
"","S2","","html-keyboard-response","442","687243","0.0-1.0-607.0","0","0","17987","","null","","","null","67","","NaN","","","","","","","","","","","","","",""
"","response","","html-keyboard-response","443","687661","0.0-1.0-608.0","0","0","17987","","416","","","75","67","","","2","67","training","adjacent","DC","4","3","O.jpg","N.jpg","1","0","0","",""
"","feedback","","html-keyboard-response","444","688665","0.0-1.0-609.0-0.0","0","0","17987","","null","","","null","67","","","","","","","","","","","","","","","",""
"","time_out","","html-keyboard-response","445","690671","0.0-1.0-611.0-0.0","0","0","17987","","null","","","null","67","","","","","","","","","","","","","","","",""
"","ITI","","html-keyboard-response","446","691675","0.0-1.0-612.0","0","0","17987","","null","","","null","67","","","","","","","","","","","","","","","NaN",""
"","S1","","html-keyboard-response","447","691931","0.0-1.0-614.0","0","0","17987","","null","","","null","68","","","","","","","","","","","","","","","",""
"","ISI","","html-keyboard-response","448","693933","0.0-1.0-615.0","0","0","17987","","null","","","null","68","NaN","","","","","","","","","","","","","","",""
"","S2","","html-keyboard-response","449","694189","0.0-1.0-616.0","0","0","17987","","null","","","null","68","","NaN","","","","","","","","","","","","","",""
"","response","","html-keyboard-response","450","694522","0.0-1.0-617.0","0","0","17987","","331","","","75","68","","","2","68","training","adjacent","ED","5","4","M.jpg","O.jpg","1","0","0","",""
"","feedback","","html-keyboard-response","451","695526","0.0-1.0-618.0-0.0","0","0","17987","","null","","","null","68","","","","","","","","","","","","","","","",""
"","time_out","","html-keyboard-response","452","697532","0.0-1.0-620.0-0.0","0","0","17987","","null","","","null","68","","","","","","","","","","","","","","","",""
"","ITI","","html-keyboard-response","453","698537","0.0-1.0-621.0","0","0","17987","","null","","","null","68","","","","","","","","","","","","","","","NaN",""
"","S1","","html-keyboard-response","454","698793","0.0-1.0-623.0","0","0","17987","","null","","","null","69","","","","","","","","","","","","","","","",""
"","ISI","","html-keyboard-response","455","700795","0.0-1.0-624.0","0","0","17987","","null","","","null","69","NaN","","","","","","","","","","","","","","",""
"","S2","","html-keyboard-response","456","701051","0.0-1.0-625.0","0","0","17987","","null","","","null","69","","NaN","","","","","","","","","","","","","",""
"","response","","html-keyboard-response","457","701542","0.0-1.0-626.0","0","0","17987","","487","","","75","69","","","2","69","training","adjacent","EF","5","6","M.jpg","P.jpg","1","1","1","",""
"","feedback","","html-keyboard-response","458","702548","0.0-1.0-627.0-0.0","0","0","17987","","null","","","null","69","","","","","","","","","","","","","","","",""
"","ITI","","html-keyboard-response","459","703552","0.0-1.0-630.0","0","0","17987","","null","","","null","69","","","","","","","","","","","","","","","NaN",""
"","S1","","html-keyboard-response","460","703808","0.0-1.0-632.0","0","0","17987","","null","","","null","70","","","","","","","","","","","","","","","",""
"","ISI","","html-keyboard-response","461","705811","0.0-1.0-633.0","0","0","17987","","null","","","null","70","NaN","","","","","","","","","","","","","","",""
"","S2","","html-keyboard-response","462","706066","0.0-1.0-634.0","0","0","17987","","null","","","null","70","","NaN","","","","","","","","","","","","","",""
"","response","","html-keyboard-response","463","706314","0.0-1.0-635.0","0","0","17987","","246","","","75","70","","","2","70","training","adjacent","GF","7","6","R.jpg","P.jpg","1","0","0","",""
"","feedback","","html-keyboard-response","464","707320","0.0-1.0-636.0-0.0","0","0","17987","","null","","","null","70","","","","","","","","","","","","","","","",""
"","time_out","","html-keyboard-response","465","709324","0.0-1.0-638.0-0.0","0","0","17987","","null","","","null","70","","","","","","","","","","","","","","","",""
"","ITI","","html-keyboard-response","466","710327","0.0-1.0-639.0","0","0","17987","","null","","","null","70","","","","","","","","","","","","","","","NaN",""
"","S1","","html-keyboard-response","467","710583","0.0-1.0-641.0","0","0","17987","","null","","","null","71","","","","","","","","","","","","","","","",""
"","ISI","","html-keyboard-response","468","712586","0.0-1.0-642.0","0","0","17987","","null","","","null","71","NaN","","","","","","","","","","","","","","",""
"","S2","","html-keyboard-response","469","712854","0.0-1.0-643.0","0","0","17987","","null","","","null","71","","NaN","","","","","","","","","","","","","",""
"","response","","html-keyboard-response","470","713248","0.0-1.0-644.0","0","0","17987","","392","","","75","71","","","2","71","training","adjacent","BC","2","3","L.jpg","N.jpg","1","1","1","",""
"","feedback","","html-keyboard-response","471","714253","0.0-1.0-645.0-0.0","0","0","17987","","null","","","null","71","","","","","","","","","","","","","","","",""
"","ITI","","html-keyboard-response","472","715260","0.0-1.0-648.0","0","0","17987","","null","","","null","71","","","","","","","","","","","","","","","NaN",""
"","S1","","html-keyboard-response","473","715517","0.0-1.0-650.0","0","0","17987","","null","","","null","72","","","","","","","","","","","","","","","",""
"","ISI","","html-keyboard-response","474","717519","0.0-1.0-651.0","0","0","17987","","null","","","null","72","NaN","","","","","","","","","","","","","","",""
"","S2","","html-keyboard-response","475","717775","0.0-1.0-652.0","0","0","17987","","null","","","null","72","","NaN","","","","","","","","","","","","","",""
"","response","","html-keyboard-response","476","718823","0.0-1.0-653.0","0","0","17987","","1046","","","68","72","","","2","72","training","adjacent","CD","3","4","N.jpg","O.jpg","0","1","0","",""
"","feedback","","html-keyboard-response","477","719831","0.0-1.0-654.0-0.0","0","0","17987","","null","","","null","72","","","","","","","","","","","","","","","",""
"","time_out","","html-keyboard-response","478","721833","0.0-1.0-656.0-0.0","0","0","17987","","null","","","null","72","","","","","","","","","","","","","","","",""
"","ITI","","html-keyboard-response","479","722837","0.0-1.0-657.0","0","0","17987","","null","","","null","72","","","","","","","","","","","","","","","NaN",""
"","S1","","html-keyboard-response","480","723106","0.0-1.0-659.0","0","0","17987","","null","","","null","73","","","","","","","","","","","","","","","",""
"","ISI","","html-keyboard-response","481","725113","0.0-1.0-660.0","0","0","17987","","null","","","null","73","NaN","","","","","","","","","","","","","","",""
"","S2","","html-keyboard-response","482","725369","0.0-1.0-661.0","0","0","17987","","null","","","null","73","","NaN","","","","","","","","","","","","","",""
"","response","","html-keyboard-response","483","726124","0.0-1.0-662.0","0","0","17987","","754","","","75","73","","","2","73","training","adjacent","CD","3","4","N.jpg","O.jpg","1","1","1","",""
"","feedback","","html-keyboard-response","484","727126","0.0-1.0-663.0-0.0","0","0","17987","","null","","","null","73","","","","","","","","","","","","","","","",""
"","ITI","","html-keyboard-response","485","728131","0.0-1.0-666.0","0","0","17987","","null","","","null","73","","","","","","","","","","","","","","","NaN",""
"","S1","","html-keyboard-response","486","728387","0.0-1.0-668.0","0","0","17987","","null","","","null","74","","","","","","","","","","","","","","","",""
"","ISI","","html-keyboard-response","487","730390","0.0-1.0-669.0","0","0","17987","","null","","","null","74","NaN","","","","","","","","","","","","","","",""
"","S2","","html-keyboard-response","488","730645","0.0-1.0-670.0","0","0","17987","","null","","","null","74","","NaN","","","","","","","","","","","","","",""
"","response","","html-keyboard-response","489","731394","0.0-1.0-671.0","0","0","17987","","747","","","68","74","","","2","74","training","adjacent","FG","6","7","P.jpg","R.jpg","0","1","0","",""
"","feedback","","html-keyboard-response","490","732400","0.0-1.0-672.0-0.0","0","0","17987","","null","","","null","74","","","","","","","","","","","","","","","",""
"","time_out","","html-keyboard-response","491","734407","0.0-1.0-674.0-0.0","0","0","17987","","null","","","null","74","","","","","","","","","","","","","","","",""
"","ITI","","html-keyboard-response","492","735411","0.0-1.0-675.0","0","0","17987","","null","","","null","74","","","","","","","","","","","","","","","NaN",""
"","S1","","html-keyboard-response","493","735666","0.0-1.0-677.0","0","0","17987","","null","","","null","75","","","","","","","","","","","","","","","",""
"","ISI","","html-keyboard-response","494","737671","0.0-1.0-678.0","0","0","17987","","null","","","null","75","NaN","","","","","","","","","","","","","","",""
"","S2","","html-keyboard-response","495","737925","0.0-1.0-679.0","0","0","17987","","null","","","null","75","","NaN","","","","","","","","","","","","","",""
"","response","","html-keyboard-response","496","738311","0.0-1.0-680.0","0","0","17987","","383","","","75","75","","","2","75","training","adjacent","DE","4","5","O.jpg","M.jpg","1","1","1","",""
"","feedback","","html-keyboard-response","497","739317","0.0-1.0-681.0-0.0","0","0","17987","","null","","","null","75","","","","","","","","","","","","","","","",""
"","ITI","","html-keyboard-response","498","740322","0.0-1.0-684.0","0","0","17987","","null","","","null","75","","","","","","","","","","","","","","","NaN",""
"","S1","","html-keyboard-response","499","740578","0.0-1.0-686.0","0","0","17987","","null","","","null","76","","","","","","","","","","","","","","","",""
"","ISI","","html-keyboard-response","500","742581","0.0-1.0-687.0","0","0","17987","","null","","","null","76","NaN","","","","","","","","","","","","","","",""
"","S2","","html-keyboard-response","501","742836","0.0-1.0-688.0","0","0","17987","","null","","","null","76","","NaN","","","","","","","","","","","","","",""
"","response","","html-keyboard-response","502","743657","0.0-1.0-689.0","0","0","17987","","819","","","68","76","","","2","76","training","adjacent","EF","5","6","M.jpg","P.jpg","0","1","0","",""
"","feedback","","html-keyboard-response","503","744662","0.0-1.0-690.0-0.0","0","0","17987","","null","","","null","76","","","","","","","","","","","","","","","",""
"","time_out","","html-keyboard-response","504","746667","0.0-1.0-692.0-0.0","0","0","17987","","null","","","null","76","","","","","","","","","","","","","","","",""
"","ITI","","html-keyboard-response","505","747672","0.0-1.0-693.0","0","0","17987","","null","","","null","76","","","","","","","","","","","","","","","NaN",""
"","S1","","html-keyboard-response","506","747926","0.0-1.0-695.0","0","0","17987","","null","","","null","77","","","","","","","","","","","","","","","",""
"","ISI","","html-keyboard-response","507","749929","0.0-1.0-696.0","0","0","17987","","null","","","null","77","NaN","","","","","","","","","","","","","","",""
"","S2","","html-keyboard-response","508","750185","0.0-1.0-697.0","0","0","17987","","null","","","null","77","","NaN","","","","","","","","","","","","","",""
"","response","","html-keyboard-response","509","750732","0.0-1.0-698.0","0","0","17987","","544","","","68","77","","","2","77","training","adjacent","BA","2","1","L.jpg","Q.jpg","0","0","1","",""
"","feedback","","html-keyboard-response","510","751736","0.0-1.0-699.0-0.0","0","0","17987","","null","","","null","77","","","","","","","","","","","","","","","",""
"","ITI","","html-keyboard-response","511","752741","0.0-1.0-702.0","0","0","17987","","null","","","null","77","","","","","","","","","","","","","","","NaN",""
"","S1","","html-keyboard-response","512","752995","0.0-1.0-704.0","0","0","17987","","null","","","null","78","","","","","","","","","","","","","","","",""
"","ISI","","html-keyboard-response","513","754998","0.0-1.0-705.0","0","0","17987","","null","","","null","78","NaN","","","","","","","","","","","","","","",""
"","S2","","html-keyboard-response","514","755254","0.0-1.0-706.0","0","0","17987","","null","","","null","78","","NaN","","","","","","","","","","","","","",""
"","response","","html-keyboard-response","515","755851","0.0-1.0-707.0","0","0","17987","","596","","","75","78","","","2","78","training","adjacent","BA","2","1","L.jpg","Q.jpg","1","0","0","",""
"","feedback","","html-keyboard-response","516","756856","0.0-1.0-708.0-0.0","0","0","17987","","null","","","null","78","","","","","","","","","","","","","","","",""
"","time_out","","html-keyboard-response","517","758859","0.0-1.0-710.0-0.0","0","0","17987","","null","","","null","78","","","","","","","","","","","","","","","",""
"","ITI","","html-keyboard-response","518","759862","0.0-1.0-711.0","0","0","17987","","null","","","null","78","","","","","","","","","","","","","","","NaN",""
"","S1","","html-keyboard-response","519","760118","0.0-1.0-713.0","0","0","17987","","null","","","null","79","","","","","","","","","","","","","","","",""
"","ISI","","html-keyboard-response","520","762126","0.0-1.0-714.0","0","0","17987","","null","","","null","79","NaN","","","","","","","","","","","","","","",""
"","S2","","html-keyboard-response","521","762381","0.0-1.0-715.0","0","0","17987","","null","","","null","79","","NaN","","","","","","","","","","","","","",""
"","response","","html-keyboard-response","522","762680","0.0-1.0-716.0","0","0","17987","","297","","","75","79","","","2","79","training","adjacent","FE","6","5","P.jpg","M.jpg","1","0","0","",""
"","feedback","","html-keyboard-response","523","763685","0.0-1.0-717.0-0.0","0","0","17987","","null","","","null","79","","","","","","","","","","","","","","","",""
"","time_out","","html-keyboard-response","524","765691","0.0-1.0-719.0-0.0","0","0","17987","","null","","","null","79","","","","","","","","","","","","","","","",""
"","ITI","","html-keyboard-response","525","766695","0.0-1.0-720.0","0","0","17987","","null","","","null","79","","","","","","","","","","","","","","","NaN",""
"","S1","","html-keyboard-response","526","766951","0.0-1.0-722.0","0","0","17987","","null","","","null","80","","","","","","","","","","","","","","","",""
"","ISI","","html-keyboard-response","527","768953","0.0-1.0-723.0","0","0","17987","","null","","","null","80","NaN","","","","","","","","","","","","","","",""
"","S2","","html-keyboard-response","528","769210","0.0-1.0-724.0","0","0","17987","","null","","","null","80","","NaN","","","","","","","","","","","","","",""
"","response","","html-keyboard-response","529","769914","0.0-1.0-725.0","0","0","17987","","703","","","68","80","","","2","80","training","adjacent","AB","1","2","Q.jpg","L.jpg","0","1","0","",""
"","feedback","","html-keyboard-response","530","770916","0.0-1.0-726.0-0.0","0","0","17987","","null","","","null","80","","","","","","","","","","","","","","","",""
"","time_out","","html-keyboard-response","531","772918","0.0-1.0-728.0-0.0","0","0","17987","","null","","","null","80","","","","","","","","","","","","","","","",""
"","ITI","","html-keyboard-response","532","773923","0.0-1.0-729.0","0","0","17987","","null","","","null","80","","","","","","","","","","","","","","","NaN",""
"","S1","","html-keyboard-response","533","774178","0.0-1.0-731.0","0","0","17987","","null","","","null","81","","","","","","","","","","","","","","","",""
"","ISI","","html-keyboard-response","534","776184","0.0-1.0-732.0","0","0","17987","","null","","","null","81","NaN","","","","","","","","","","","","","","",""
"","S2","","html-keyboard-response","535","776437","0.0-1.0-733.0","0","0","17987","","null","","","null","81","","NaN","","","","","","","","","","","","","",""
"","response","","html-keyboard-response","536","776804","0.0-1.0-734.0","0","0","17987","","365","","","75","81","","","2","81","training","adjacent","FG","6","7","P.jpg","R.jpg","1","1","1","",""
"","feedback","","html-keyboard-response","537","777806","0.0-1.0-735.0-0.0","0","0","17987","","null","","","null","81","","","","","","","","","","","","","","","",""
"","ITI","","html-keyboard-response","538","778811","0.0-1.0-738.0","0","0","17987","","null","","","null","81","","","","","","","","","","","","","","","NaN",""
"","S1","","html-keyboard-response","539","779066","0.0-1.0-740.0","0","0","17987","","null","","","null","82","","","","","","","","","","","","","","","",""
"","ISI","","html-keyboard-response","540","781068","0.0-1.0-741.0","0","0","17987","","null","","","null","82","NaN","","","","","","","","","","","","","","",""
"","S2","","html-keyboard-response","541","781324","0.0-1.0-742.0","0","0","17987","","null","","","null","82","","NaN","","","","","","","","","","","","","",""
"","response","","html-keyboard-response","542","782338","0.0-1.0-743.0","0","0","17987","","1012","","","75","82","","","2","82","training","adjacent","CD","3","4","N.jpg","O.jpg","1","1","1","",""
"","feedback","","html-keyboard-response","543","783345","0.0-1.0-744.0-0.0","0","0","17987","","null","","","null","82","","","","","","","","","","","","","","","",""
"","ITI","","html-keyboard-response","544","784349","0.0-1.0-747.0","0","0","17987","","null","","","null","82","","","","","","","","","","","","","","","NaN",""
"","S1","","html-keyboard-response","545","784604","0.0-1.0-749.0","0","0","17987","","null","","","null","83","","","","","","","","","","","","","","","",""
"","ISI","","html-keyboard-response","546","786606","0.0-1.0-750.0","0","0","17987","","null","","","null","83","NaN","","","","","","","","","","","","","","",""
"","S2","","html-keyboard-response","547","786863","0.0-1.0-751.0","0","0","17987","","null","","","null","83","","NaN","","","","","","","","","","","","","",""
"","response","","html-keyboard-response","548","787067","0.0-1.0-752.0","0","0","17987","","203","","","68","83","","","2","83","training","adjacent","DE","4","5","O.jpg","M.jpg","0","1","0","",""
"","feedback","","html-keyboard-response","549","788070","0.0-1.0-753.0-0.0","0","0","17987","","null","","","null","83","","","","","","","","","","","","","","","",""
"","time_out","","html-keyboard-response","550","790073","0.0-1.0-755.0-0.0","0","0","17987","","null","","","null","83","","","","","","","","","","","","","","","",""
"","ITI","","html-keyboard-response","551","791078","0.0-1.0-756.0","0","0","17987","","null","","","null","83","","","","","","","","","","","","","","","NaN",""
"","S1","","html-keyboard-response","552","791335","0.0-1.0-758.0","0","0","17987","","null","","","null","84","","","","","","","","","","","","","","","",""
"","ISI","","html-keyboard-response","553","793341","0.0-1.0-759.0","0","0","17987","","null","","","null","84","NaN","","","","","","","","","","","","","","",""
"","S2","","html-keyboard-response","554","793597","0.0-1.0-760.0","0","0","17987","","null","","","null","84","","NaN","","","","","","","","","","","","","",""
"","response","","html-keyboard-response","555","793868","0.0-1.0-761.0","0","0","17987","","269","","","75","84","","","2","84","training","adjacent","FG","6","7","P.jpg","R.jpg","1","1","1","",""
"","feedback","","html-keyboard-response","556","794874","0.0-1.0-762.0-0.0","0","0","17987","","null","","","null","84","","","","","","","","","","","","","","","",""
"","ITI","","html-keyboard-response","557","795882","0.0-1.0-765.0","0","0","17987","","null","","","null","84","","","","","","","","","","","","","","","NaN",""
"","S1","","html-keyboard-response","558","796134","0.0-1.0-767.0","0","0","17987","","null","","","null","85","","","","","","","","","","","","","","","",""
"","ISI","","html-keyboard-response","559","798139","0.0-1.0-768.0","0","0","17987","","null","","","null","85","NaN","","","","","","","","","","","","","","",""
"","S2","","html-keyboard-response","560","798395","0.0-1.0-769.0","0","0","17987","","null","","","null","85","","NaN","","","","","","","","","","","","","",""
"","response","","html-keyboard-response","561","799631","0.0-1.0-770.0","0","0","17987","","1235","","","68","85","","","2","85","training","adjacent","DC","4","3","O.jpg","N.jpg","0","0","1","",""
"","feedback","","html-keyboard-response","562","800634","0.0-1.0-771.0-0.0","0","0","17987","","null","","","null","85","","","","","","","","","","","","","","","",""
"","ITI","","html-keyboard-response","563","801637","0.0-1.0-774.0","0","0","17987","","null","","","null","85","","","","","","","","","","","","","","","NaN",""
"","S1","","html-keyboard-response","564","801891","0.0-1.0-776.0","0","0","17987","","null","","","null","86","","","","","","","","","","","","","","","",""
"","ISI","","html-keyboard-response","565","803895","0.0-1.0-777.0","0","0","17987","","null","","","null","86","NaN","","","","","","","","","","","","","","",""
"","S2","","html-keyboard-response","566","804147","0.0-1.0-778.0","0","0","17987","","null","","","null","86","","NaN","","","","","","","","","","","","","",""
"","response","","html-keyboard-response","567","804740","0.0-1.0-779.0","0","0","17987","","592","","","68","86","","","2","86","training","adjacent","ED","5","4","M.jpg","O.jpg","0","0","1","",""
"","feedback","","html-keyboard-response","568","805747","0.0-1.0-780.0-0.0","0","0","17987","","null","","","null","86","","","","","","","","","","","","","","","",""
"","ITI","","html-keyboard-response","569","806750","0.0-1.0-783.0","0","0","17987","","null","","","null","86","","","","","","","","","","","","","","","NaN",""
"","S1","","html-keyboard-response","570","807006","0.0-1.0-785.0","0","0","17987","","null","","","null","87","","","","","","","","","","","","","","","",""
"","ISI","","html-keyboard-response","571","809009","0.0-1.0-786.0","0","0","17987","","null","","","null","87","NaN","","","","","","","","","","","","","","",""
"","S2","","html-keyboard-response","572","809265","0.0-1.0-787.0","0","0","17987","","null","","","null","87","","NaN","","","","","","","","","","","","","",""
"","response","","html-keyboard-response","573","809852","0.0-1.0-788.0","0","0","17987","","586","","","68","87","","","2","87","training","adjacent","BC","2","3","L.jpg","N.jpg","0","1","0","",""
"","feedback","","html-keyboard-response","574","810855","0.0-1.0-789.0-0.0","0","0","17987","","null","","","null","87","","","","","","","","","","","","","","","",""
"","time_out","","html-keyboard-response","575","812860","0.0-1.0-791.0-0.0","0","0","17987","","null","","","null","87","","","","","","","","","","","","","","","",""
"","ITI","","html-keyboard-response","576","813862","0.0-1.0-792.0","0","0","17987","","null","","","null","87","","","","","","","","","","","","","","","NaN",""
"","S1","","html-keyboard-response","577","814117","0.0-1.0-794.0","0","0","17987","","null","","","null","88","","","","","","","","","","","","","","","",""
"","ISI","","html-keyboard-response","578","816121","0.0-1.0-795.0","0","0","17987","","null","","","null","88","NaN","","","","","","","","","","","","","","",""
"","S2","","html-keyboard-response","579","816376","0.0-1.0-796.0","0","0","17987","","null","","","null","88","","NaN","","","","","","","","","","","","","",""
"","response","","html-keyboard-response","580","817148","0.0-1.0-797.0","0","0","17987","","771","","","68","88","","","2","88","training","adjacent","CB","3","2","N.jpg","L.jpg","0","0","1","",""
"","feedback","","html-keyboard-response","581","818153","0.0-1.0-798.0-0.0","0","0","17987","","null","","","null","88","","","","","","","","","","","","","","","",""
"","ITI","","html-keyboard-response","582","819156","0.0-1.0-801.0","0","0","17987","","null","","","null","88","","","","","","","","","","","","","","","NaN",""
