"success","ttype","start_time","trial_type","trial_index","time_elapsed","internal_node_id","warning","missed_checkup","PID","view_history","rt","responses","repeat_instructions","key_press","index","keypress_isi","keypress_S2","block","trial_num","phase","group_type","pair_type","S1_stim","S2_stim","S1_img","S2_img","S1_chosen","S1_higher","accuracy","keypress_iti","total_bonus_tally"
"true","full_screen","d04142023hr2135","fullscreen","0","6036","0.0-0.0","0","0","33215","","","","","","","","","","","","","","","","","","","","","",""
"","instructions","","instructions","1","51632","0.0-1.0-0.0-0.0","0","0","33215","[{""page_index"":0,""viewing_time"":3639},{""page_index"":1,""viewing_time"":34826},{""page_index"":2,""viewing_time"":5764},{""page_index"":3,""viewing_time"":1366}]","45596","","","","","","","","","","","","","","","","","","","",""
"","comprehension_check","","survey-multi-choice","2","71941","0.0-1.0-0.0-1.0","0","0","33215","","20305","{""Q0"":""True"",""Q1"":""K"",""Q2"":""Only when the screen 'MAKE A CHOICE' is shown"",""Q3"":""Green mark"",""Q4"":""either D or K""}","1","","","","","","","","","","","","","","","","","",""
"","missed_instruction_checkup","","html-keyboard-response","3","73711","0.0-1.0-0.0-2.0-0.0","0","1","33215","","1768","","","32","","","","","","","","","","","","","","","","",""
"","instructions","","instructions","4","91393","0.0-1.0-0.1-0.1","0","0","33215","[{""page_index"":0,""viewing_time"":4023},{""page_index"":1,""viewing_time"":8437},{""page_index"":2,""viewing_time"":4325},{""page_index"":3,""viewing_time"":896}]","17681","","","","","","","","","","","","","","","","","","","",""
"","comprehension_check","","survey-multi-choice","5","105724","0.0-1.0-0.1-1.1","0","0","33215","","14329","{""Q0"":""True"",""Q1"":""K"",""Q2"":""Once the second image appears and while the screen 'MAKE A CHOICE' is shown"",""Q3"":""Green mark"",""Q4"":""either D or K""}","0","","","","","","","","","","","","","","","","","",""
"","start_exp","","html-keyboard-response","6","106666","0.0-1.0-1.0","0","0","33215","","940","","","32","","","","","","","","","","","","","","","","",""
"","S1","","html-keyboard-response","7","106918","0.0-1.0-2.0","0","0","33215","","null","","","null","0","","","","","","","","","","","","","","","",""
"","ISI","","html-keyboard-response","8","107919","0.0-1.0-3.0","0","0","33215","","null","","","null","0","NaN","","","","","","","","","","","","","","",""
"","S2","","html-keyboard-response","9","108170","0.0-1.0-4.0","0","0","33215","","null","","","null","0","","NaN","","","","","","","","","","","","","",""
"","response","","html-keyboard-response","10","109074","0.0-1.0-5.0-0.0","0","0","33215","","904","","","75","0","","","1","0","training","adjacent","ED","5","4","Q.jpg","P.jpg","1","0","0","",""
"","feedback","","html-keyboard-response","11","110076","0.0-1.0-6.0-0.0","0","0","33215","","null","","","null","0","","","","","","","","","","","","","","","",""
"","time_out","","html-keyboard-response","12","112078","0.0-1.0-8.0-0.0","0","0","33215","","null","","","null","0","","","","","","","","","","","","","","","",""
"","ITI","","html-keyboard-response","13","113080","0.0-1.0-9.0","0","0","33215","","null","","","null","0","","","","","","","","","","","","","","","NaN",""
"","S1","","html-keyboard-response","14","113331","0.0-1.0-11.0","0","0","33215","","null","","","null","1","","","","","","","","","","","","","","","",""
"","ISI","","html-keyboard-response","15","114332","0.0-1.0-12.0","0","0","33215","","null","","","null","1","NaN","","","","","","","","","","","","","","",""
"","S2","","html-keyboard-response","16","114584","0.0-1.0-13.0","0","0","33215","","null","","","null","1","","NaN","","","","","","","","","","","","","",""
"","response","","html-keyboard-response","17","115148","0.0-1.0-14.0-0.0","0","0","33215","","564","","","75","1","","","1","1","training","adjacent","FG","6","7","L.jpg","M.jpg","1","1","1","",""
"","feedback","","html-keyboard-response","18","116150","0.0-1.0-15.0-0.0","0","0","33215","","null","","","null","1","","","","","","","","","","","","","","","",""
"","ITI","","html-keyboard-response","19","117151","0.0-1.0-18.0","0","0","33215","","null","","","null","1","","","","","","","","","","","","","","","NaN",""
"","S1","","html-keyboard-response","20","117403","0.0-1.0-20.0","0","0","33215","","null","","","null","2","","","","","","","","","","","","","","","",""
"","ISI","","html-keyboard-response","21","118404","0.0-1.0-21.0","0","0","33215","","null","","","null","2","NaN","","","","","","","","","","","","","","",""
"","S2","","html-keyboard-response","22","118657","0.0-1.0-22.0","0","0","33215","","null","","","null","2","","NaN","","","","","","","","","","","","","",""
"","response","","html-keyboard-response","23","119211","0.0-1.0-23.0-0.0","0","0","33215","","554","","","68","2","","","1","2","training","adjacent","BC","2","3","N.jpg","R.jpg","0","1","0","",""
"","feedback","","html-keyboard-response","24","120227","0.0-1.0-24.0-0.0","0","0","33215","","null","","","null","2","","","","","","","","","","","","","","","",""
"","time_out","","html-keyboard-response","25","122229","0.0-1.0-26.0-0.0","0","0","33215","","null","","","null","2","","","","","","","","","","","","","","","",""
"","ITI","","html-keyboard-response","26","123231","0.0-1.0-27.0","0","0","33215","","null","","","null","2","","","","","","","","","","","","","","","NaN",""
"","S1","","html-keyboard-response","27","123482","0.0-1.0-29.0","0","0","33215","","null","","","null","3","","","","","","","","","","","","","","","",""
"","ISI","","html-keyboard-response","28","124483","0.0-1.0-30.0","0","0","33215","","null","","","null","3","NaN","","","","","","","","","","","","","","",""
"","S2","","html-keyboard-response","29","124734","0.0-1.0-31.0","0","0","33215","","null","","","null","3","","NaN","","","","","","","","","","","","","",""
"","response","","html-keyboard-response","30","125140","0.0-1.0-32.0-0.0","0","0","33215","","405","","","75","3","","","1","3","training","adjacent","FG","6","7","L.jpg","M.jpg","1","1","1","",""
"","feedback","","html-keyboard-response","31","126142","0.0-1.0-33.0-0.0","0","0","33215","","null","","","null","3","","","","","","","","","","","","","","","",""
"","ITI","","html-keyboard-response","32","127143","0.0-1.0-36.0","0","0","33215","","null","","","null","3","","","","","","","","","","","","","","","NaN",""
"","S1","","html-keyboard-response","33","127395","0.0-1.0-38.0","0","0","33215","","null","","","null","4","","","","","","","","","","","","","","","",""
"","ISI","","html-keyboard-response","34","128397","0.0-1.0-39.0","0","0","33215","","null","","","null","4","NaN","","","","","","","","","","","","","","",""
"","S2","","html-keyboard-response","35","128659","0.0-1.0-40.0","0","0","33215","","null","","","null","4","","NaN","","","","","","","","","","","","","",""
"","response","","html-keyboard-response","36","129110","0.0-1.0-41.0-0.0","0","0","33215","","450","","","68","4","","","1","4","training","adjacent","CB","3","2","R.jpg","N.jpg","0","0","1","",""
"","feedback","","html-keyboard-response","37","130112","0.0-1.0-42.0-0.0","0","0","33215","","null","","","null","4","","","","","","","","","","","","","","","",""
"","ITI","","html-keyboard-response","38","131113","0.0-1.0-45.0","0","0","33215","","null","","","null","4","","","","","","","","","","","","","","","NaN",""
"","S1","","html-keyboard-response","39","131364","0.0-1.0-47.0","0","0","33215","","null","","","null","5","","","","","","","","","","","","","","","",""
"","ISI","","html-keyboard-response","40","132365","0.0-1.0-48.0","0","0","33215","","null","","","null","5","NaN","","","","","","","","","","","","","","",""
"","S2","","html-keyboard-response","41","132616","0.0-1.0-49.0","0","0","33215","","null","","","null","5","","NaN","","","","","","","","","","","","","",""
"","response","","html-keyboard-response","42","133653","0.0-1.0-50.0-0.0","0","0","33215","","1036","","","68","5","","","1","5","training","adjacent","GF","7","6","M.jpg","L.jpg","0","0","1","",""
"","feedback","","html-keyboard-response","43","134655","0.0-1.0-51.0-0.0","0","0","33215","","null","","","null","5","","","","","","","","","","","","","","","",""
"","ITI","","html-keyboard-response","44","135657","0.0-1.0-54.0","0","0","33215","","null","","","null","5","","","","","","","","","","","","","","","NaN",""
"","S1","","html-keyboard-response","45","135909","0.0-1.0-56.0","0","0","33215","","null","","","null","6","","","","","","","","","","","","","","","",""
"","ISI","","html-keyboard-response","46","136911","0.0-1.0-57.0","0","0","33215","","null","","","null","6","NaN","","","","","","","","","","","","","","",""
"","S2","","html-keyboard-response","47","137163","0.0-1.0-58.0","0","0","33215","","null","","","null","6","","NaN","","","","","","","","","","","","","",""
"","response","","html-keyboard-response","48","137941","0.0-1.0-59.0-0.0","0","0","33215","","778","","","68","6","","","1","6","training","adjacent","AB","1","2","O.jpg","N.jpg","0","1","0","",""
"","feedback","","html-keyboard-response","49","138943","0.0-1.0-60.0-0.0","0","0","33215","","null","","","null","6","","","","","","","","","","","","","","","",""
"","time_out","","html-keyboard-response","50","140945","0.0-1.0-62.0-0.0","0","0","33215","","null","","","null","6","","","","","","","","","","","","","","","",""
"","ITI","","html-keyboard-response","51","141946","0.0-1.0-63.0","0","0","33215","","null","","","null","6","","","","","","","","","","","","","","","NaN",""
"","S1","","html-keyboard-response","52","142199","0.0-1.0-65.0","0","0","33215","","null","","","null","7","","","","","","","","","","","","","","","",""
"","ISI","","html-keyboard-response","53","143206","0.0-1.0-66.0","0","0","33215","","null","","","null","7","NaN","","","","","","","","","","","","","","",""
"","S2","","html-keyboard-response","54","143458","0.0-1.0-67.0","0","0","33215","","null","","","null","7","","NaN","","","","","","","","","","","","","",""
"","response","","html-keyboard-response","55","144023","0.0-1.0-68.0-0.0","0","0","33215","","565","","","68","7","","","1","7","training","adjacent","EF","5","6","Q.jpg","L.jpg","0","1","0","",""
"","feedback","","html-keyboard-response","56","145024","0.0-1.0-69.0-0.0","0","0","33215","","null","","","null","7","","","","","","","","","","","","","","","",""
"","time_out","","html-keyboard-response","57","147026","0.0-1.0-71.0-0.0","0","0","33215","","null","","","null","7","","","","","","","","","","","","","","","",""
"","ITI","","html-keyboard-response","58","148027","0.0-1.0-72.0","0","0","33215","","null","","","null","7","","","","","","","","","","","","","","","NaN",""
"","S1","","html-keyboard-response","59","148280","0.0-1.0-74.0","0","0","33215","","null","","","null","8","","","","","","","","","","","","","","","",""
"","ISI","","html-keyboard-response","60","149281","0.0-1.0-75.0","0","0","33215","","null","","","null","8","NaN","","","","","","","","","","","","","","",""
"","S2","","html-keyboard-response","61","149533","0.0-1.0-76.0","0","0","33215","","null","","","null","8","","NaN","","","","","","","","","","","","","",""
"","response","","html-keyboard-response","62","150799","0.0-1.0-77.0-0.0","0","0","33215","","1265","","","75","8","","","1","8","training","adjacent","ED","5","4","Q.jpg","P.jpg","1","0","0","",""
"","feedback","","html-keyboard-response","63","151800","0.0-1.0-78.0-0.0","0","0","33215","","null","","","null","8","","","","","","","","","","","","","","","",""
"","time_out","","html-keyboard-response","64","153802","0.0-1.0-80.0-0.0","0","0","33215","","null","","","null","8","","","","","","","","","","","","","","","",""
"","ITI","","html-keyboard-response","65","154804","0.0-1.0-81.0","0","0","33215","","null","","","null","8","","","","","","","","","","","","","","","NaN",""
"","S1","","html-keyboard-response","66","155056","0.0-1.0-83.0","0","0","33215","","null","","","null","9","","","","","","","","","","","","","","","",""
"","ISI","","html-keyboard-response","67","156057","0.0-1.0-84.0","0","0","33215","","null","","","null","9","NaN","","","","","","","","","","","","","","",""
"","S2","","html-keyboard-response","68","156310","0.0-1.0-85.0","0","0","33215","","null","","","null","9","","NaN","","","","","","","","","","","","","",""
"","response","","html-keyboard-response","69","157201","0.0-1.0-86.0-0.0","0","0","33215","","890","","","68","9","","","1","9","training","adjacent","EF","5","6","Q.jpg","L.jpg","0","1","0","",""
"","feedback","","html-keyboard-response","70","158202","0.0-1.0-87.0-0.0","0","0","33215","","null","","","null","9","","","","","","","","","","","","","","","",""
"","time_out","","html-keyboard-response","71","160203","0.0-1.0-89.0-0.0","0","0","33215","","null","","","null","9","","","","","","","","","","","","","","","",""
"","ITI","","html-keyboard-response","72","161205","0.0-1.0-90.0","0","0","33215","","null","","","null","9","","","","","","","","","","","","","","","NaN",""
"","S1","","html-keyboard-response","73","161457","0.0-1.0-92.0","0","0","33215","","null","","","null","10","","","","","","","","","","","","","","","",""
"","ISI","","html-keyboard-response","74","162458","0.0-1.0-93.0","0","0","33215","","null","","","null","10","NaN","","","","","","","","","","","","","","",""
"","S2","","html-keyboard-response","75","162710","0.0-1.0-94.0","0","0","33215","","null","","","null","10","","NaN","","","","","","","","","","","","","",""
"","response","","html-keyboard-response","76","163512","0.0-1.0-95.0-0.0","0","0","33215","","801","","","75","10","","","1","10","training","adjacent","BC","2","3","N.jpg","R.jpg","1","1","1","",""
"","feedback","","html-keyboard-response","77","164513","0.0-1.0-96.0-0.0","0","0","33215","","null","","","null","10","","","","","","","","","","","","","","","",""
"","ITI","","html-keyboard-response","78","165515","0.0-1.0-99.0","0","0","33215","","null","","","null","10","","","","","","","","","","","","","","","NaN",""
"","S1","","html-keyboard-response","79","165767","0.0-1.0-101.0","0","0","33215","","null","","","null","11","","","","","","","","","","","","","","","",""
"","ISI","","html-keyboard-response","80","166768","0.0-1.0-102.0","0","0","33215","","null","","","null","11","NaN","","","","","","","","","","","","","","",""
"","S2","","html-keyboard-response","81","167021","0.0-1.0-103.0","0","0","33215","","null","","","null","11","","NaN","","","","","","","","","","","","","",""
"","response","","html-keyboard-response","82","168122","0.0-1.0-104.0-0.0","0","0","33215","","1100","","","75","11","","","1","11","training","adjacent","CD","3","4","R.jpg","P.jpg","1","1","1","",""
"","feedback","","html-keyboard-response","83","169123","0.0-1.0-105.0-0.0","0","0","33215","","null","","","null","11","","","","","","","","","","","","","","","",""
"","ITI","","html-keyboard-response","84","170125","0.0-1.0-108.0","0","0","33215","","null","","","null","11","","","","","","","","","","","","","","","NaN",""
"","S1","","html-keyboard-response","85","170377","0.0-1.0-110.0","0","0","33215","","null","","","null","12","","","","","","","","","","","","","","","",""
"","ISI","","html-keyboard-response","86","171379","0.0-1.0-111.0","0","0","33215","","null","","","null","12","NaN","","","","","","","","","","","","","","",""
"","S2","","html-keyboard-response","87","171630","0.0-1.0-112.0","0","0","33215","","null","","","null","12","","NaN","","","","","","","","","","","","","",""
"","response","","html-keyboard-response","88","172361","0.0-1.0-113.0-0.0","0","0","33215","","730","","","68","12","","","1","12","training","adjacent","CD","3","4","R.jpg","P.jpg","0","1","0","",""
"","feedback","","html-keyboard-response","89","173362","0.0-1.0-114.0-0.0","0","0","33215","","null","","","null","12","","","","","","","","","","","","","","","",""
"","time_out","","html-keyboard-response","90","175363","0.0-1.0-116.0-0.0","0","0","33215","","null","","","null","12","","","","","","","","","","","","","","","",""
"","ITI","","html-keyboard-response","91","176365","0.0-1.0-117.0","0","0","33215","","null","","","null","12","","","","","","","","","","","","","","","NaN",""
"","S1","","html-keyboard-response","92","176616","0.0-1.0-119.0","0","0","33215","","null","","","null","13","","","","","","","","","","","","","","","",""
"","ISI","","html-keyboard-response","93","177618","0.0-1.0-120.0","0","0","33215","","null","","","null","13","NaN","","","","","","","","","","","","","","",""
"","S2","","html-keyboard-response","94","177870","0.0-1.0-121.0","0","0","33215","","null","","","null","13","","NaN","","","","","","","","","","","","","",""
"","response","","html-keyboard-response","95","178331","0.0-1.0-122.0-0.0","0","0","33215","","460","","","75","13","","","1","13","training","adjacent","FG","6","7","L.jpg","M.jpg","1","1","1","",""
"","feedback","","html-keyboard-response","96","179332","0.0-1.0-123.0-0.0","0","0","33215","","null","","","null","13","","","","","","","","","","","","","","","",""
"","ITI","","html-keyboard-response","97","180333","0.0-1.0-126.0","0","0","33215","","null","","","null","13","","","","","","","","","","","","","","","NaN",""
"","S1","","html-keyboard-response","98","180584","0.0-1.0-128.0","0","0","33215","","null","","","null","14","","","","","","","","","","","","","","","",""
"","ISI","","html-keyboard-response","99","181586","0.0-1.0-129.0","0","0","33215","","null","","","null","14","NaN","","","","","","","","","","","","","","",""
"","S2","","html-keyboard-response","100","181838","0.0-1.0-130.0","0","0","33215","","null","","","null","14","","NaN","","","","","","","","","","","","","",""
"","response","","html-keyboard-response","101","182010","0.0-1.0-131.0-0.0","0","0","33215","","171","","","75","14","","","1","14","training","adjacent","FE","6","5","L.jpg","Q.jpg","1","0","0","",""
"","feedback","","html-keyboard-response","102","183012","0.0-1.0-132.0-0.0","0","0","33215","","null","","","null","14","","","","","","","","","","","","","","","",""
"","time_out","","html-keyboard-response","103","185014","0.0-1.0-134.0-0.0","0","0","33215","","null","","","null","14","","","","","","","","","","","","","","","",""
"","ITI","","html-keyboard-response","104","186016","0.0-1.0-135.0","0","0","33215","","null","","","null","14","","","","","","","","","","","","","","","NaN",""
"","S1","","html-keyboard-response","105","186267","0.0-1.0-137.0","0","0","33215","","null","","","null","15","","","","","","","","","","","","","","","",""
"","ISI","","html-keyboard-response","106","187283","0.0-1.0-138.0","0","0","33215","","null","","","null","15","NaN","","","","","","","","","","","","","","",""
"","S2","","html-keyboard-response","107","187535","0.0-1.0-139.0","0","0","33215","","null","","","null","15","","NaN","","","","","","","","","","","","","",""
"","response","","html-keyboard-response","108","188098","0.0-1.0-140.0-0.0","0","0","33215","","563","","","68","15","","","1","15","training","adjacent","DE","4","5","P.jpg","Q.jpg","0","1","0","",""
"","feedback","","html-keyboard-response","109","189110","0.0-1.0-141.0-0.0","0","0","33215","","null","","","null","15","","","","","","","","","","","","","","","",""
"","time_out","","html-keyboard-response","110","191112","0.0-1.0-143.0-0.0","0","0","33215","","null","","","null","15","","","","","","","","","","","","","","","",""
"","ITI","","html-keyboard-response","111","192114","0.0-1.0-144.0","0","0","33215","","null","","","null","15","","","","","","","","","","","","","","","NaN",""
"","S1","","html-keyboard-response","112","192365","0.0-1.0-146.0","0","0","33215","","null","","","null","16","","","","","","","","","","","","","","","",""
"","ISI","","html-keyboard-response","113","193367","0.0-1.0-147.0","0","0","33215","","null","","","null","16","NaN","","","","","","","","","","","","","","",""
"","S2","","html-keyboard-response","114","193622","0.0-1.0-148.0","0","0","33215","","null","","","null","16","","NaN","","","","","","","","","","","","","",""
"","response","","html-keyboard-response","115","194429","0.0-1.0-149.0-0.0","0","0","33215","","805","","","75","16","","","1","16","training","adjacent","CB","3","2","R.jpg","N.jpg","1","0","0","",""
"","feedback","","html-keyboard-response","116","195430","0.0-1.0-150.0-0.0","0","0","33215","","null","","","null","16","","","","","","","","","","","","","","","",""
"","time_out","","html-keyboard-response","117","197431","0.0-1.0-152.0-0.0","0","0","33215","","null","","","null","16","","","","","","","","","","","","","","","",""
"","ITI","","html-keyboard-response","118","198432","0.0-1.0-153.0","0","0","33215","","null","","","null","16","","","","","","","","","","","","","","","NaN",""
"","S1","","html-keyboard-response","119","198683","0.0-1.0-155.0","0","0","33215","","null","","","null","17","","","","","","","","","","","","","","","",""
"","ISI","","html-keyboard-response","120","199685","0.0-1.0-156.0","0","0","33215","","null","","","null","17","NaN","","","","","","","","","","","","","","",""
"","S2","","html-keyboard-response","121","199937","0.0-1.0-157.0","0","0","33215","","null","","","null","17","","NaN","","","","","","","","","","","","","",""
"","response","","html-keyboard-response","122","200932","0.0-1.0-158.0-0.0","0","0","33215","","994","","","75","17","","","1","17","training","adjacent","CB","3","2","R.jpg","N.jpg","1","0","0","",""
"","feedback","","html-keyboard-response","123","201933","0.0-1.0-159.0-0.0","0","0","33215","","null","","","null","17","","","","","","","","","","","","","","","",""
"","time_out","","html-keyboard-response","124","203935","0.0-1.0-161.0-0.0","0","0","33215","","null","","","null","17","","","","","","","","","","","","","","","",""
"","ITI","","html-keyboard-response","125","204937","0.0-1.0-162.0","0","0","33215","","null","","","null","17","","","","","","","","","","","","","","","NaN",""
"","S1","","html-keyboard-response","126","205189","0.0-1.0-164.0","0","0","33215","","null","","","null","18","","","","","","","","","","","","","","","",""
"","ISI","","html-keyboard-response","127","206191","0.0-1.0-165.0","0","0","33215","","null","","","null","18","NaN","","","","","","","","","","","","","","",""
"","S2","","html-keyboard-response","128","206442","0.0-1.0-166.0","0","0","33215","","null","","","null","18","","NaN","","","","","","","","","","","","","",""
"","response","","html-keyboard-response","129","207606","0.0-1.0-167.0-0.0","0","0","33215","","1163","","","68","18","","","1","18","training","adjacent","DC","4","3","P.jpg","R.jpg","0","0","1","",""
"","feedback","","html-keyboard-response","130","208609","0.0-1.0-168.0-0.0","0","0","33215","","null","","","null","18","","","","","","","","","","","","","","","",""
"","ITI","","html-keyboard-response","131","209610","0.0-1.0-171.0","0","0","33215","","null","","","null","18","","","","","","","","","","","","","","","NaN",""
"","S1","","html-keyboard-response","132","209861","0.0-1.0-173.0","0","0","33215","","null","","","null","19","","","","","","","","","","","","","","","",""
"","ISI","","html-keyboard-response","133","210863","0.0-1.0-174.0","0","0","33215","","null","","","null","19","NaN","","","","","","","","","","","","","","",""
"","S2","","html-keyboard-response","134","211115","0.0-1.0-175.0","0","0","33215","","null","","","null","19","","NaN","","","","","","","","","","","","","",""
"","response","","html-keyboard-response","135","211629","0.0-1.0-176.0-0.0","0","0","33215","","513","","","75","19","","","1","19","training","adjacent","FE","6","5","L.jpg","Q.jpg","1","0","0","",""
"","feedback","","html-keyboard-response","136","212630","0.0-1.0-177.0-0.0","0","0","33215","","null","","","null","19","","","","","","","","","","","","","","","",""
"","time_out","","html-keyboard-response","137","214632","0.0-1.0-179.0-0.0","0","0","33215","","null","","","null","19","","","","","","","","","","","","","","","",""
"","ITI","","html-keyboard-response","138","215634","0.0-1.0-180.0","0","0","33215","","null","","","null","19","","","","","","","","","","","","","","","NaN",""
"","S1","","html-keyboard-response","139","215885","0.0-1.0-182.0","0","0","33215","","null","","","null","20","","","","","","","","","","","","","","","",""
"","ISI","","html-keyboard-response","140","216886","0.0-1.0-183.0","0","0","33215","","null","","","null","20","NaN","","","","","","","","","","","","","","",""
"","S2","","html-keyboard-response","141","217137","0.0-1.0-184.0","0","0","33215","","null","","","null","20","","NaN","","","","","","","","","","","","","",""
"","response","","html-keyboard-response","142","217767","0.0-1.0-185.0-0.0","0","0","33215","","630","","","68","20","","","1","20","training","adjacent","GF","7","6","M.jpg","L.jpg","0","0","1","",""
"","feedback","","html-keyboard-response","143","218769","0.0-1.0-186.0-0.0","0","0","33215","","null","","","null","20","","","","","","","","","","","","","","","",""
"","ITI","","html-keyboard-response","144","219771","0.0-1.0-189.0","0","0","33215","","null","","","null","20","","","","","","","","","","","","","","","NaN",""
"","S1","","html-keyboard-response","145","220023","0.0-1.0-191.0","0","0","33215","","null","","","null","21","","","","","","","","","","","","","","","",""
"","ISI","","html-keyboard-response","146","221024","0.0-1.0-192.0","0","0","33215","","null","","","null","21","NaN","","","","","","","","","","","","","","",""
"","S2","","html-keyboard-response","147","221276","0.0-1.0-193.0","0","0","33215","","null","","","null","21","","NaN","","","","","","","","","","","","","",""
"","response","","html-keyboard-response","148","221918","0.0-1.0-194.0-0.0","0","0","33215","","641","","","75","21","","","1","21","training","adjacent","BA","2","1","N.jpg","O.jpg","1","0","0","",""
"","feedback","","html-keyboard-response","149","222919","0.0-1.0-195.0-0.0","0","0","33215","","null","","","null","21","","","","","","","","","","","","","","","",""
"","time_out","","html-keyboard-response","150","224921","0.0-1.0-197.0-0.0","0","0","33215","","null","","","null","21","","","","","","","","","","","","","","","",""
"","ITI","","html-keyboard-response","151","225923","0.0-1.0-198.0","0","0","33215","","null","","","null","21","","","","","","","","","","","","","","","NaN",""
"","S1","","html-keyboard-response","152","226175","0.0-1.0-200.0","0","0","33215","","null","","","null","22","","","","","","","","","","","","","","","",""
"","ISI","","html-keyboard-response","153","227176","0.0-1.0-201.0","0","0","33215","","null","","","null","22","NaN","","","","","","","","","","","","","","",""
"","S2","","html-keyboard-response","154","227429","0.0-1.0-202.0","0","0","33215","","null","","","null","22","","NaN","","","","","","","","","","","","","",""
"","response","","html-keyboard-response","155","227888","0.0-1.0-203.0-0.0","0","0","33215","","458","","","75","22","","","1","22","training","adjacent","CD","3","4","R.jpg","P.jpg","1","1","1","",""
"","feedback","","html-keyboard-response","156","228891","0.0-1.0-204.0-0.0","0","0","33215","","null","","","null","22","","","","","","","","","","","","","","","",""
"","ITI","","html-keyboard-response","157","229893","0.0-1.0-207.0","0","0","33215","","null","","","null","22","","","","","","","","","","","","","","","NaN",""
"","S1","","html-keyboard-response","158","230145","0.0-1.0-209.0","0","0","33215","","null","","","null","23","","","","","","","","","","","","","","","",""
"","ISI","","html-keyboard-response","159","231147","0.0-1.0-210.0","0","0","33215","","null","","","null","23","NaN","","","","","","","","","","","","","","",""
"","S2","","html-keyboard-response","160","231399","0.0-1.0-211.0","0","0","33215","","null","","","null","23","","NaN","","","","","","","","","","","","","",""
"","response","","html-keyboard-response","161","232655","0.0-1.0-212.0-0.0","0","0","33215","","1256","","","68","23","","","1","23","training","adjacent","BA","2","1","N.jpg","O.jpg","0","0","1","",""
"","feedback","","html-keyboard-response","162","233657","0.0-1.0-213.0-0.0","0","0","33215","","null","","","null","23","","","","","","","","","","","","","","","",""
"","ITI","","html-keyboard-response","163","234659","0.0-1.0-216.0","0","0","33215","","null","","","null","23","","","","","","","","","","","","","","","NaN",""
"","S1","","html-keyboard-response","164","234911","0.0-1.0-218.0","0","0","33215","","null","","","null","24","","","","","","","","","","","","","","","",""
"","ISI","","html-keyboard-response","165","235913","0.0-1.0-219.0","0","0","33215","","null","","","null","24","NaN","","","","","","","","","","","","","","",""
"","S2","","html-keyboard-response","166","236164","0.0-1.0-220.0","0","0","33215","","null","","","null","24","","NaN","","","","","","","","","","","","","",""
"","response","","html-keyboard-response","167","237136","0.0-1.0-221.0-0.0","0","0","33215","","971","","","75","24","","","1","24","training","adjacent","ED","5","4","Q.jpg","P.jpg","1","0","0","",""
"","feedback","","html-keyboard-response","168","238137","0.0-1.0-222.0-0.0","0","0","33215","","null","","","null","24","","","","","","","","","","","","","","","",""
"","time_out","","html-keyboard-response","169","240138","0.0-1.0-224.0-0.0","0","0","33215","","null","","","null","24","","","","","","","","","","","","","","","",""
"","ITI","","html-keyboard-response","170","241140","0.0-1.0-225.0","0","0","33215","","null","","","null","24","","","","","","","","","","","","","","","NaN",""
"","S1","","html-keyboard-response","171","241391","0.0-1.0-227.0","0","0","33215","","null","","","null","25","","","","","","","","","","","","","","","",""
"","ISI","","html-keyboard-response","172","242393","0.0-1.0-228.0","0","0","33215","","null","","","null","25","NaN","","","","","","","","","","","","","","",""
"","S2","","html-keyboard-response","173","242646","0.0-1.0-229.0","0","0","33215","","null","","","null","25","","NaN","","","","","","","","","","","","","",""
"","response","","html-keyboard-response","174","243458","0.0-1.0-230.0-0.0","0","0","33215","","811","","","68","25","","","1","25","training","adjacent","GF","7","6","M.jpg","L.jpg","0","0","1","",""
"","feedback","","html-keyboard-response","175","244459","0.0-1.0-231.0-0.0","0","0","33215","","null","","","null","25","","","","","","","","","","","","","","","",""
"","ITI","","html-keyboard-response","176","245460","0.0-1.0-234.0","0","0","33215","","null","","","null","25","","","","","","","","","","","","","","","NaN",""
"","S1","","html-keyboard-response","177","245711","0.0-1.0-236.0","0","0","33215","","null","","","null","26","","","","","","","","","","","","","","","",""
"","ISI","","html-keyboard-response","178","246713","0.0-1.0-237.0","0","0","33215","","null","","","null","26","NaN","","","","","","","","","","","","","","",""
"","S2","","html-keyboard-response","179","246966","0.0-1.0-238.0","0","0","33215","","null","","","null","26","","NaN","","","","","","","","","","","","","",""
"","response","","html-keyboard-response","180","247521","0.0-1.0-239.0-0.0","0","0","33215","","554","","","75","26","","","1","26","training","adjacent","CB","3","2","R.jpg","N.jpg","1","0","0","",""
"","feedback","","html-keyboard-response","181","248523","0.0-1.0-240.0-0.0","0","0","33215","","null","","","null","26","","","","","","","","","","","","","","","",""
"","time_out","","html-keyboard-response","182","250524","0.0-1.0-242.0-0.0","0","0","33215","","null","","","null","26","","","","","","","","","","","","","","","",""
"","ITI","","html-keyboard-response","183","251525","0.0-1.0-243.0","0","0","33215","","null","","","null","26","","","","","","","","","","","","","","","NaN",""
"","S1","","html-keyboard-response","184","251777","0.0-1.0-245.0","0","0","33215","","null","","","null","27","","","","","","","","","","","","","","","",""
"","ISI","","html-keyboard-response","185","252789","0.0-1.0-246.0","0","0","33215","","null","","","null","27","NaN","","","","","","","","","","","","","","",""
"","S2","","html-keyboard-response","186","253041","0.0-1.0-247.0","0","0","33215","","null","","","null","27","","NaN","","","","","","","","","","","","","",""
"","response","","html-keyboard-response","187","253418","0.0-1.0-248.0-0.0","0","0","33215","","376","","","75","27","","","1","27","training","adjacent","FE","6","5","L.jpg","Q.jpg","1","0","0","",""
"","feedback","","html-keyboard-response","188","254420","0.0-1.0-249.0-0.0","0","0","33215","","null","","","null","27","","","","","","","","","","","","","","","",""
"","time_out","","html-keyboard-response","189","256421","0.0-1.0-251.0-0.0","0","0","33215","","null","","","null","27","","","","","","","","","","","","","","","",""
"","ITI","","html-keyboard-response","190","257422","0.0-1.0-252.0","0","0","33215","","null","","","null","27","","","","","","","","","","","","","","","NaN",""
"","S1","","html-keyboard-response","191","257674","0.0-1.0-254.0","0","0","33215","","null","","","null","28","","","","","","","","","","","","","","","",""
"","ISI","","html-keyboard-response","192","258675","0.0-1.0-255.0","0","0","33215","","null","","","null","28","NaN","","","","","","","","","","","","","","",""
"","S2","","html-keyboard-response","193","258926","0.0-1.0-256.0","0","0","33215","","null","","","null","28","","NaN","","","","","","","","","","","","","",""
"","response","","html-keyboard-response","194","259579","0.0-1.0-257.0-0.0","0","0","33215","","653","","","68","28","","","1","28","training","adjacent","CD","3","4","R.jpg","P.jpg","0","1","0","",""
"","feedback","","html-keyboard-response","195","260582","0.0-1.0-258.0-0.0","0","0","33215","","null","","","null","28","","","","","","","","","","","","","","","",""
"","time_out","","html-keyboard-response","196","262583","0.0-1.0-260.0-0.0","0","0","33215","","null","","","null","28","","","","","","","","","","","","","","","",""
"","ITI","","html-keyboard-response","197","263584","0.0-1.0-261.0","0","0","33215","","null","","","null","28","","","","","","","","","","","","","","","NaN",""
"","S1","","html-keyboard-response","198","263835","0.0-1.0-263.0","0","0","33215","","null","","","null","29","","","","","","","","","","","","","","","",""
"","ISI","","html-keyboard-response","199","264837","0.0-1.0-264.0","0","0","33215","","null","","","null","29","NaN","","","","","","","","","","","","","","",""
"","S2","","html-keyboard-response","200","265090","0.0-1.0-265.0","0","0","33215","","null","","","null","29","","NaN","","","","","","","","","","","","","",""
"","response","","html-keyboard-response","201","265859","0.0-1.0-266.0-0.0","0","0","33215","","768","","","75","29","","","1","29","training","adjacent","DE","4","5","P.jpg","Q.jpg","1","1","1","",""
"","feedback","","html-keyboard-response","202","266860","0.0-1.0-267.0-0.0","0","0","33215","","null","","","null","29","","","","","","","","","","","","","","","",""
"","ITI","","html-keyboard-response","203","267863","0.0-1.0-270.0","0","0","33215","","null","","","null","29","","","","","","","","","","","","","","","NaN",""
"","S1","","html-keyboard-response","204","268114","0.0-1.0-272.0","0","0","33215","","null","","","null","30","","","","","","","","","","","","","","","",""
"","ISI","","html-keyboard-response","205","269117","0.0-1.0-273.0","0","0","33215","","null","","","null","30","NaN","","","","","","","","","","","","","","",""
"","S2","","html-keyboard-response","206","269369","0.0-1.0-274.0","0","0","33215","","null","","","null","30","","NaN","","","","","","","","","","","","","",""
"","response","","html-keyboard-response","207","270213","0.0-1.0-275.0-0.0","0","0","33215","","843","","","75","30","","","1","30","training","adjacent","EF","5","6","Q.jpg","L.jpg","1","1","1","",""
"","feedback","","html-keyboard-response","208","271214","0.0-1.0-276.0-0.0","0","0","33215","","null","","","null","30","","","","","","","","","","","","","","","",""
"","ITI","","html-keyboard-response","209","272216","0.0-1.0-279.0","0","0","33215","","null","","","null","30","","","","","","","","","","","","","","","NaN",""
"","S1","","html-keyboard-response","210","272468","0.0-1.0-281.0","0","0","33215","","null","","","null","31","","","","","","","","","","","","","","","",""
"","ISI","","html-keyboard-response","211","273470","0.0-1.0-282.0","0","0","33215","","null","","","null","31","NaN","","","","","","","","","","","","","","",""
"","S2","","html-keyboard-response","212","273722","0.0-1.0-283.0","0","0","33215","","null","","","null","31","","NaN","","","","","","","","","","","","","",""
"","response","","html-keyboard-response","213","274532","0.0-1.0-284.0-0.0","0","0","33215","","809","","","75","31","","","1","31","training","adjacent","AB","1","2","O.jpg","N.jpg","1","1","1","",""
"","feedback","","html-keyboard-response","214","275534","0.0-1.0-285.0-0.0","0","0","33215","","null","","","null","31","","","","","","","","","","","","","","","",""
"","ITI","","html-keyboard-response","215","276535","0.0-1.0-288.0","0","0","33215","","null","","","null","31","","","","","","","","","","","","","","","NaN",""
"","S1","","html-keyboard-response","216","276787","0.0-1.0-290.0","0","0","33215","","null","","","null","32","","","","","","","","","","","","","","","",""
"","ISI","","html-keyboard-response","217","277789","0.0-1.0-291.0","0","0","33215","","null","","","null","32","NaN","","","","","","","","","","","","","","",""
"","S2","","html-keyboard-response","218","278042","0.0-1.0-292.0","0","0","33215","","null","","","null","32","","NaN","","","","","","","","","","","","","",""
"","response","","html-keyboard-response","219","279029","0.0-1.0-293.0-0.0","0","0","33215","","986","","","68","32","","","1","32","training","adjacent","GF","7","6","M.jpg","L.jpg","0","0","1","",""
"","feedback","","html-keyboard-response","220","280031","0.0-1.0-294.0-0.0","0","0","33215","","null","","","null","32","","","","","","","","","","","","","","","",""
"","ITI","","html-keyboard-response","221","281032","0.0-1.0-297.0","0","0","33215","","null","","","null","32","","","","","","","","","","","","","","","NaN",""
"","S1","","html-keyboard-response","222","281285","0.0-1.0-299.0","0","0","33215","","null","","","null","33","","","","","","","","","","","","","","","",""
"","ISI","","html-keyboard-response","223","282287","0.0-1.0-300.0","0","0","33215","","null","","","null","33","NaN","","","","","","","","","","","","","","",""
"","S2","","html-keyboard-response","224","282539","0.0-1.0-301.0","0","0","33215","","null","","","null","33","","NaN","","","","","","","","","","","","","",""
"","response","","html-keyboard-response","225","283871","0.0-1.0-302.0-0.0","0","0","33215","","1331","","","75","33","","","1","33","training","adjacent","DC","4","3","P.jpg","R.jpg","1","0","0","",""
"","feedback","","html-keyboard-response","226","284873","0.0-1.0-303.0-0.0","0","0","33215","","null","","","null","33","","","","","","","","","","","","","","","",""
"","time_out","","html-keyboard-response","227","286875","0.0-1.0-305.0-0.0","0","0","33215","","null","","","null","33","","","","","","","","","","","","","","","",""
"","ITI","","html-keyboard-response","228","287876","0.0-1.0-306.0","0","0","33215","","null","","","null","33","","","","","","","","","","","","","","","NaN",""
"","S1","","html-keyboard-response","229","288140","0.0-1.0-308.0","0","0","33215","","null","","","null","34","","","","","","","","","","","","","","","",""
"","ISI","","html-keyboard-response","230","289141","0.0-1.0-309.0","0","0","33215","","null","","","null","34","NaN","","","","","","","","","","","","","","",""
"","S2","","html-keyboard-response","231","289393","0.0-1.0-310.0","0","0","33215","","null","","","null","34","","NaN","","","","","","","","","","","","","",""
"","response","","html-keyboard-response","232","290718","0.0-1.0-311.0-0.0","0","0","33215","","1323","","","68","34","","","1","34","training","adjacent","AB","1","2","O.jpg","N.jpg","0","1","0","",""
"","feedback","","html-keyboard-response","233","291720","0.0-1.0-312.0-0.0","0","0","33215","","null","","","null","34","","","","","","","","","","","","","","","",""
"","time_out","","html-keyboard-response","234","293722","0.0-1.0-314.0-0.0","0","0","33215","","null","","","null","34","","","","","","","","","","","","","","","",""
"","ITI","","html-keyboard-response","235","294724","0.0-1.0-315.0","0","0","33215","","null","","","null","34","","","","","","","","","","","","","","","NaN",""
"","S1","","html-keyboard-response","236","294976","0.0-1.0-317.0","0","0","33215","","null","","","null","35","","","","","","","","","","","","","","","",""
"","ISI","","html-keyboard-response","237","295977","0.0-1.0-318.0","0","0","33215","","null","","","null","35","NaN","","","","","","","","","","","","","","",""
"","S2","","html-keyboard-response","238","296228","0.0-1.0-319.0","0","0","33215","","null","","","null","35","","NaN","","","","","","","","","","","","","",""
"","response","","html-keyboard-response","239","297424","0.0-1.0-320.0-0.0","0","0","33215","","1195","","","75","35","","","1","35","training","adjacent","BC","2","3","N.jpg","R.jpg","1","1","1","",""
"","feedback","","html-keyboard-response","240","298426","0.0-1.0-321.0-0.0","0","0","33215","","null","","","null","35","","","","","","","","","","","","","","","",""
"","ITI","","html-keyboard-response","241","299427","0.0-1.0-324.0","0","0","33215","","null","","","null","35","","","","","","","","","","","","","","","NaN",""
"","S1","","html-keyboard-response","242","299679","0.0-1.0-326.0","0","0","33215","","null","","","null","36","","","","","","","","","","","","","","","",""
"","ISI","","html-keyboard-response","243","300681","0.0-1.0-327.0","0","0","33215","","null","","","null","36","NaN","","","","","","","","","","","","","","",""
"","S2","","html-keyboard-response","244","300933","0.0-1.0-328.0","0","0","33215","","null","","","null","36","","NaN","","","","","","","","","","","","","",""
"","response","","html-keyboard-response","245","301486","0.0-1.0-329.0-0.0","0","0","33215","","553","","","68","36","","","1","36","training","adjacent","ED","5","4","Q.jpg","P.jpg","0","0","1","",""
"","feedback","","html-keyboard-response","246","302487","0.0-1.0-330.0-0.0","0","0","33215","","null","","","null","36","","","","","","","","","","","","","","","",""
"","ITI","","html-keyboard-response","247","303490","0.0-1.0-333.0","0","0","33215","","null","","","null","36","","","","","","","","","","","","","","","NaN",""
"","S1","","html-keyboard-response","248","303741","0.0-1.0-335.0","0","0","33215","","null","","","null","37","","","","","","","","","","","","","","","",""
"","ISI","","html-keyboard-response","249","304743","0.0-1.0-336.0","0","0","33215","","null","","","null","37","NaN","","","","","","","","","","","","","","",""
"","S2","","html-keyboard-response","250","304995","0.0-1.0-337.0","0","0","33215","","null","","","null","37","","NaN","","","","","","","","","","","","","",""
"","response","","html-keyboard-response","251","305639","0.0-1.0-338.0-0.0","0","0","33215","","643","","","68","37","","","1","37","training","adjacent","DC","4","3","P.jpg","R.jpg","0","0","1","",""
"","feedback","","html-keyboard-response","252","306640","0.0-1.0-339.0-0.0","0","0","33215","","null","","","null","37","","","","","","","","","","","","","","","",""
"","ITI","","html-keyboard-response","253","307641","0.0-1.0-342.0","0","0","33215","","null","","","null","37","","","","","","","","","","","","","","","NaN",""
"","S1","","html-keyboard-response","254","307893","0.0-1.0-344.0","0","0","33215","","null","","","null","38","","","","","","","","","","","","","","","",""
"","ISI","","html-keyboard-response","255","308894","0.0-1.0-345.0","0","0","33215","","null","","","null","38","NaN","","","","","","","","","","","","","","",""
"","S2","","html-keyboard-response","256","309146","0.0-1.0-346.0","0","0","33215","","null","","","null","38","","NaN","","","","","","","","","","","","","",""
"","response","","html-keyboard-response","257","309601","0.0-1.0-347.0-0.0","0","0","33215","","454","","","75","38","","","1","38","training","adjacent","FE","6","5","L.jpg","Q.jpg","1","0","0","",""
"","feedback","","html-keyboard-response","258","310602","0.0-1.0-348.0-0.0","0","0","33215","","null","","","null","38","","","","","","","","","","","","","","","",""
"","time_out","","html-keyboard-response","259","312604","0.0-1.0-350.0-0.0","0","0","33215","","null","","","null","38","","","","","","","","","","","","","","","",""
"","ITI","","html-keyboard-response","260","313605","0.0-1.0-351.0","0","0","33215","","null","","","null","38","","","","","","","","","","","","","","","NaN",""
"","S1","","html-keyboard-response","261","313856","0.0-1.0-353.0","0","0","33215","","null","","","null","39","","","","","","","","","","","","","","","",""
"","ISI","","html-keyboard-response","262","314858","0.0-1.0-354.0","0","0","33215","","null","","","null","39","NaN","","","","","","","","","","","","","","",""
"","S2","","html-keyboard-response","263","315110","0.0-1.0-355.0","0","0","33215","","null","","","null","39","","NaN","","","","","","","","","","","","","",""
"","response","","html-keyboard-response","264","316080","0.0-1.0-356.0-0.0","0","0","33215","","969","","","75","39","","","1","39","training","adjacent","DE","4","5","P.jpg","Q.jpg","1","1","1","",""
"","feedback","","html-keyboard-response","265","317083","0.0-1.0-357.0-0.0","0","0","33215","","null","","","null","39","","","","","","","","","","","","","","","",""
"","ITI","","html-keyboard-response","266","318084","0.0-1.0-360.0","0","0","33215","","null","","","null","39","","","","","","","","","","","","","","","NaN",""
"","S1","","html-keyboard-response","267","318336","0.0-1.0-362.0","0","0","33215","","null","","","null","40","","","","","","","","","","","","","","","",""
"","ISI","","html-keyboard-response","268","319337","0.0-1.0-363.0","0","0","33215","","null","","","null","40","NaN","","","","","","","","","","","","","","",""
"","S2","","html-keyboard-response","269","319588","0.0-1.0-364.0","0","0","33215","","null","","","null","40","","NaN","","","","","","","","","","","","","",""
"","response","","html-keyboard-response","270","320962","0.0-1.0-365.0-0.0","0","0","33215","","1373","","","75","40","","","1","40","training","adjacent","EF","5","6","Q.jpg","L.jpg","1","1","1","",""
"","feedback","","html-keyboard-response","271","321963","0.0-1.0-366.0-0.0","0","0","33215","","null","","","null","40","","","","","","","","","","","","","","","",""
"","ITI","","html-keyboard-response","272","322965","0.0-1.0-369.0","0","0","33215","","null","","","null","40","","","","","","","","","","","","","","","NaN",""
"","S1","","html-keyboard-response","273","323216","0.0-1.0-371.0","0","0","33215","","null","","","null","41","","","","","","","","","","","","","","","",""
"","ISI","","html-keyboard-response","274","324217","0.0-1.0-372.0","0","0","33215","","null","","","null","41","NaN","","","","","","","","","","","","","","",""
"","S2","","html-keyboard-response","275","324468","0.0-1.0-373.0","0","0","33215","","null","","","null","41","","NaN","","","","","","","","","","","","","",""
"","response","","html-keyboard-response","276","325849","0.0-1.0-374.0-0.0","0","0","33215","","1379","","","75","41","","","1","41","training","adjacent","FG","6","7","L.jpg","M.jpg","1","1","1","",""
"","feedback","","html-keyboard-response","277","326850","0.0-1.0-375.0-0.0","0","0","33215","","null","","","null","41","","","","","","","","","","","","","","","",""
"","ITI","","html-keyboard-response","278","327852","0.0-1.0-378.0","0","0","33215","","null","","","null","41","","","","","","","","","","","","","","","NaN",""
"","S1","","html-keyboard-response","279","328105","0.0-1.0-380.0","0","0","33215","","null","","","null","42","","","","","","","","","","","","","","","",""
"","ISI","","html-keyboard-response","280","329107","0.0-1.0-381.0","0","0","33215","","null","","","null","42","NaN","","","","","","","","","","","","","","",""
"","S2","","html-keyboard-response","281","329359","0.0-1.0-382.0","0","0","33215","","null","","","null","42","","NaN","","","","","","","","","","","","","",""
"","response","","html-keyboard-response","282","330178","0.0-1.0-383.0-0.0","0","0","33215","","817","","","75","42","","","1","42","training","adjacent","DE","4","5","P.jpg","Q.jpg","1","1","1","",""
"","feedback","","html-keyboard-response","283","331179","0.0-1.0-384.0-0.0","0","0","33215","","null","","","null","42","","","","","","","","","","","","","","","",""
"","ITI","","html-keyboard-response","284","332180","0.0-1.0-387.0","0","0","33215","","null","","","null","42","","","","","","","","","","","","","","","NaN",""
"","S1","","html-keyboard-response","285","332433","0.0-1.0-389.0","0","0","33215","","null","","","null","43","","","","","","","","","","","","","","","",""
"","ISI","","html-keyboard-response","286","333435","0.0-1.0-390.0","0","0","33215","","null","","","null","43","NaN","","","","","","","","","","","","","","",""
"","S2","","html-keyboard-response","287","333686","0.0-1.0-391.0","0","0","33215","","null","","","null","43","","NaN","","","","","","","","","","","","","",""
"","response","","html-keyboard-response","288","334627","0.0-1.0-392.0-0.0","0","0","33215","","940","","","68","43","","","1","43","training","adjacent","BC","2","3","N.jpg","R.jpg","0","1","0","",""
"","feedback","","html-keyboard-response","289","335630","0.0-1.0-393.0-0.0","0","0","33215","","null","","","null","43","","","","","","","","","","","","","","","",""
"","time_out","","html-keyboard-response","290","337631","0.0-1.0-395.0-0.0","0","0","33215","","null","","","null","43","","","","","","","","","","","","","","","",""
"","ITI","","html-keyboard-response","291","338633","0.0-1.0-396.0","0","0","33215","","null","","","null","43","","","","","","","","","","","","","","","NaN",""
"","S1","","html-keyboard-response","292","338886","0.0-1.0-398.0","0","0","33215","","null","","","null","44","","","","","","","","","","","","","","","",""
"","ISI","","html-keyboard-response","293","339887","0.0-1.0-399.0","0","0","33215","","null","","","null","44","NaN","","","","","","","","","","","","","","",""
"","S2","","html-keyboard-response","294","340139","0.0-1.0-400.0","0","0","33215","","null","","","null","44","","NaN","","","","","","","","","","","","","",""
"","response","","html-keyboard-response","295","340339","0.0-1.0-401.0-0.0","0","0","33215","","199","","","75","44","","","1","44","training","adjacent","AB","1","2","O.jpg","N.jpg","1","1","1","",""
"","feedback","","html-keyboard-response","296","341340","0.0-1.0-402.0-0.0","0","0","33215","","null","","","null","44","","","","","","","","","","","","","","","",""
"","ITI","","html-keyboard-response","297","342343","0.0-1.0-405.0","0","0","33215","","null","","","null","44","","","","","","","","","","","","","","","NaN",""
"","S1","","html-keyboard-response","298","342594","0.0-1.0-407.0","0","0","33215","","null","","","null","45","","","","","","","","","","","","","","","",""
"","ISI","","html-keyboard-response","299","343596","0.0-1.0-408.0","0","0","33215","","null","","","null","45","NaN","","","","","","","","","","","","","","",""
"","S2","","html-keyboard-response","300","343847","0.0-1.0-409.0","0","0","33215","","null","","","null","45","","NaN","","","","","","","","","","","","","",""
"","response","","html-keyboard-response","301","344684","0.0-1.0-410.0-0.0","0","0","33215","","836","","","68","45","","","1","45","training","adjacent","DC","4","3","P.jpg","R.jpg","0","0","1","",""
"","feedback","","html-keyboard-response","302","345687","0.0-1.0-411.0-0.0","0","0","33215","","null","","","null","45","","","","","","","","","","","","","","","",""
"","ITI","","html-keyboard-response","303","346689","0.0-1.0-414.0","0","0","33215","","null","","","null","45","","","","","","","","","","","","","","","NaN",""
"","S1","","html-keyboard-response","304","346940","0.0-1.0-416.0","0","0","33215","","null","","","null","46","","","","","","","","","","","","","","","",""
"","ISI","","html-keyboard-response","305","347944","0.0-1.0-417.0","0","0","33215","","null","","","null","46","NaN","","","","","","","","","","","","","","",""
"","S2","","html-keyboard-response","306","348195","0.0-1.0-418.0","0","0","33215","","null","","","null","46","","NaN","","","","","","","","","","","","","",""
"","response","","html-keyboard-response","307","349108","0.0-1.0-419.0-0.0","0","0","33215","","911","","","68","46","","","1","46","training","adjacent","BA","2","1","N.jpg","O.jpg","0","0","1","",""
"","feedback","","html-keyboard-response","308","350110","0.0-1.0-420.0-0.0","0","0","33215","","null","","","null","46","","","","","","","","","","","","","","","",""
"","ITI","","html-keyboard-response","309","351112","0.0-1.0-423.0","0","0","33215","","null","","","null","46","","","","","","","","","","","","","","","NaN",""
"","S1","","html-keyboard-response","310","351364","0.0-1.0-425.0","0","0","33215","","null","","","null","47","","","","","","","","","","","","","","","",""
"","ISI","","html-keyboard-response","311","352365","0.0-1.0-426.0","0","0","33215","","null","","","null","47","NaN","","","","","","","","","","","","","","",""
"","S2","","html-keyboard-response","312","352617","0.0-1.0-427.0","0","0","33215","","null","","","null","47","","NaN","","","","","","","","","","","","","",""
"","response","","html-keyboard-response","313","353940","0.0-1.0-428.0-0.0","0","0","33215","","1321","","","68","47","","","1","47","training","adjacent","BA","2","1","N.jpg","O.jpg","0","0","1","",""
"","feedback","","html-keyboard-response","314","354942","0.0-1.0-429.0-0.0","0","0","33215","","null","","","null","47","","","","","","","","","","","","","","","",""
"","ITI","","html-keyboard-response","315","355944","0.0-1.0-432.0","0","0","33215","","null","","","null","47","","","","","","","","","","","","","","","NaN",""
"","block_over","","html-keyboard-response","316","389425","0.0-1.0-433.0-0.0","0","0","33215","","33480","","","32","47","","","","","","","","","","","","","","","",""
"","S1","","html-keyboard-response","317","389676","0.0-1.0-434.0","0","0","33215","","null","","","null","48","","","","","","","","","","","","","","","",""
"","ISI","","html-keyboard-response","318","390677","0.0-1.0-435.0","0","0","33215","","null","","","null","48","NaN","","","","","","","","","","","","","","",""
"","S2","","html-keyboard-response","319","390929","0.0-1.0-436.0","0","0","33215","","null","","","null","48","","NaN","","","","","","","","","","","","","",""
"","response","","html-keyboard-response","320","391832","0.0-1.0-437.0-0.0","0","0","33215","","902","","","68","48","","","2","48","training","adjacent","BC","2","3","N.jpg","R.jpg","0","1","0","",""
"","feedback","","html-keyboard-response","321","392834","0.0-1.0-438.0-0.0","0","0","33215","","null","","","null","48","","","","","","","","","","","","","","","",""
"","time_out","","html-keyboard-response","322","394835","0.0-1.0-440.0-0.0","0","0","33215","","null","","","null","48","","","","","","","","","","","","","","","",""
"","ITI","","html-keyboard-response","323","395836","0.0-1.0-441.0","0","0","33215","","null","","","null","48","","","","","","","","","","","","","","","NaN",""
"","S1","","html-keyboard-response","324","396088","0.0-1.0-443.0","0","0","33215","","null","","","null","49","","","","","","","","","","","","","","","",""
"","ISI","","html-keyboard-response","325","397090","0.0-1.0-444.0","0","0","33215","","null","","","null","49","NaN","","","","","","","","","","","","","","",""
"","S2","","html-keyboard-response","326","397343","0.0-1.0-445.0","0","0","33215","","null","","","null","49","","NaN","","","","","","","","","","","","","",""
"","response","","html-keyboard-response","327","398184","0.0-1.0-446.0-0.0","0","0","33215","","841","","","75","49","","","2","49","training","adjacent","CB","3","2","R.jpg","N.jpg","1","0","0","",""
"","feedback","","html-keyboard-response","328","399186","0.0-1.0-447.0-0.0","0","0","33215","","null","","","null","49","","","","","","","","","","","","","","","",""
"","time_out","","html-keyboard-response","329","401187","0.0-1.0-449.0-0.0","0","0","33215","","null","","","null","49","","","","","","","","","","","","","","","",""
"","ITI","","html-keyboard-response","330","402189","0.0-1.0-450.0","0","0","33215","","null","","","null","49","","","","","","","","","","","","","","","NaN",""
"","S1","","html-keyboard-response","331","402440","0.0-1.0-452.0","0","0","33215","","null","","","null","50","","","","","","","","","","","","","","","",""
"","ISI","","html-keyboard-response","332","403441","0.0-1.0-453.0","0","0","33215","","null","","","null","50","NaN","","","","","","","","","","","","","","",""
"","S2","","html-keyboard-response","333","403693","0.0-1.0-454.0","0","0","33215","","null","","","null","50","","NaN","","","","","","","","","","","","","",""
"","response","","html-keyboard-response","334","404466","0.0-1.0-455.0-0.0","0","0","33215","","773","","","68","50","","","2","50","training","adjacent","FE","6","5","L.jpg","Q.jpg","0","0","1","",""
"","feedback","","html-keyboard-response","335","405468","0.0-1.0-456.0-0.0","0","0","33215","","null","","","null","50","","","","","","","","","","","","","","","",""
"","ITI","","html-keyboard-response","336","406469","0.0-1.0-459.0","0","0","33215","","null","","","null","50","","","","","","","","","","","","","","","NaN",""
"","S1","","html-keyboard-response","337","406720","0.0-1.0-461.0","0","0","33215","","null","","","null","51","","","","","","","","","","","","","","","",""
"","ISI","","html-keyboard-response","338","407723","0.0-1.0-462.0","0","0","33215","","null","","","null","51","NaN","","","","","","","","","","","","","","",""
"","S2","","html-keyboard-response","339","407974","0.0-1.0-463.0","0","0","33215","","null","","","null","51","","NaN","","","","","","","","","","","","","",""
"","response","","html-keyboard-response","340","409106","0.0-1.0-464.0-0.0","0","0","33215","","1131","","","68","51","","","2","51","training","adjacent","BA","2","1","N.jpg","O.jpg","0","0","1","",""
"","feedback","","html-keyboard-response","341","410107","0.0-1.0-465.0-0.0","0","0","33215","","null","","","null","51","","","","","","","","","","","","","","","",""
"","ITI","","html-keyboard-response","342","411109","0.0-1.0-468.0","0","0","33215","","null","","","null","51","","","","","","","","","","","","","","","NaN",""
"","S1","","html-keyboard-response","343","411360","0.0-1.0-470.0","0","0","33215","","null","","","null","52","","","","","","","","","","","","","","","",""
"","ISI","","html-keyboard-response","344","412361","0.0-1.0-471.0","0","0","33215","","null","","","null","52","NaN","","","","","","","","","","","","","","",""
"","S2","","html-keyboard-response","345","412614","0.0-1.0-472.0","0","0","33215","","null","","","null","52","","NaN","","","","","","","","","","","","","",""
"","response","","html-keyboard-response","346","413554","0.0-1.0-473.0-0.0","0","0","33215","","939","","","75","52","","","2","52","training","adjacent","DC","4","3","P.jpg","R.jpg","1","0","0","",""
"","feedback","","html-keyboard-response","347","414556","0.0-1.0-474.0-0.0","0","0","33215","","null","","","null","52","","","","","","","","","","","","","","","",""
"","time_out","","html-keyboard-response","348","416558","0.0-1.0-476.0-0.0","0","0","33215","","null","","","null","52","","","","","","","","","","","","","","","",""
"","ITI","","html-keyboard-response","349","417559","0.0-1.0-477.0","0","0","33215","","null","","","null","52","","","","","","","","","","","","","","","NaN",""
"","S1","","html-keyboard-response","350","417810","0.0-1.0-479.0","0","0","33215","","null","","","null","53","","","","","","","","","","","","","","","",""
"","ISI","","html-keyboard-response","351","418813","0.0-1.0-480.0","0","0","33215","","null","","","null","53","NaN","","","","","","","","","","","","","","",""
"","S2","","html-keyboard-response","352","419065","0.0-1.0-481.0","0","0","33215","","null","","","null","53","","NaN","","","","","","","","","","","","","",""
"","response","","html-keyboard-response","353","419924","0.0-1.0-482.0-0.0","0","0","33215","","858","","","68","53","","","2","53","training","adjacent","DC","4","3","P.jpg","R.jpg","0","0","1","",""
"","feedback","","html-keyboard-response","354","420925","0.0-1.0-483.0-0.0","0","0","33215","","null","","","null","53","","","","","","","","","","","","","","","",""
"","ITI","","html-keyboard-response","355","421926","0.0-1.0-486.0","0","0","33215","","null","","","null","53","","","","","","","","","","","","","","","NaN",""
"","S1","","html-keyboard-response","356","422187","0.0-1.0-488.0","0","0","33215","","null","","","null","54","","","","","","","","","","","","","","","",""
"","ISI","","html-keyboard-response","357","423188","0.0-1.0-489.0","0","0","33215","","null","","","null","54","NaN","","","","","","","","","","","","","","",""
"","S2","","html-keyboard-response","358","423440","0.0-1.0-490.0","0","0","33215","","null","","","null","54","","NaN","","","","","","","","","","","","","",""
"","response","","html-keyboard-response","359","424259","0.0-1.0-491.0-0.0","0","0","33215","","818","","","75","54","","","2","54","training","adjacent","CB","3","2","R.jpg","N.jpg","1","0","0","",""
"","feedback","","html-keyboard-response","360","425261","0.0-1.0-492.0-0.0","0","0","33215","","null","","","null","54","","","","","","","","","","","","","","","",""
"","time_out","","html-keyboard-response","361","427263","0.0-1.0-494.0-0.0","0","0","33215","","null","","","null","54","","","","","","","","","","","","","","","",""
"","ITI","","html-keyboard-response","362","428265","0.0-1.0-495.0","0","0","33215","","null","","","null","54","","","","","","","","","","","","","","","NaN",""
"","S1","","html-keyboard-response","363","428516","0.0-1.0-497.0","0","0","33215","","null","","","null","55","","","","","","","","","","","","","","","",""
"","ISI","","html-keyboard-response","364","429518","0.0-1.0-498.0","0","0","33215","","null","","","null","55","NaN","","","","","","","","","","","","","","",""
"","S2","","html-keyboard-response","365","429769","0.0-1.0-499.0","0","0","33215","","null","","","null","55","","NaN","","","","","","","","","","","","","",""
"","response","","html-keyboard-response","366","430846","0.0-1.0-500.0-0.0","0","0","33215","","1076","","","75","55","","","2","55","training","adjacent","DC","4","3","P.jpg","R.jpg","1","0","0","",""
"","feedback","","html-keyboard-response","367","431848","0.0-1.0-501.0-0.0","0","0","33215","","null","","","null","55","","","","","","","","","","","","","","","",""
"","time_out","","html-keyboard-response","368","433850","0.0-1.0-503.0-0.0","0","0","33215","","null","","","null","55","","","","","","","","","","","","","","","",""
"","ITI","","html-keyboard-response","369","434852","0.0-1.0-504.0","0","0","33215","","null","","","null","55","","","","","","","","","","","","","","","NaN",""
"","S1","","html-keyboard-response","370","435113","0.0-1.0-506.0","0","0","33215","","null","","","null","56","","","","","","","","","","","","","","","",""
"","ISI","","html-keyboard-response","371","436115","0.0-1.0-507.0","0","0","33215","","null","","","null","56","NaN","","","","","","","","","","","","","","",""
"","S2","","html-keyboard-response","372","436366","0.0-1.0-508.0","0","0","33215","","null","","","null","56","","NaN","","","","","","","","","","","","","",""
"","response","","html-keyboard-response","373","437357","0.0-1.0-509.0-0.0","0","0","33215","","990","","","75","56","","","2","56","training","adjacent","AB","1","2","O.jpg","N.jpg","1","1","1","",""
"","feedback","","html-keyboard-response","374","438359","0.0-1.0-510.0-0.0","0","0","33215","","null","","","null","56","","","","","","","","","","","","","","","",""
"","ITI","","html-keyboard-response","375","439360","0.0-1.0-513.0","0","0","33215","","null","","","null","56","","","","","","","","","","","","","","","NaN",""
"","S1","","html-keyboard-response","376","439612","0.0-1.0-515.0","0","0","33215","","null","","","null","57","","","","","","","","","","","","","","","",""
"","ISI","","html-keyboard-response","377","440614","0.0-1.0-516.0","0","0","33215","","null","","","null","57","NaN","","","","","","","","","","","","","","",""
"","S2","","html-keyboard-response","378","440865","0.0-1.0-517.0","0","0","33215","","null","","","null","57","","NaN","","","","","","","","","","","","","",""
"","response","","html-keyboard-response","379","441510","0.0-1.0-518.0-0.0","0","0","33215","","645","","","68","57","","","2","57","training","adjacent","GF","7","6","M.jpg","L.jpg","0","0","1","",""
"","feedback","","html-keyboard-response","380","442513","0.0-1.0-519.0-0.0","0","0","33215","","null","","","null","57","","","","","","","","","","","","","","","",""
"","ITI","","html-keyboard-response","381","443515","0.0-1.0-522.0","0","0","33215","","null","","","null","57","","","","","","","","","","","","","","","NaN",""
"","S1","","html-keyboard-response","382","443768","0.0-1.0-524.0","0","0","33215","","null","","","null","58","","","","","","","","","","","","","","","",""
"","ISI","","html-keyboard-response","383","444769","0.0-1.0-525.0","0","0","33215","","null","","","null","58","NaN","","","","","","","","","","","","","","",""
"","S2","","html-keyboard-response","384","445020","0.0-1.0-526.0","0","0","33215","","null","","","null","58","","NaN","","","","","","","","","","","","","",""
"","response","","html-keyboard-response","385","445501","0.0-1.0-527.0-0.0","0","0","33215","","481","","","75","58","","","2","58","training","adjacent","FE","6","5","L.jpg","Q.jpg","1","0","0","",""
"","feedback","","html-keyboard-response","386","446504","0.0-1.0-528.0-0.0","0","0","33215","","null","","","null","58","","","","","","","","","","","","","","","",""
"","time_out","","html-keyboard-response","387","448505","0.0-1.0-530.0-0.0","0","0","33215","","null","","","null","58","","","","","","","","","","","","","","","",""
"","ITI","","html-keyboard-response","388","449506","0.0-1.0-531.0","0","0","33215","","null","","","null","58","","","","","","","","","","","","","","","NaN",""
"","S1","","html-keyboard-response","389","449757","0.0-1.0-533.0","0","0","33215","","null","","","null","59","","","","","","","","","","","","","","","",""
"","ISI","","html-keyboard-response","390","450758","0.0-1.0-534.0","0","0","33215","","null","","","null","59","NaN","","","","","","","","","","","","","","",""
"","S2","","html-keyboard-response","391","451009","0.0-1.0-535.0","0","0","33215","","null","","","null","59","","NaN","","","","","","","","","","","","","",""
"","response","","html-keyboard-response","392","451688","0.0-1.0-536.0-0.0","0","0","33215","","678","","","68","59","","","2","59","training","adjacent","DE","4","5","P.jpg","Q.jpg","0","1","0","",""
"","feedback","","html-keyboard-response","393","452700","0.0-1.0-537.0-0.0","0","0","33215","","null","","","null","59","","","","","","","","","","","","","","","",""
"","time_out","","html-keyboard-response","394","454701","0.0-1.0-539.0-0.0","0","0","33215","","null","","","null","59","","","","","","","","","","","","","","","",""
"","ITI","","html-keyboard-response","395","455702","0.0-1.0-540.0","0","0","33215","","null","","","null","59","","","","","","","","","","","","","","","NaN",""
"","S1","","html-keyboard-response","396","455955","0.0-1.0-542.0","0","0","33215","","null","","","null","60","","","","","","","","","","","","","","","",""
"","ISI","","html-keyboard-response","397","456956","0.0-1.0-543.0","0","0","33215","","null","","","null","60","NaN","","","","","","","","","","","","","","",""
"","S2","","html-keyboard-response","398","457208","0.0-1.0-544.0","0","0","33215","","null","","","null","60","","NaN","","","","","","","","","","","","","",""
"","response","","html-keyboard-response","399","458199","0.0-1.0-545.0-0.0","0","0","33215","","989","","","75","60","","","2","60","training","adjacent","BA","2","1","N.jpg","O.jpg","1","0","0","",""
"","feedback","","html-keyboard-response","400","459200","0.0-1.0-546.0-0.0","0","0","33215","","null","","","null","60","","","","","","","","","","","","","","","",""
"","time_out","","html-keyboard-response","401","461202","0.0-1.0-548.0-0.0","0","0","33215","","null","","","null","60","","","","","","","","","","","","","","","",""
"","ITI","","html-keyboard-response","402","462204","0.0-1.0-549.0","0","0","33215","","null","","","null","60","","","","","","","","","","","","","","","NaN",""
"","S1","","html-keyboard-response","403","462455","0.0-1.0-551.0","0","0","33215","","null","","","null","61","","","","","","","","","","","","","","","",""
"","ISI","","html-keyboard-response","404","463456","0.0-1.0-552.0","0","0","33215","","null","","","null","61","NaN","","","","","","","","","","","","","","",""
"","S2","","html-keyboard-response","405","463707","0.0-1.0-553.0","0","0","33215","","null","","","null","61","","NaN","","","","","","","","","","","","","",""
"","response","","html-keyboard-response","406","464240","0.0-1.0-554.0-0.0","0","0","33215","","532","","","75","61","","","2","61","training","adjacent","CD","3","4","R.jpg","P.jpg","1","1","1","",""
"","feedback","","html-keyboard-response","407","465252","0.0-1.0-555.0-0.0","0","0","33215","","null","","","null","61","","","","","","","","","","","","","","","",""
"","ITI","","html-keyboard-response","408","466253","0.0-1.0-558.0","0","0","33215","","null","","","null","61","","","","","","","","","","","","","","","NaN",""
"","S1","","html-keyboard-response","409","466504","0.0-1.0-560.0","0","0","33215","","null","","","null","62","","","","","","","","","","","","","","","",""
"","ISI","","html-keyboard-response","410","467505","0.0-1.0-561.0","0","0","33215","","null","","","null","62","NaN","","","","","","","","","","","","","","",""
"","S2","","html-keyboard-response","411","467757","0.0-1.0-562.0","0","0","33215","","null","","","null","62","","NaN","","","","","","","","","","","","","",""
"","response","","html-keyboard-response","412","468792","0.0-1.0-563.0-0.0","0","0","33215","","1033","","","75","62","","","2","62","training","adjacent","ED","5","4","Q.jpg","P.jpg","1","0","0","",""
"","feedback","","html-keyboard-response","413","469794","0.0-1.0-564.0-0.0","0","0","33215","","null","","","null","62","","","","","","","","","","","","","","","",""
"","time_out","","html-keyboard-response","414","471795","0.0-1.0-566.0-0.0","0","0","33215","","null","","","null","62","","","","","","","","","","","","","","","",""
"","ITI","","html-keyboard-response","415","472797","0.0-1.0-567.0","0","0","33215","","null","","","null","62","","","","","","","","","","","","","","","NaN",""
"","S1","","html-keyboard-response","416","473049","0.0-1.0-569.0","0","0","33215","","null","","","null","63","","","","","","","","","","","","","","","",""
"","ISI","","html-keyboard-response","417","474050","0.0-1.0-570.0","0","0","33215","","null","","","null","63","NaN","","","","","","","","","","","","","","",""
"","S2","","html-keyboard-response","418","474302","0.0-1.0-571.0","0","0","33215","","null","","","null","63","","NaN","","","","","","","","","","","","","",""
"","response","","html-keyboard-response","419","474930","0.0-1.0-572.0-0.0","0","0","33215","","627","","","75","63","","","2","63","training","adjacent","FG","6","7","L.jpg","M.jpg","1","1","1","",""
"","feedback","","html-keyboard-response","420","475931","0.0-1.0-573.0-0.0","0","0","33215","","null","","","null","63","","","","","","","","","","","","","","","",""
"","ITI","","html-keyboard-response","421","476932","0.0-1.0-576.0","0","0","33215","","null","","","null","63","","","","","","","","","","","","","","","NaN",""
"","S1","","html-keyboard-response","422","477183","0.0-1.0-578.0","0","0","33215","","null","","","null","64","","","","","","","","","","","","","","","",""
"","ISI","","html-keyboard-response","423","478184","0.0-1.0-579.0","0","0","33215","","null","","","null","64","NaN","","","","","","","","","","","","","","",""
"","S2","","html-keyboard-response","424","478435","0.0-1.0-580.0","0","0","33215","","null","","","null","64","","NaN","","","","","","","","","","","","","",""
"","response","","html-keyboard-response","425","479073","0.0-1.0-581.0-0.0","0","0","33215","","636","","","75","64","","","2","64","training","adjacent","EF","5","6","Q.jpg","L.jpg","1","1","1","",""
"","feedback","","html-keyboard-response","426","480075","0.0-1.0-582.0-0.0","0","0","33215","","null","","","null","64","","","","","","","","","","","","","","","",""
"","ITI","","html-keyboard-response","427","481077","0.0-1.0-585.0","0","0","33215","","null","","","null","64","","","","","","","","","","","","","","","NaN",""
"","S1","","html-keyboard-response","428","481329","0.0-1.0-587.0","0","0","33215","","null","","","null","65","","","","","","","","","","","","","","","",""
"","ISI","","html-keyboard-response","429","482330","0.0-1.0-588.0","0","0","33215","","null","","","null","65","NaN","","","","","","","","","","","","","","",""
"","S2","","html-keyboard-response","430","482583","0.0-1.0-589.0","0","0","33215","","null","","","null","65","","NaN","","","","","","","","","","","","","",""
"","response","","html-keyboard-response","431","483273","0.0-1.0-590.0-0.0","0","0","33215","","690","","","75","65","","","2","65","training","adjacent","EF","5","6","Q.jpg","L.jpg","1","1","1","",""
"","feedback","","html-keyboard-response","432","484275","0.0-1.0-591.0-0.0","0","0","33215","","null","","","null","65","","","","","","","","","","","","","","","",""
"","ITI","","html-keyboard-response","433","485277","0.0-1.0-594.0","0","0","33215","","null","","","null","65","","","","","","","","","","","","","","","NaN",""
"","S1","","html-keyboard-response","434","485529","0.0-1.0-596.0","0","0","33215","","null","","","null","66","","","","","","","","","","","","","","","",""
"","ISI","","html-keyboard-response","435","486530","0.0-1.0-597.0","0","0","33215","","null","","","null","66","NaN","","","","","","","","","","","","","","",""
"","S2","","html-keyboard-response","436","486782","0.0-1.0-598.0","0","0","33215","","null","","","null","66","","NaN","","","","","","","","","","","","","",""
"","response","","html-keyboard-response","437","487179","0.0-1.0-599.0-0.0","0","0","33215","","396","","","75","66","","","2","66","training","adjacent","FG","6","7","L.jpg","M.jpg","1","1","1","",""
"","feedback","","html-keyboard-response","438","488181","0.0-1.0-600.0-0.0","0","0","33215","","null","","","null","66","","","","","","","","","","","","","","","",""
"","ITI","","html-keyboard-response","439","489183","0.0-1.0-603.0","0","0","33215","","null","","","null","66","","","","","","","","","","","","","","","NaN",""
"","S1","","html-keyboard-response","440","489434","0.0-1.0-605.0","0","0","33215","","null","","","null","67","","","","","","","","","","","","","","","",""
"","ISI","","html-keyboard-response","441","490436","0.0-1.0-606.0","0","0","33215","","null","","","null","67","NaN","","","","","","","","","","","","","","",""
"","S2","","html-keyboard-response","442","490688","0.0-1.0-607.0","0","0","33215","","null","","","null","67","","NaN","","","","","","","","","","","","","",""
"","response","","html-keyboard-response","443","491771","0.0-1.0-608.0-0.0","0","0","33215","","1082","","","75","67","","","2","67","training","adjacent","CB","3","2","R.jpg","N.jpg","1","0","0","",""
"","feedback","","html-keyboard-response","444","492773","0.0-1.0-609.0-0.0","0","0","33215","","null","","","null","67","","","","","","","","","","","","","","","",""
"","time_out","","html-keyboard-response","445","494774","0.0-1.0-611.0-0.0","0","0","33215","","null","","","null","67","","","","","","","","","","","","","","","",""
"","ITI","","html-keyboard-response","446","495775","0.0-1.0-612.0","0","0","33215","","null","","","null","67","","","","","","","","","","","","","","","NaN",""
"","S1","","html-keyboard-response","447","496027","0.0-1.0-614.0","0","0","33215","","null","","","null","68","","","","","","","","","","","","","","","",""
"","ISI","","html-keyboard-response","448","497029","0.0-1.0-615.0","0","0","33215","","null","","","null","68","NaN","","","","","","","","","","","","","","",""
"","S2","","html-keyboard-response","449","497281","0.0-1.0-616.0","0","0","33215","","null","","","null","68","","NaN","","","","","","","","","","","","","",""
"","response","","html-keyboard-response","450","497684","0.0-1.0-617.0-0.0","0","0","33215","","402","","","75","68","","","2","68","training","adjacent","FG","6","7","L.jpg","M.jpg","1","1","1","",""
"","feedback","","html-keyboard-response","451","498686","0.0-1.0-618.0-0.0","0","0","33215","","null","","","null","68","","","","","","","","","","","","","","","",""
"","ITI","","html-keyboard-response","452","499688","0.0-1.0-621.0","0","0","33215","","null","","","null","68","","","","","","","","","","","","","","","NaN",""
"","S1","","html-keyboard-response","453","499939","0.0-1.0-623.0","0","0","33215","","null","","","null","69","","","","","","","","","","","","","","","",""
"","ISI","","html-keyboard-response","454","500941","0.0-1.0-624.0","0","0","33215","","null","","","null","69","NaN","","","","","","","","","","","","","","",""
"","S2","","html-keyboard-response","455","501193","0.0-1.0-625.0","0","0","33215","","null","","","null","69","","NaN","","","","","","","","","","","","","",""
"","response","","html-keyboard-response","456","502483","0.0-1.0-626.0-0.0","0","0","33215","","1289","","","75","69","","","2","69","training","adjacent","ED","5","4","Q.jpg","P.jpg","1","0","0","",""
"","feedback","","html-keyboard-response","457","503485","0.0-1.0-627.0-0.0","0","0","33215","","null","","","null","69","","","","","","","","","","","","","","","",""
"","time_out","","html-keyboard-response","458","505486","0.0-1.0-629.0-0.0","0","0","33215","","null","","","null","69","","","","","","","","","","","","","","","",""
"","ITI","","html-keyboard-response","459","506488","0.0-1.0-630.0","0","0","33215","","null","","","null","69","","","","","","","","","","","","","","","NaN",""
"","S1","","html-keyboard-response","460","506740","0.0-1.0-632.0","0","0","33215","","null","","","null","70","","","","","","","","","","","","","","","",""
"","ISI","","html-keyboard-response","461","507741","0.0-1.0-633.0","0","0","33215","","null","","","null","70","NaN","","","","","","","","","","","","","","",""
"","S2","","html-keyboard-response","462","507993","0.0-1.0-634.0","0","0","33215","","null","","","null","70","","NaN","","","","","","","","","","","","","",""
"","response","","html-keyboard-response","463","508957","0.0-1.0-635.0-0.0","0","0","33215","","964","","","75","70","","","2","70","training","adjacent","BC","2","3","N.jpg","R.jpg","1","1","1","",""
"","feedback","","html-keyboard-response","464","509959","0.0-1.0-636.0-0.0","0","0","33215","","null","","","null","70","","","","","","","","","","","","","","","",""
"","ITI","","html-keyboard-response","465","510960","0.0-1.0-639.0","0","0","33215","","null","","","null","70","","","","","","","","","","","","","","","NaN",""
"","S1","","html-keyboard-response","466","511211","0.0-1.0-641.0","0","0","33215","","null","","","null","71","","","","","","","","","","","","","","","",""
"","ISI","","html-keyboard-response","467","512212","0.0-1.0-642.0","0","0","33215","","null","","","null","71","NaN","","","","","","","","","","","","","","",""
"","S2","","html-keyboard-response","468","512464","0.0-1.0-643.0","0","0","33215","","null","","","null","71","","NaN","","","","","","","","","","","","","",""
"","response","","html-keyboard-response","469","512972","0.0-1.0-644.0-0.0","0","0","33215","","507","","","68","71","","","2","71","training","adjacent","BA","2","1","N.jpg","O.jpg","0","0","1","",""
"","feedback","","html-keyboard-response","470","513974","0.0-1.0-645.0-0.0","0","0","33215","","null","","","null","71","","","","","","","","","","","","","","","",""
"","ITI","","html-keyboard-response","471","514975","0.0-1.0-648.0","0","0","33215","","null","","","null","71","","","","","","","","","","","","","","","NaN",""
"","S1","","html-keyboard-response","472","515227","0.0-1.0-650.0","0","0","33215","","null","","","null","72","","","","","","","","","","","","","","","",""
"","ISI","","html-keyboard-response","473","516229","0.0-1.0-651.0","0","0","33215","","null","","","null","72","NaN","","","","","","","","","","","","","","",""
"","S2","","html-keyboard-response","474","516480","0.0-1.0-652.0","0","0","33215","","null","","","null","72","","NaN","","","","","","","","","","","","","",""
"","response","","html-keyboard-response","475","517173","0.0-1.0-653.0-0.0","0","0","33215","","691","","","75","72","","","2","72","training","adjacent","GF","7","6","M.jpg","L.jpg","1","0","0","",""
"","feedback","","html-keyboard-response","476","518175","0.0-1.0-654.0-0.0","0","0","33215","","null","","","null","72","","","","","","","","","","","","","","","",""
"","time_out","","html-keyboard-response","477","520177","0.0-1.0-656.0-0.0","0","0","33215","","null","","","null","72","","","","","","","","","","","","","","","",""
"","ITI","","html-keyboard-response","478","521178","0.0-1.0-657.0","0","0","33215","","null","","","null","72","","","","","","","","","","","","","","","NaN",""
"","S1","","html-keyboard-response","479","521430","0.0-1.0-659.0","0","0","33215","","null","","","null","73","","","","","","","","","","","","","","","",""
"","ISI","","html-keyboard-response","480","522432","0.0-1.0-660.0","0","0","33215","","null","","","null","73","NaN","","","","","","","","","","","","","","",""
"","S2","","html-keyboard-response","481","522684","0.0-1.0-661.0","0","0","33215","","null","","","null","73","","NaN","","","","","","","","","","","","","",""
"","response","","html-keyboard-response","482","523239","0.0-1.0-662.0-0.0","0","0","33215","","553","","","68","73","","","2","73","training","adjacent","FE","6","5","L.jpg","Q.jpg","0","0","1","",""
"","feedback","","html-keyboard-response","483","524241","0.0-1.0-663.0-0.0","0","0","33215","","null","","","null","73","","","","","","","","","","","","","","","",""
"","ITI","","html-keyboard-response","484","525243","0.0-1.0-666.0","0","0","33215","","null","","","null","73","","","","","","","","","","","","","","","NaN",""
"","S1","","html-keyboard-response","485","525494","0.0-1.0-668.0","0","0","33215","","null","","","null","74","","","","","","","","","","","","","","","",""
"","ISI","","html-keyboard-response","486","526496","0.0-1.0-669.0","0","0","33215","","null","","","null","74","NaN","","","","","","","","","","","","","","",""
"","S2","","html-keyboard-response","487","526760","0.0-1.0-670.0","0","0","33215","","null","","","null","74","","NaN","","","","","","","","","","","","","",""
"","response","","html-keyboard-response","488","527302","0.0-1.0-671.0-0.0","0","0","33215","","541","","","68","74","","","2","74","training","adjacent","ED","5","4","Q.jpg","P.jpg","0","0","1","",""
"","feedback","","html-keyboard-response","489","528304","0.0-1.0-672.0-0.0","0","0","33215","","null","","","null","74","","","","","","","","","","","","","","","",""
"","ITI","","html-keyboard-response","490","529307","0.0-1.0-675.0","0","0","33215","","null","","","null","74","","","","","","","","","","","","","","","NaN",""
"","S1","","html-keyboard-response","491","529560","0.0-1.0-677.0","0","0","33215","","null","","","null","75","","","","","","","","","","","","","","","",""
"","ISI","","html-keyboard-response","492","530562","0.0-1.0-678.0","0","0","33215","","null","","","null","75","NaN","","","","","","","","","","","","","","",""
"","S2","","html-keyboard-response","493","530814","0.0-1.0-679.0","0","0","33215","","null","","","null","75","","NaN","","","","","","","","","","","","","",""
"","response","","html-keyboard-response","494","531511","0.0-1.0-680.0-0.0","0","0","33215","","695","","","68","75","","","2","75","training","adjacent","DE","4","5","P.jpg","Q.jpg","0","1","0","",""
"","feedback","","html-keyboard-response","495","532512","0.0-1.0-681.0-0.0","0","0","33215","","null","","","null","75","","","","","","","","","","","","","","","",""
"","time_out","","html-keyboard-response","496","534514","0.0-1.0-683.0-0.0","0","0","33215","","null","","","null","75","","","","","","","","","","","","","","","",""
"","ITI","","html-keyboard-response","497","535516","0.0-1.0-684.0","0","0","33215","","null","","","null","75","","","","","","","","","","","","","","","NaN",""
"","S1","","html-keyboard-response","498","535768","0.0-1.0-686.0","0","0","33215","","null","","","null","76","","","","","","","","","","","","","","","",""
"","ISI","","html-keyboard-response","499","536770","0.0-1.0-687.0","0","0","33215","","null","","","null","76","NaN","","","","","","","","","","","","","","",""
"","S2","","html-keyboard-response","500","537022","0.0-1.0-688.0","0","0","33215","","null","","","null","76","","NaN","","","","","","","","","","","","","",""
"","response","","html-keyboard-response","501","538152","0.0-1.0-689.0-0.0","0","0","33215","","1129","","","75","76","","","2","76","training","adjacent","FG","6","7","L.jpg","M.jpg","1","1","1","",""
"","feedback","","html-keyboard-response","502","539155","0.0-1.0-690.0-0.0","0","0","33215","","null","","","null","76","","","","","","","","","","","","","","","",""
"","ITI","","html-keyboard-response","503","540157","0.0-1.0-693.0","0","0","33215","","null","","","null","76","","","","","","","","","","","","","","","NaN",""
"","S1","","html-keyboard-response","504","540408","0.0-1.0-695.0","0","0","33215","","null","","","null","77","","","","","","","","","","","","","","","",""
"","ISI","","html-keyboard-response","505","541410","0.0-1.0-696.0","0","0","33215","","null","","","null","77","NaN","","","","","","","","","","","","","","",""
"","S2","","html-keyboard-response","506","541661","0.0-1.0-697.0","0","0","33215","","null","","","null","77","","NaN","","","","","","","","","","","","","",""
"","response","","html-keyboard-response","507","542424","0.0-1.0-698.0-0.0","0","0","33215","","761","","","68","77","","","2","77","training","adjacent","BA","2","1","N.jpg","O.jpg","0","0","1","",""
"","feedback","","html-keyboard-response","508","543426","0.0-1.0-699.0-0.0","0","0","33215","","null","","","null","77","","","","","","","","","","","","","","","",""
"","ITI","","html-keyboard-response","509","544427","0.0-1.0-702.0","0","0","33215","","null","","","null","77","","","","","","","","","","","","","","","NaN",""
"","S1","","html-keyboard-response","510","544693","0.0-1.0-704.0","0","0","33215","","null","","","null","78","","","","","","","","","","","","","","","",""
"","ISI","","html-keyboard-response","511","545695","0.0-1.0-705.0","0","0","33215","","null","","","null","78","NaN","","","","","","","","","","","","","","",""
"","S2","","html-keyboard-response","512","545946","0.0-1.0-706.0","0","0","33215","","null","","","null","78","","NaN","","","","","","","","","","","","","",""
"","response","","html-keyboard-response","513","546408","0.0-1.0-707.0-0.0","0","0","33215","","462","","","75","78","","","2","78","training","adjacent","BC","2","3","N.jpg","R.jpg","1","1","1","",""
"","feedback","","html-keyboard-response","514","547410","0.0-1.0-708.0-0.0","0","0","33215","","null","","","null","78","","","","","","","","","","","","","","","",""
"","ITI","","html-keyboard-response","515","548413","0.0-1.0-711.0","0","0","33215","","null","","","null","78","","","","","","","","","","","","","","","NaN",""
"","S1","","html-keyboard-response","516","548665","0.0-1.0-713.0","0","0","33215","","null","","","null","79","","","","","","","","","","","","","","","",""
"","ISI","","html-keyboard-response","517","549667","0.0-1.0-714.0","0","0","33215","","null","","","null","79","NaN","","","","","","","","","","","","","","",""
"","S2","","html-keyboard-response","518","549919","0.0-1.0-715.0","0","0","33215","","null","","","null","79","","NaN","","","","","","","","","","","","","",""
"","response","","html-keyboard-response","519","550394","0.0-1.0-716.0-0.0","0","0","33215","","474","","","75","79","","","2","79","training","adjacent","CD","3","4","R.jpg","P.jpg","1","1","1","",""
"","feedback","","html-keyboard-response","520","551396","0.0-1.0-717.0-0.0","0","0","33215","","null","","","null","79","","","","","","","","","","","","","","","",""
"","ITI","","html-keyboard-response","521","552398","0.0-1.0-720.0","0","0","33215","","null","","","null","79","","","","","","","","","","","","","","","NaN",""
"","S1","","html-keyboard-response","522","552650","0.0-1.0-722.0","0","0","33215","","null","","","null","80","","","","","","","","","","","","","","","",""
"","ISI","","html-keyboard-response","523","553651","0.0-1.0-723.0","0","0","33215","","null","","","null","80","NaN","","","","","","","","","","","","","","",""
"","S2","","html-keyboard-response","524","553902","0.0-1.0-724.0","0","0","33215","","null","","","null","80","","NaN","","","","","","","","","","","","","",""
"","response","","html-keyboard-response","525","554505","0.0-1.0-725.0-0.0","0","0","33215","","601","","","68","80","","","2","80","training","adjacent","FE","6","5","L.jpg","Q.jpg","0","0","1","",""
"","feedback","","html-keyboard-response","526","555507","0.0-1.0-726.0-0.0","0","0","33215","","null","","","null","80","","","","","","","","","","","","","","","",""
"","ITI","","html-keyboard-response","527","556509","0.0-1.0-729.0","0","0","33215","","null","","","null","80","","","","","","","","","","","","","","","NaN",""
"","S1","","html-keyboard-response","528","556762","0.0-1.0-731.0","0","0","33215","","null","","","null","81","","","","","","","","","","","","","","","",""
"","ISI","","html-keyboard-response","529","557763","0.0-1.0-732.0","0","0","33215","","null","","","null","81","NaN","","","","","","","","","","","","","","",""
"","S2","","html-keyboard-response","530","558015","0.0-1.0-733.0","0","0","33215","","null","","","null","81","","NaN","","","","","","","","","","","","","",""
"","response","","html-keyboard-response","531","559098","0.0-1.0-734.0-0.0","0","0","33215","","1082","","","75","81","","","2","81","training","adjacent","DC","4","3","P.jpg","R.jpg","1","0","0","",""
"","feedback","","html-keyboard-response","532","560101","0.0-1.0-735.0-0.0","0","0","33215","","null","","","null","81","","","","","","","","","","","","","","","",""
"","time_out","","html-keyboard-response","533","562102","0.0-1.0-737.0-0.0","0","0","33215","","null","","","null","81","","","","","","","","","","","","","","","",""
"","ITI","","html-keyboard-response","534","563105","0.0-1.0-738.0","0","0","33215","","null","","","null","81","","","","","","","","","","","","","","","NaN",""
"","S1","","html-keyboard-response","535","563357","0.0-1.0-740.0","0","0","33215","","null","","","null","82","","","","","","","","","","","","","","","",""
"","ISI","","html-keyboard-response","536","564368","0.0-1.0-741.0","0","0","33215","","null","","","null","82","NaN","","","","","","","","","","","","","","",""
"","S2","","html-keyboard-response","537","564620","0.0-1.0-742.0","0","0","33215","","null","","","null","82","","NaN","","","","","","","","","","","","","",""
"","response","","html-keyboard-response","538","565731","0.0-1.0-743.0-0.0","0","0","33215","","1111","","","75","82","","","2","82","training","adjacent","DE","4","5","P.jpg","Q.jpg","1","1","1","",""
"","feedback","","html-keyboard-response","539","566733","0.0-1.0-744.0-0.0","0","0","33215","","null","","","null","82","","","","","","","","","","","","","","","",""
"","ITI","","html-keyboard-response","540","567734","0.0-1.0-747.0","0","0","33215","","null","","","null","82","","","","","","","","","","","","","","","NaN",""
"","S1","","html-keyboard-response","541","567986","0.0-1.0-749.0","0","0","33215","","null","","","null","83","","","","","","","","","","","","","","","",""
"","ISI","","html-keyboard-response","542","568988","0.0-1.0-750.0","0","0","33215","","null","","","null","83","NaN","","","","","","","","","","","","","","",""
"","S2","","html-keyboard-response","543","569240","0.0-1.0-751.0","0","0","33215","","null","","","null","83","","NaN","","","","","","","","","","","","","",""
"","response","","html-keyboard-response","544","570339","0.0-1.0-752.0-0.0","0","0","33215","","1098","","","75","83","","","2","83","training","adjacent","ED","5","4","Q.jpg","P.jpg","1","0","0","",""
"","feedback","","html-keyboard-response","545","571341","0.0-1.0-753.0-0.0","0","0","33215","","null","","","null","83","","","","","","","","","","","","","","","",""
"","time_out","","html-keyboard-response","546","573343","0.0-1.0-755.0-0.0","0","0","33215","","null","","","null","83","","","","","","","","","","","","","","","",""
"","ITI","","html-keyboard-response","547","574345","0.0-1.0-756.0","0","0","33215","","null","","","null","83","","","","","","","","","","","","","","","NaN",""
"","S1","","html-keyboard-response","548","574596","0.0-1.0-758.0","0","0","33215","","null","","","null","84","","","","","","","","","","","","","","","",""
"","ISI","","html-keyboard-response","549","575597","0.0-1.0-759.0","0","0","33215","","null","","","null","84","NaN","","","","","","","","","","","","","","",""
"","S2","","html-keyboard-response","550","575848","0.0-1.0-760.0","0","0","33215","","null","","","null","84","","NaN","","","","","","","","","","","","","",""
"","response","","html-keyboard-response","551","576844","0.0-1.0-761.0-0.0","0","0","33215","","996","","","75","84","","","2","84","training","adjacent","AB","1","2","O.jpg","N.jpg","1","1","1","",""
"","feedback","","html-keyboard-response","552","577847","0.0-1.0-762.0-0.0","0","0","33215","","null","","","null","84","","","","","","","","","","","","","","","",""
"","ITI","","html-keyboard-response","553","578849","0.0-1.0-765.0","0","0","33215","","null","","","null","84","","","","","","","","","","","","","","","NaN",""
"","S1","","html-keyboard-response","554","579101","0.0-1.0-767.0","0","0","33215","","null","","","null","85","","","","","","","","","","","","","","","",""
"","ISI","","html-keyboard-response","555","580102","0.0-1.0-768.0","0","0","33215","","null","","","null","85","NaN","","","","","","","","","","","","","","",""
"","S2","","html-keyboard-response","556","580353","0.0-1.0-769.0","0","0","33215","","null","","","null","85","","NaN","","","","","","","","","","","","","",""
"","response","","html-keyboard-response","557","581668","0.0-1.0-770.0-0.0","0","0","33215","","1314","","","68","85","","","2","85","training","adjacent","EF","5","6","Q.jpg","L.jpg","0","1","0","",""
"","feedback","","html-keyboard-response","558","582670","0.0-1.0-771.0-0.0","0","0","33215","","null","","","null","85","","","","","","","","","","","","","","","",""
"","time_out","","html-keyboard-response","559","584673","0.0-1.0-773.0-0.0","0","0","33215","","null","","","null","85","","","","","","","","","","","","","","","",""
"","ITI","","html-keyboard-response","560","585675","0.0-1.0-774.0","0","0","33215","","null","","","null","85","","","","","","","","","","","","","","","NaN",""
"","S1","","html-keyboard-response","561","585928","0.0-1.0-776.0","0","0","33215","","null","","","null","86","","","","","","","","","","","","","","","",""
"","ISI","","html-keyboard-response","562","586929","0.0-1.0-777.0","0","0","33215","","null","","","null","86","NaN","","","","","","","","","","","","","","",""
"","S2","","html-keyboard-response","563","587181","0.0-1.0-778.0","0","0","33215","","null","","","null","86","","NaN","","","","","","","","","","","","","",""
"","response","","html-keyboard-response","564","588109","0.0-1.0-779.0-0.0","0","0","33215","","928","","","75","86","","","2","86","training","adjacent","BC","2","3","N.jpg","R.jpg","1","1","1","",""
"","feedback","","html-keyboard-response","565","589111","0.0-1.0-780.0-0.0","0","0","33215","","null","","","null","86","","","","","","","","","","","","","","","",""
"","ITI","","html-keyboard-response","566","590113","0.0-1.0-783.0","0","0","33215","","null","","","null","86","","","","","","","","","","","","","","","NaN",""
"","S1","","html-keyboard-response","567","590364","0.0-1.0-785.0","0","0","33215","","null","","","null","87","","","","","","","","","","","","","","","",""
"","ISI","","html-keyboard-response","568","591365","0.0-1.0-786.0","0","0","33215","","null","","","null","87","NaN","","","","","","","","","","","","","","",""
"","S2","","html-keyboard-response","569","591616","0.0-1.0-787.0","0","0","33215","","null","","","null","87","","NaN","","","","","","","","","","","","","",""
"","response","","html-keyboard-response","570","592325","0.0-1.0-788.0-0.0","0","0","33215","","707","","","68","87","","","2","87","training","adjacent","AB","1","2","O.jpg","N.jpg","0","1","0","",""
"","feedback","","html-keyboard-response","571","593327","0.0-1.0-789.0-0.0","0","0","33215","","null","","","null","87","","","","","","","","","","","","","","","",""
"","time_out","","html-keyboard-response","572","595329","0.0-1.0-791.0-0.0","0","0","33215","","null","","","null","87","","","","","","","","","","","","","","","",""
"","ITI","","html-keyboard-response","573","596330","0.0-1.0-792.0","0","0","33215","","null","","","null","87","","","","","","","","","","","","","","","NaN",""
"","S1","","html-keyboard-response","574","596582","0.0-1.0-794.0","0","0","33215","","null","","","null","88","","","","","","","","","","","","","","","",""
"","ISI","","html-keyboard-response","575","597583","0.0-1.0-795.0","0","0","33215","","null","","","null","88","NaN","","","","","","","","","","","","","","",""
"","S2","","html-keyboard-response","576","597836","0.0-1.0-796.0","0","0","33215","","null","","","null","88","","NaN","","","","","","","","","","","","","",""
"","response","","html-keyboard-response","577","598519","0.0-1.0-797.0-0.0","0","0","33215","","682","","","68","88","","","2","88","training","adjacent","CD","3","4","R.jpg","P.jpg","0","1","0","",""
"","feedback","","html-keyboard-response","578","599521","0.0-1.0-798.0-0.0","0","0","33215","","null","","","null","88","","","","","","","","","","","","","","","",""
"","time_out","","html-keyboard-response","579","601522","0.0-1.0-800.0-0.0","0","0","33215","","null","","","null","88","","","","","","","","","","","","","","","",""
"","ITI","","html-keyboard-response","580","602524","0.0-1.0-801.0","0","0","33215","","null","","","null","88","","","","","","","","","","","","","","","NaN",""
