"success","ttype","start_time","trial_type","trial_index","time_elapsed","internal_node_id","warning","missed_checkup","PID","view_history","rt","responses","repeat_instructions","key_press","index","keypress_isi","keypress_S2","block","trial_num","phase","group_type","pair_type","S1_stim","S2_stim","S1_img","S2_img","S1_chosen","S1_higher","accuracy","keypress_iti","total_bonus_tally"
"true","full_screen","d04132023hr1351","fullscreen","0","2398","0.0-0.0","0","0","48649","","","","","","","","","","","","","","","","","","","","","",""
"","instructions","","instructions","1","20763","0.0-1.0-0.0-0.0","0","0","48649","[{""page_index"":0,""viewing_time"":3706},{""page_index"":1,""viewing_time"":8943},{""page_index"":2,""viewing_time"":3600},{""page_index"":3,""viewing_time"":2113}]","18362","","","","","","","","","","","","","","","","","","","",""
"","comprehension_check","","survey-multi-choice","2","43955","0.0-1.0-0.0-1.0","0","0","48649","","23188","{""Q0"":""True"",""Q1"":""D"",""Q2"":""Only while the second image is shown"",""Q3"":""Green mark"",""Q4"":""either D or K""}","1","","","","","","","","","","","","","","","","","",""
"","missed_instruction_checkup","","html-keyboard-response","3","47332","0.0-1.0-0.0-2.0-0.0","0","1","48649","","3373","","","32","","","","","","","","","","","","","","","","",""
"","instructions","","instructions","4","56154","0.0-1.0-0.1-0.1","0","0","48649","[{""page_index"":0,""viewing_time"":2012},{""page_index"":1,""viewing_time"":3984},{""page_index"":2,""viewing_time"":1568},{""page_index"":3,""viewing_time"":1256}]","8821","","","","","","","","","","","","","","","","","","","",""
"","comprehension_check","","survey-multi-choice","5","67915","0.0-1.0-0.1-1.1","0","0","48649","","11758","{""Q0"":""True"",""Q1"":""K"",""Q2"":""Only when the screen 'MAKE A CHOICE' is shown"",""Q3"":""Green mark"",""Q4"":""either D or K""}","1","","","","","","","","","","","","","","","","","",""
"","missed_instruction_checkup","","html-keyboard-response","6","69084","0.0-1.0-0.1-2.1-0.1","0","1","48649","","1167","","","32","","","","","","","","","","","","","","","","",""
"","instructions","","instructions","7","94203","0.0-1.0-0.2-0.2","0","0","48649","[{""page_index"":0,""viewing_time"":2661},{""page_index"":1,""viewing_time"":21032},{""page_index"":2,""viewing_time"":752},{""page_index"":3,""viewing_time"":672}]","25117","","","","","","","","","","","","","","","","","","","",""
"","comprehension_check","","survey-multi-choice","8","111619","0.0-1.0-0.2-1.2","0","0","48649","","17413","{""Q0"":""True"",""Q1"":""K"",""Q2"":""Once the second image appears and while the screen 'MAKE A CHOICE' is shown"",""Q3"":""Green mark"",""Q4"":""either D or K""}","0","","","","","","","","","","","","","","","","","",""
"","start_exp","","html-keyboard-response","9","113660","0.0-1.0-1.0","0","0","48649","","2039","","","32","","","","","","","","","","","","","","","","",""
"","S1","","html-keyboard-response","10","113914","0.0-1.0-2.0","0","0","48649","","null","","","null","0","","","","","","","","","","","","","","","",""
"","ISI","","html-keyboard-response","11","114918","0.0-1.0-3.0","0","0","48649","","null","","","null","0","NaN","","","","","","","","","","","","","","",""
"","S2","","html-keyboard-response","12","115172","0.0-1.0-4.0","0","0","48649","","null","","","null","0","","NaN","","","","","","","","","","","","","",""
"","response","","html-keyboard-response","13","116716","0.0-1.0-5.0-0.0","0","0","48649","","1541","","","75","0","","","1","0","training","adjacent","GF","7","6","L.jpg","N.jpg","1","0","0","",""
"","feedback","","html-keyboard-response","14","117720","0.0-1.0-6.0-0.0","0","0","48649","","null","","","null","0","","","","","","","","","","","","","","","",""
"","time_out","","html-keyboard-response","15","119723","0.0-1.0-8.0-0.0","0","0","48649","","null","","","null","0","","","","","","","","","","","","","","","",""
"","ITI","","html-keyboard-response","16","120727","0.0-1.0-9.0","0","0","48649","","null","","","null","0","","","","","","","","","","","","","","","NaN",""
"","S1","","html-keyboard-response","17","120980","0.0-1.0-11.0","0","0","48649","","null","","","null","1","","","","","","","","","","","","","","","",""
"","ISI","","html-keyboard-response","18","121984","0.0-1.0-12.0","0","0","48649","","533","","","68","1","d","","","","","","","","","","","","","","",""
"","S2","","html-keyboard-response","19","122042","0.0-1.0-13.0","0","0","48649","","55","","","75","1","","k","1","1","training","adjacent","ED","5","4","R.jpg","P.jpg","1","0","0","",""
"","feedback","","html-keyboard-response","20","123045","0.0-1.0-15.0-0.0","0","0","48649","","null","","","null","1","","","","","","","","","","","","","","","",""
"","time_out","","html-keyboard-response","21","125048","0.0-1.0-17.0-0.0","0","0","48649","","null","","","null","1","","","","","","","","","","","","","","","",""
"","ITI","","html-keyboard-response","22","126052","0.0-1.0-18.0","0","0","48649","","null","","","null","1","","","","","","","","","","","","","","","NaN",""
"","S1","","html-keyboard-response","23","126306","0.0-1.0-20.0","0","0","48649","","null","","","null","2","","","","","","","","","","","","","","","",""
"","ISI","","html-keyboard-response","24","127310","0.0-1.0-21.0","0","0","48649","","383","","","68","2","d","","","","","","","","","","","","","","",""
"","S2","","html-keyboard-response","25","127563","0.0-1.0-22.0","0","0","48649","","null","","","null","2","","NaN","","","","","","","","","","","","","",""
"","response","","html-keyboard-response","26","128372","0.0-1.0-23.0-0.0","0","0","48649","","806","","","68","2","","","1","2","training","adjacent","EF","5","6","R.jpg","N.jpg","0","1","0","",""
"","feedback","","html-keyboard-response","27","129375","0.0-1.0-24.0-0.0","0","0","48649","","null","","","null","2","","","","","","","","","","","","","","","",""
"","time_out","","html-keyboard-response","28","131379","0.0-1.0-26.0-0.0","0","0","48649","","null","","","null","2","","","","","","","","","","","","","","","",""
"","ITI","","html-keyboard-response","29","132382","0.0-1.0-27.0","0","0","48649","","null","","","null","2","","","","","","","","","","","","","","","NaN",""
"","S1","","html-keyboard-response","30","132636","0.0-1.0-29.0","0","0","48649","","null","","","null","3","","","","","","","","","","","","","","","",""
"","ISI","","html-keyboard-response","31","133640","0.0-1.0-30.0","0","0","48649","","973","","","75","3","k","","","","","","","","","","","","","","",""
"","S2","","html-keyboard-response","32","133893","0.0-1.0-31.0","0","0","48649","","null","","","null","3","","NaN","","","","","","","","","","","","","",""
"","response","","html-keyboard-response","33","134780","0.0-1.0-32.0-0.0","0","0","48649","","885","","","75","3","","","1","3","training","adjacent","BC","2","3","O.jpg","M.jpg","1","1","1","",""
"","feedback","","html-keyboard-response","34","135784","0.0-1.0-33.0-0.0","0","0","48649","","null","","","null","3","","","","","","","","","","","","","","","",""
"","ITI","","html-keyboard-response","35","136788","0.0-1.0-36.0","0","0","48649","","null","","","null","3","","","","","","","","","","","","","","","NaN",""
"","S1","","html-keyboard-response","36","137041","0.0-1.0-38.0","0","0","48649","","null","","","null","4","","","","","","","","","","","","","","","",""
"","ISI","","html-keyboard-response","37","138044","0.0-1.0-39.0","0","0","48649","","null","","","null","4","NaN","","","","","","","","","","","","","","",""
"","S2","","html-keyboard-response","38","138298","0.0-1.0-40.0","0","0","48649","","null","","","null","4","","NaN","","","","","","","","","","","","","",""
"","response","","html-keyboard-response","39","139436","0.0-1.0-41.0-0.0","0","0","48649","","1135","","","68","4","","","1","4","training","adjacent","ED","5","4","R.jpg","P.jpg","0","0","1","",""
"","feedback","","html-keyboard-response","40","140439","0.0-1.0-42.0-0.0","0","0","48649","","null","","","null","4","","","","","","","","","","","","","","","",""
"","ITI","","html-keyboard-response","41","141442","0.0-1.0-45.0","0","0","48649","","null","","","null","4","","","","","","","","","","","","","","","NaN",""
"","S1","","html-keyboard-response","42","141696","0.0-1.0-47.0","0","0","48649","","null","","","null","5","","","","","","","","","","","","","","","",""
"","ISI","","html-keyboard-response","43","142700","0.0-1.0-48.0","0","0","48649","","null","","","null","5","NaN","","","","","","","","","","","","","","",""
"","S2","","html-keyboard-response","44","142953","0.0-1.0-49.0","0","0","48649","","null","","","null","5","","NaN","","","","","","","","","","","","","",""
"","response","","html-keyboard-response","45","143556","0.0-1.0-50.0-0.0","0","0","48649","","600","","","75","5","","","1","5","training","adjacent","DE","4","5","P.jpg","R.jpg","1","1","1","",""
"","feedback","","html-keyboard-response","46","144560","0.0-1.0-51.0-0.0","0","0","48649","","null","","","null","5","","","","","","","","","","","","","","","",""
"","ITI","","html-keyboard-response","47","145563","0.0-1.0-54.0","0","0","48649","","null","","","null","5","","","","","","","","","","","","","","","NaN",""
"","S1","","html-keyboard-response","48","145817","0.0-1.0-56.0","0","0","48649","","null","","","null","6","","","","","","","","","","","","","","","",""
"","ISI","","html-keyboard-response","49","146821","0.0-1.0-57.0","0","0","48649","","null","","","null","6","NaN","","","","","","","","","","","","","","",""
"","S2","","html-keyboard-response","50","147076","0.0-1.0-58.0","0","0","48649","","null","","","null","6","","NaN","","","","","","","","","","","","","",""
"","response","","html-keyboard-response","51","147468","0.0-1.0-59.0-0.0","0","0","48649","","390","","","68","6","","","1","6","training","adjacent","AB","1","2","Q.jpg","O.jpg","0","1","0","",""
"","feedback","","html-keyboard-response","52","148471","0.0-1.0-60.0-0.0","0","0","48649","","null","","","null","6","","","","","","","","","","","","","","","",""
"","time_out","","html-keyboard-response","53","150475","0.0-1.0-62.0-0.0","0","0","48649","","null","","","null","6","","","","","","","","","","","","","","","",""
"","ITI","","html-keyboard-response","54","151479","0.0-1.0-63.0","0","0","48649","","null","","","null","6","","","","","","","","","","","","","","","NaN",""
"","S1","","html-keyboard-response","55","151732","0.0-1.0-65.0","0","0","48649","","null","","","null","7","","","","","","","","","","","","","","","",""
"","ISI","","html-keyboard-response","56","152735","0.0-1.0-66.0","0","0","48649","","null","","","null","7","NaN","","","","","","","","","","","","","","",""
"","S2","","html-keyboard-response","57","152989","0.0-1.0-67.0","0","0","48649","","null","","","null","7","","NaN","","","","","","","","","","","","","",""
"","response","","html-keyboard-response","58","153044","0.0-1.0-68.0-0.0","0","0","48649","","53","","","75","7","","","1","7","training","adjacent","DE","4","5","P.jpg","R.jpg","1","1","1","",""
"","feedback","","html-keyboard-response","59","154049","0.0-1.0-69.0-0.0","0","0","48649","","null","","","null","7","","","","","","","","","","","","","","","",""
"","ITI","","html-keyboard-response","60","155052","0.0-1.0-72.0","0","0","48649","","null","","","null","7","","","","","","","","","","","","","","","NaN",""
"","S1","","html-keyboard-response","61","155306","0.0-1.0-74.0","0","0","48649","","null","","","null","8","","","","","","","","","","","","","","","",""
"","ISI","","html-keyboard-response","62","156309","0.0-1.0-75.0","0","0","48649","","null","","","null","8","NaN","","","","","","","","","","","","","","",""
"","S2","","html-keyboard-response","63","156562","0.0-1.0-76.0","0","0","48649","","null","","","null","8","","NaN","","","","","","","","","","","","","",""
"","response","","html-keyboard-response","64","157772","0.0-1.0-77.0-0.0","0","0","48649","","1207","","","75","8","","","1","8","training","adjacent","CB","3","2","M.jpg","O.jpg","1","0","0","",""
"","feedback","","html-keyboard-response","65","158775","0.0-1.0-78.0-0.0","0","0","48649","","null","","","null","8","","","","","","","","","","","","","","","",""
"","time_out","","html-keyboard-response","66","160778","0.0-1.0-80.0-0.0","0","0","48649","","null","","","null","8","","","","","","","","","","","","","","","",""
"","ITI","","html-keyboard-response","67","161782","0.0-1.0-81.0","0","0","48649","","null","","","null","8","","","","","","","","","","","","","","","NaN",""
"","S1","","html-keyboard-response","68","162036","0.0-1.0-83.0","0","0","48649","","null","","","null","9","","","","","","","","","","","","","","","",""
"","ISI","","html-keyboard-response","69","163039","0.0-1.0-84.0","0","0","48649","","null","","","null","9","NaN","","","","","","","","","","","","","","",""
"","S2","","html-keyboard-response","70","163293","0.0-1.0-85.0","0","0","48649","","null","","","null","9","","NaN","","","","","","","","","","","","","",""
"","response","","html-keyboard-response","71","163652","0.0-1.0-86.0-0.0","0","0","48649","","357","","","75","9","","","1","9","training","adjacent","EF","5","6","R.jpg","N.jpg","1","1","1","",""
"","feedback","","html-keyboard-response","72","164657","0.0-1.0-87.0-0.0","0","0","48649","","null","","","null","9","","","","","","","","","","","","","","","",""
"","ITI","","html-keyboard-response","73","165661","0.0-1.0-90.0","0","0","48649","","null","","","null","9","","","","","","","","","","","","","","","NaN",""
"","S1","","html-keyboard-response","74","165914","0.0-1.0-92.0","0","0","48649","","null","","","null","10","","","","","","","","","","","","","","","",""
"","ISI","","html-keyboard-response","75","166916","0.0-1.0-93.0","0","0","48649","","null","","","null","10","NaN","","","","","","","","","","","","","","",""
"","S2","","html-keyboard-response","76","167169","0.0-1.0-94.0","0","0","48649","","null","","","null","10","","NaN","","","","","","","","","","","","","",""
"","response","","html-keyboard-response","77","167692","0.0-1.0-95.0-0.0","0","0","48649","","521","","","68","10","","","1","10","training","adjacent","CB","3","2","M.jpg","O.jpg","0","0","1","",""
"","feedback","","html-keyboard-response","78","168696","0.0-1.0-96.0-0.0","0","0","48649","","null","","","null","10","","","","","","","","","","","","","","","",""
"","ITI","","html-keyboard-response","79","169700","0.0-1.0-99.0","0","0","48649","","null","","","null","10","","","","","","","","","","","","","","","NaN",""
"","S1","","html-keyboard-response","80","169953","0.0-1.0-101.0","0","0","48649","","null","","","null","11","","","","","","","","","","","","","","","",""
"","ISI","","html-keyboard-response","81","170957","0.0-1.0-102.0","0","0","48649","","null","","","null","11","NaN","","","","","","","","","","","","","","",""
"","S2","","html-keyboard-response","82","171211","0.0-1.0-103.0","0","0","48649","","null","","","null","11","","NaN","","","","","","","","","","","","","",""
"","response","","html-keyboard-response","83","171332","0.0-1.0-104.0-0.0","0","0","48649","","119","","","68","11","","","1","11","training","adjacent","FG","6","7","N.jpg","L.jpg","0","1","0","",""
"","feedback","","html-keyboard-response","84","172335","0.0-1.0-105.0-0.0","0","0","48649","","null","","","null","11","","","","","","","","","","","","","","","",""
"","time_out","","html-keyboard-response","85","174339","0.0-1.0-107.0-0.0","0","0","48649","","null","","","null","11","","","","","","","","","","","","","","","",""
"","ITI","","html-keyboard-response","86","175342","0.0-1.0-108.0","0","0","48649","","null","","","null","11","","","","","","","","","","","","","","","NaN",""
"","S1","","html-keyboard-response","87","175596","0.0-1.0-110.0","0","0","48649","","null","","","null","12","","","","","","","","","","","","","","","",""
"","ISI","","html-keyboard-response","88","176599","0.0-1.0-111.0","0","0","48649","","null","","","null","12","NaN","","","","","","","","","","","","","","",""
"","S2","","html-keyboard-response","89","176852","0.0-1.0-112.0","0","0","48649","","null","","","null","12","","NaN","","","","","","","","","","","","","",""
"","response","","html-keyboard-response","90","176884","0.0-1.0-113.0-0.0","0","0","48649","","29","","","75","12","","","1","12","training","adjacent","BA","2","1","O.jpg","Q.jpg","1","0","0","",""
"","feedback","","html-keyboard-response","91","177888","0.0-1.0-114.0-0.0","0","0","48649","","null","","","null","12","","","","","","","","","","","","","","","",""
"","time_out","","html-keyboard-response","92","179892","0.0-1.0-116.0-0.0","0","0","48649","","null","","","null","12","","","","","","","","","","","","","","","",""
"","ITI","","html-keyboard-response","93","180895","0.0-1.0-117.0","0","0","48649","","null","","","null","12","","","","","","","","","","","","","","","NaN",""
"","S1","","html-keyboard-response","94","181149","0.0-1.0-119.0","0","0","48649","","null","","","null","13","","","","","","","","","","","","","","","",""
"","ISI","","html-keyboard-response","95","182152","0.0-1.0-120.0","0","0","48649","","null","","","null","13","NaN","","","","","","","","","","","","","","",""
"","S2","","html-keyboard-response","96","182406","0.0-1.0-121.0","0","0","48649","","null","","","null","13","","NaN","","","","","","","","","","","","","",""
"","response","","html-keyboard-response","97","182414","0.0-1.0-122.0-0.0","0","0","48649","","6","","","75","13","","","1","13","training","adjacent","ED","5","4","R.jpg","P.jpg","1","0","0","",""
"","feedback","","html-keyboard-response","98","183417","0.0-1.0-123.0-0.0","0","0","48649","","null","","","null","13","","","","","","","","","","","","","","","",""
"","time_out","","html-keyboard-response","99","185421","0.0-1.0-125.0-0.0","0","0","48649","","null","","","null","13","","","","","","","","","","","","","","","",""
"","ITI","","html-keyboard-response","100","186425","0.0-1.0-126.0","0","0","48649","","null","","","null","13","","","","","","","","","","","","","","","NaN",""
"","S1","","html-keyboard-response","101","186678","0.0-1.0-128.0","0","0","48649","","null","","","null","14","","","","","","","","","","","","","","","",""
"","ISI","","html-keyboard-response","102","187681","0.0-1.0-129.0","0","0","48649","","null","","","null","14","NaN","","","","","","","","","","","","","","",""
"","S2","","html-keyboard-response","103","187936","0.0-1.0-130.0","0","0","48649","","null","","","null","14","","NaN","","","","","","","","","","","","","",""
"","response","","html-keyboard-response","104","188237","0.0-1.0-131.0-0.0","0","0","48649","","297","","","68","14","","","1","14","training","adjacent","DC","4","3","P.jpg","M.jpg","0","0","1","",""
"","feedback","","html-keyboard-response","105","189241","0.0-1.0-132.0-0.0","0","0","48649","","null","","","null","14","","","","","","","","","","","","","","","",""
"","ITI","","html-keyboard-response","106","190244","0.0-1.0-135.0","0","0","48649","","null","","","null","14","","","","","","","","","","","","","","","NaN",""
"","S1","","html-keyboard-response","107","190498","0.0-1.0-137.0","0","0","48649","","null","","","null","15","","","","","","","","","","","","","","","",""
"","ISI","","html-keyboard-response","108","191501","0.0-1.0-138.0","0","0","48649","","null","","","null","15","NaN","","","","","","","","","","","","","","",""
"","S2","","html-keyboard-response","109","191708","0.0-1.0-139.0","0","0","48649","","204","","","68","15","","d","1","15","training","adjacent","FE","6","5","N.jpg","R.jpg","0","0","1","",""
"","feedback","","html-keyboard-response","110","192712","0.0-1.0-141.0-0.0","0","0","48649","","null","","","null","15","","","","","","","","","","","","","","","",""
"","ITI","","html-keyboard-response","111","193716","0.0-1.0-144.0","0","0","48649","","null","","","null","15","","","","","","","","","","","","","","","NaN",""
"","S1","","html-keyboard-response","112","193970","0.0-1.0-146.0","0","0","48649","","null","","","null","16","","","","","","","","","","","","","","","",""
"","ISI","","html-keyboard-response","113","194973","0.0-1.0-147.0","0","0","48649","","null","","","null","16","NaN","","","","","","","","","","","","","","",""
"","S2","","html-keyboard-response","114","195226","0.0-1.0-148.0","0","0","48649","","null","","","null","16","","NaN","","","","","","","","","","","","","",""
"","response","","html-keyboard-response","115","195444","0.0-1.0-149.0-0.0","0","0","48649","","215","","","75","16","","","1","16","training","adjacent","CB","3","2","M.jpg","O.jpg","1","0","0","",""
"","feedback","","html-keyboard-response","116","196448","0.0-1.0-150.0-0.0","0","0","48649","","null","","","null","16","","","","","","","","","","","","","","","",""
"","time_out","","html-keyboard-response","117","198451","0.0-1.0-152.0-0.0","0","0","48649","","null","","","null","16","","","","","","","","","","","","","","","",""
"","ITI","","html-keyboard-response","118","199454","0.0-1.0-153.0","0","0","48649","","null","","","null","16","","","","","","","","","","","","","","","NaN",""
"","S1","","html-keyboard-response","119","199708","0.0-1.0-155.0","0","0","48649","","null","","","null","17","","","","","","","","","","","","","","","",""
"","ISI","","html-keyboard-response","120","200711","0.0-1.0-156.0","0","0","48649","","null","","","null","17","NaN","","","","","","","","","","","","","","",""
"","S2","","html-keyboard-response","121","200935","0.0-1.0-157.0","0","0","48649","","220","","","68","17","","d","1","17","training","adjacent","GF","7","6","L.jpg","N.jpg","0","0","1","",""
"","feedback","","html-keyboard-response","122","201939","0.0-1.0-159.0-0.0","0","0","48649","","null","","","null","17","","","","","","","","","","","","","","","",""
"","ITI","","html-keyboard-response","123","202942","0.0-1.0-162.0","0","0","48649","","null","","","null","17","","","","","","","","","","","","","","","NaN",""
"","S1","","html-keyboard-response","124","203196","0.0-1.0-164.0","0","0","48649","","null","","","null","18","","","","","","","","","","","","","","","",""
"","ISI","","html-keyboard-response","125","204199","0.0-1.0-165.0","0","0","48649","","null","","","null","18","NaN","","","","","","","","","","","","","","",""
"","S2","","html-keyboard-response","126","204444","0.0-1.0-166.0","0","0","48649","","242","","","75","18","","k","1","18","training","adjacent","DE","4","5","P.jpg","R.jpg","1","1","1","",""
"","feedback","","html-keyboard-response","127","205447","0.0-1.0-168.0-0.0","0","0","48649","","null","","","null","18","","","","","","","","","","","","","","","",""
"","ITI","","html-keyboard-response","128","206450","0.0-1.0-171.0","0","0","48649","","null","","","null","18","","","","","","","","","","","","","","","NaN",""
"","S1","","html-keyboard-response","129","206703","0.0-1.0-173.0","0","0","48649","","null","","","null","19","","","","","","","","","","","","","","","",""
"","ISI","","html-keyboard-response","130","207707","0.0-1.0-174.0","0","0","48649","","null","","","null","19","NaN","","","","","","","","","","","","","","",""
"","S2","","html-keyboard-response","131","207961","0.0-1.0-175.0","0","0","48649","","null","","","null","19","","NaN","","","","","","","","","","","","","",""
"","response","","html-keyboard-response","132","207988","0.0-1.0-176.0-0.0","0","0","48649","","25","","","75","19","","","1","19","training","adjacent","EF","5","6","R.jpg","N.jpg","1","1","1","",""
"","feedback","","html-keyboard-response","133","208991","0.0-1.0-177.0-0.0","0","0","48649","","null","","","null","19","","","","","","","","","","","","","","","",""
"","ITI","","html-keyboard-response","134","209995","0.0-1.0-180.0","0","0","48649","","null","","","null","19","","","","","","","","","","","","","","","NaN",""
"","S1","","html-keyboard-response","135","210249","0.0-1.0-182.0","0","0","48649","","null","","","null","20","","","","","","","","","","","","","","","",""
"","ISI","","html-keyboard-response","136","211253","0.0-1.0-183.0","0","0","48649","","null","","","null","20","NaN","","","","","","","","","","","","","","",""
"","S2","","html-keyboard-response","137","211508","0.0-1.0-184.0","0","0","48649","","null","","","null","20","","NaN","","","","","","","","","","","","","",""
"","response","","html-keyboard-response","138","211511","0.0-1.0-185.0-0.0","0","0","48649","","0","","","75","20","","","1","20","training","adjacent","DC","4","3","P.jpg","M.jpg","1","0","0","",""
"","feedback","","html-keyboard-response","139","212514","0.0-1.0-186.0-0.0","0","0","48649","","null","","","null","20","","","","","","","","","","","","","","","",""
"","time_out","","html-keyboard-response","140","214517","0.0-1.0-188.0-0.0","0","0","48649","","null","","","null","20","","","","","","","","","","","","","","","",""
"","ITI","","html-keyboard-response","141","215520","0.0-1.0-189.0","0","0","48649","","null","","","null","20","","","","","","","","","","","","","","","NaN",""
"","S1","","html-keyboard-response","142","215774","0.0-1.0-191.0","0","0","48649","","null","","","null","21","","","","","","","","","","","","","","","",""
"","ISI","","html-keyboard-response","143","216777","0.0-1.0-192.0","0","0","48649","","null","","","null","21","NaN","","","","","","","","","","","","","","",""
"","S2","","html-keyboard-response","144","216980","0.0-1.0-193.0","0","0","48649","","200","","","75","21","","k","1","21","training","adjacent","FG","6","7","N.jpg","L.jpg","1","1","1","",""
"","feedback","","html-keyboard-response","145","217984","0.0-1.0-195.0-0.0","0","0","48649","","null","","","null","21","","","","","","","","","","","","","","","",""
"","ITI","","html-keyboard-response","146","218987","0.0-1.0-198.0","0","0","48649","","null","","","null","21","","","","","","","","","","","","","","","NaN",""
"","S1","","html-keyboard-response","147","219241","0.0-1.0-200.0","0","0","48649","","null","","","null","22","","","","","","","","","","","","","","","",""
"","ISI","","html-keyboard-response","148","220245","0.0-1.0-201.0","0","0","48649","","null","","","null","22","NaN","","","","","","","","","","","","","","",""
"","S2","","html-keyboard-response","149","220499","0.0-1.0-202.0","0","0","48649","","null","","","null","22","","NaN","","","","","","","","","","","","","",""
"","response","","html-keyboard-response","150","220540","0.0-1.0-203.0-0.0","0","0","48649","","39","","","68","22","","","1","22","training","adjacent","BA","2","1","O.jpg","Q.jpg","0","0","1","",""
"","feedback","","html-keyboard-response","151","221543","0.0-1.0-204.0-0.0","0","0","48649","","null","","","null","22","","","","","","","","","","","","","","","",""
"","ITI","","html-keyboard-response","152","222546","0.0-1.0-207.0","0","0","48649","","null","","","null","22","","","","","","","","","","","","","","","NaN",""
"","S1","","html-keyboard-response","153","222800","0.0-1.0-209.0","0","0","48649","","null","","","null","23","","","","","","","","","","","","","","","",""
"","ISI","","html-keyboard-response","154","223803","0.0-1.0-210.0","0","0","48649","","null","","","null","23","NaN","","","","","","","","","","","","","","",""
"","S2","","html-keyboard-response","155","224058","0.0-1.0-211.0","0","0","48649","","null","","","null","23","","NaN","","","","","","","","","","","","","",""
"","response","","html-keyboard-response","156","224108","0.0-1.0-212.0-0.0","0","0","48649","","47","","","68","23","","","1","23","training","adjacent","BA","2","1","O.jpg","Q.jpg","0","0","1","",""
"","feedback","","html-keyboard-response","157","225112","0.0-1.0-213.0-0.0","0","0","48649","","null","","","null","23","","","","","","","","","","","","","","","",""
"","ITI","","html-keyboard-response","158","226116","0.0-1.0-216.0","0","0","48649","","null","","","null","23","","","","","","","","","","","","","","","NaN",""
"","S1","","html-keyboard-response","159","226369","0.0-1.0-218.0","0","0","48649","","null","","","null","24","","","","","","","","","","","","","","","",""
"","ISI","","html-keyboard-response","160","227372","0.0-1.0-219.0","0","0","48649","","null","","","null","24","NaN","","","","","","","","","","","","","","",""
"","S2","","html-keyboard-response","161","227627","0.0-1.0-220.0","0","0","48649","","null","","","null","24","","NaN","","","","","","","","","","","","","",""
"","response","","html-keyboard-response","162","228156","0.0-1.0-221.0-0.0","0","0","48649","","527","","","68","24","","","1","24","training","adjacent","CD","3","4","M.jpg","P.jpg","0","1","0","",""
"","feedback","","html-keyboard-response","163","229160","0.0-1.0-222.0-0.0","0","0","48649","","null","","","null","24","","","","","","","","","","","","","","","",""
"","time_out","","html-keyboard-response","164","231164","0.0-1.0-224.0-0.0","0","0","48649","","null","","","null","24","","","","","","","","","","","","","","","",""
"","ITI","","html-keyboard-response","165","232167","0.0-1.0-225.0","0","0","48649","","null","","","null","24","","","","","","","","","","","","","","","NaN",""
"","S1","","html-keyboard-response","166","232420","0.0-1.0-227.0","0","0","48649","","null","","","null","25","","","","","","","","","","","","","","","",""
"","ISI","","html-keyboard-response","167","233424","0.0-1.0-228.0","0","0","48649","","null","","","null","25","NaN","","","","","","","","","","","","","","",""
"","S2","","html-keyboard-response","168","233678","0.0-1.0-229.0","0","0","48649","","null","","","null","25","","NaN","","","","","","","","","","","","","",""
"","response","","html-keyboard-response","169","233772","0.0-1.0-230.0-0.0","0","0","48649","","91","","","75","25","","","1","25","training","adjacent","DC","4","3","P.jpg","M.jpg","1","0","0","",""
"","feedback","","html-keyboard-response","170","234776","0.0-1.0-231.0-0.0","0","0","48649","","null","","","null","25","","","","","","","","","","","","","","","",""
"","time_out","","html-keyboard-response","171","236779","0.0-1.0-233.0-0.0","0","0","48649","","null","","","null","25","","","","","","","","","","","","","","","",""
"","ITI","","html-keyboard-response","172","237782","0.0-1.0-234.0","0","0","48649","","null","","","null","25","","","","","","","","","","","","","","","NaN",""
"","S1","","html-keyboard-response","173","238036","0.0-1.0-236.0","0","0","48649","","null","","","null","26","","","","","","","","","","","","","","","",""
"","ISI","","html-keyboard-response","174","239039","0.0-1.0-237.0","0","0","48649","","null","","","null","26","NaN","","","","","","","","","","","","","","",""
"","S2","","html-keyboard-response","175","239052","0.0-1.0-238.0","0","0","48649","","10","","","75","26","","k","1","26","training","adjacent","AB","1","2","Q.jpg","O.jpg","1","1","1","",""
"","feedback","","html-keyboard-response","176","240056","0.0-1.0-240.0-0.0","0","0","48649","","null","","","null","26","","","","","","","","","","","","","","","",""
"","ITI","","html-keyboard-response","177","241059","0.0-1.0-243.0","0","0","48649","","null","","","null","26","","","","","","","","","","","","","","","NaN",""
"","S1","","html-keyboard-response","178","241312","0.0-1.0-245.0","0","0","48649","","null","","","null","27","","","","","","","","","","","","","","","",""
"","ISI","","html-keyboard-response","179","242316","0.0-1.0-246.0","0","0","48649","","null","","","null","27","NaN","","","","","","","","","","","","","","",""
"","S2","","html-keyboard-response","180","242569","0.0-1.0-247.0","0","0","48649","","null","","","null","27","","NaN","","","","","","","","","","","","","",""
"","response","","html-keyboard-response","181","242628","0.0-1.0-248.0-0.0","0","0","48649","","56","","","75","27","","","1","27","training","adjacent","CD","3","4","M.jpg","P.jpg","1","1","1","",""
"","feedback","","html-keyboard-response","182","243632","0.0-1.0-249.0-0.0","0","0","48649","","null","","","null","27","","","","","","","","","","","","","","","",""
"","ITI","","html-keyboard-response","183","244636","0.0-1.0-252.0","0","0","48649","","null","","","null","27","","","","","","","","","","","","","","","NaN",""
"","S1","","html-keyboard-response","184","244890","0.0-1.0-254.0","0","0","48649","","null","","","null","28","","","","","","","","","","","","","","","",""
"","ISI","","html-keyboard-response","185","245893","0.0-1.0-255.0","0","0","48649","","null","","","null","28","NaN","","","","","","","","","","","","","","",""
"","S2","","html-keyboard-response","186","246146","0.0-1.0-256.0","0","0","48649","","null","","","null","28","","NaN","","","","","","","","","","","","","",""
"","response","","html-keyboard-response","187","246916","0.0-1.0-257.0-0.0","0","0","48649","","767","","","75","28","","","1","28","training","adjacent","AB","1","2","Q.jpg","O.jpg","1","1","1","",""
"","feedback","","html-keyboard-response","188","247920","0.0-1.0-258.0-0.0","0","0","48649","","null","","","null","28","","","","","","","","","","","","","","","",""
"","ITI","","html-keyboard-response","189","248923","0.0-1.0-261.0","0","0","48649","","null","","","null","28","","","","","","","","","","","","","","","NaN",""
"","S1","","html-keyboard-response","190","249177","0.0-1.0-263.0","0","0","48649","","null","","","null","29","","","","","","","","","","","","","","","",""
"","ISI","","html-keyboard-response","191","250180","0.0-1.0-264.0","0","0","48649","","624","","","68","29","d","","","","","","","","","","","","","","",""
"","S2","","html-keyboard-response","192","250340","0.0-1.0-265.0","0","0","48649","","157","","","68","29","","d","1","29","training","adjacent","BA","2","1","O.jpg","Q.jpg","0","0","1","",""
"","feedback","","html-keyboard-response","193","251345","0.0-1.0-267.0-0.0","0","0","48649","","null","","","null","29","","","","","","","","","","","","","","","",""
"","ITI","","html-keyboard-response","194","252348","0.0-1.0-270.0","0","0","48649","","null","","","null","29","","","","","","","","","","","","","","","NaN",""
"","S1","","html-keyboard-response","195","252602","0.0-1.0-272.0","0","0","48649","","null","","","null","30","","","","","","","","","","","","","","","",""
"","ISI","","html-keyboard-response","196","253606","0.0-1.0-273.0","0","0","48649","","null","","","null","30","NaN","","","","","","","","","","","","","","",""
"","S2","","html-keyboard-response","197","253860","0.0-1.0-274.0","0","0","48649","","null","","","null","30","","NaN","","","","","","","","","","","","","",""
"","response","","html-keyboard-response","198","254420","0.0-1.0-275.0-0.0","0","0","48649","","558","","","75","30","","","1","30","training","adjacent","BC","2","3","O.jpg","M.jpg","1","1","1","",""
"","feedback","","html-keyboard-response","199","255424","0.0-1.0-276.0-0.0","0","0","48649","","null","","","null","30","","","","","","","","","","","","","","","",""
"","ITI","","html-keyboard-response","200","256428","0.0-1.0-279.0","0","0","48649","","null","","","null","30","","","","","","","","","","","","","","","NaN",""
"","S1","","html-keyboard-response","201","256681","0.0-1.0-281.0","0","0","48649","","null","","","null","31","","","","","","","","","","","","","","","",""
"","ISI","","html-keyboard-response","202","257684","0.0-1.0-282.0","0","0","48649","","null","","","null","31","NaN","","","","","","","","","","","","","","",""
"","S2","","html-keyboard-response","203","257908","0.0-1.0-283.0","0","0","48649","","220","","","68","31","","d","1","31","training","adjacent","AB","1","2","Q.jpg","O.jpg","0","1","0","",""
"","feedback","","html-keyboard-response","204","258912","0.0-1.0-285.0-0.0","0","0","48649","","null","","","null","31","","","","","","","","","","","","","","","",""
"","time_out","","html-keyboard-response","205","260915","0.0-1.0-287.0-0.0","0","0","48649","","null","","","null","31","","","","","","","","","","","","","","","",""
"","ITI","","html-keyboard-response","206","261919","0.0-1.0-288.0","0","0","48649","","null","","","null","31","","","","","","","","","","","","","","","NaN",""
"","S1","","html-keyboard-response","207","262173","0.0-1.0-290.0","0","0","48649","","null","","","null","32","","","","","","","","","","","","","","","",""
"","ISI","","html-keyboard-response","208","263176","0.0-1.0-291.0","0","0","48649","","null","","","null","32","NaN","","","","","","","","","","","","","","",""
"","S2","","html-keyboard-response","209","263430","0.0-1.0-292.0","0","0","48649","","null","","","null","32","","NaN","","","","","","","","","","","","","",""
"","response","","html-keyboard-response","210","264356","0.0-1.0-293.0-0.0","0","0","48649","","923","","","75","32","","","1","32","training","adjacent","BC","2","3","O.jpg","M.jpg","1","1","1","",""
"","feedback","","html-keyboard-response","211","265360","0.0-1.0-294.0-0.0","0","0","48649","","null","","","null","32","","","","","","","","","","","","","","","",""
"","ITI","","html-keyboard-response","212","266364","0.0-1.0-297.0","0","0","48649","","null","","","null","32","","","","","","","","","","","","","","","NaN",""
"","S1","","html-keyboard-response","213","266618","0.0-1.0-299.0","0","0","48649","","null","","","null","33","","","","","","","","","","","","","","","",""
"","ISI","","html-keyboard-response","214","267620","0.0-1.0-300.0","0","0","48649","","null","","","null","33","NaN","","","","","","","","","","","","","","",""
"","S2","","html-keyboard-response","215","267876","0.0-1.0-301.0","0","0","48649","","null","","","null","33","","NaN","","","","","","","","","","","","","",""
"","response","","html-keyboard-response","216","268324","0.0-1.0-302.0-0.0","0","0","48649","","446","","","68","33","","","1","33","training","adjacent","FE","6","5","N.jpg","R.jpg","0","0","1","",""
"","feedback","","html-keyboard-response","217","269328","0.0-1.0-303.0-0.0","0","0","48649","","null","","","null","33","","","","","","","","","","","","","","","",""
"","ITI","","html-keyboard-response","218","270331","0.0-1.0-306.0","0","0","48649","","null","","","null","33","","","","","","","","","","","","","","","NaN",""
"","S1","","html-keyboard-response","219","270585","0.0-1.0-308.0","0","0","48649","","null","","","null","34","","","","","","","","","","","","","","","",""
"","ISI","","html-keyboard-response","220","271588","0.0-1.0-309.0","0","0","48649","","null","","","null","34","NaN","","","","","","","","","","","","","","",""
"","S2","","html-keyboard-response","221","271842","0.0-1.0-310.0","0","0","48649","","null","","","null","34","","NaN","","","","","","","","","","","","","",""
"","response","","html-keyboard-response","222","272292","0.0-1.0-311.0-0.0","0","0","48649","","447","","","75","34","","","1","34","training","adjacent","GF","7","6","L.jpg","N.jpg","1","0","0","",""
"","feedback","","html-keyboard-response","223","273297","0.0-1.0-312.0-0.0","0","0","48649","","null","","","null","34","","","","","","","","","","","","","","","",""
"","time_out","","html-keyboard-response","224","275300","0.0-1.0-314.0-0.0","0","0","48649","","null","","","null","34","","","","","","","","","","","","","","","",""
"","ITI","","html-keyboard-response","225","276304","0.0-1.0-315.0","0","0","48649","","null","","","null","34","","","","","","","","","","","","","","","NaN",""
"","S1","","html-keyboard-response","226","276557","0.0-1.0-317.0","0","0","48649","","null","","","null","35","","","","","","","","","","","","","","","",""
"","ISI","","html-keyboard-response","227","277561","0.0-1.0-318.0","0","0","48649","","null","","","null","35","NaN","","","","","","","","","","","","","","",""
"","S2","","html-keyboard-response","228","277815","0.0-1.0-319.0","0","0","48649","","null","","","null","35","","NaN","","","","","","","","","","","","","",""
"","response","","html-keyboard-response","229","277852","0.0-1.0-320.0-0.0","0","0","48649","","34","","","68","35","","","1","35","training","adjacent","CD","3","4","M.jpg","P.jpg","0","1","0","",""
"","feedback","","html-keyboard-response","230","278856","0.0-1.0-321.0-0.0","0","0","48649","","null","","","null","35","","","","","","","","","","","","","","","",""
"","time_out","","html-keyboard-response","231","280860","0.0-1.0-323.0-0.0","0","0","48649","","null","","","null","35","","","","","","","","","","","","","","","",""
"","ITI","","html-keyboard-response","232","281863","0.0-1.0-324.0","0","0","48649","","null","","","null","35","","","","","","","","","","","","","","","NaN",""
"","S1","","html-keyboard-response","233","282117","0.0-1.0-326.0","0","0","48649","","null","","","null","36","","","","","","","","","","","","","","","",""
"","ISI","","html-keyboard-response","234","283120","0.0-1.0-327.0","0","0","48649","","null","","","null","36","NaN","","","","","","","","","","","","","","",""
"","S2","","html-keyboard-response","235","283340","0.0-1.0-328.0","0","0","48649","","217","","","75","36","","k","1","36","training","adjacent","FE","6","5","N.jpg","R.jpg","1","0","0","",""
"","feedback","","html-keyboard-response","236","284345","0.0-1.0-330.0-0.0","0","0","48649","","null","","","null","36","","","","","","","","","","","","","","","",""
"","time_out","","html-keyboard-response","237","286348","0.0-1.0-332.0-0.0","0","0","48649","","null","","","null","36","","","","","","","","","","","","","","","",""
"","ITI","","html-keyboard-response","238","287351","0.0-1.0-333.0","0","0","48649","","845","","","75","36","","","","","","","","","","","","","","","k",""
"","S1","","html-keyboard-response","239","287605","0.0-1.0-335.0","0","0","48649","","null","","","null","37","","","","","","","","","","","","","","","",""
"","ISI","","html-keyboard-response","240","288609","0.0-1.0-336.0","0","0","48649","","null","","","null","37","NaN","","","","","","","","","","","","","","",""
"","S2","","html-keyboard-response","241","288804","0.0-1.0-337.0","0","0","48649","","192","","","68","37","","d","1","37","training","adjacent","BC","2","3","O.jpg","M.jpg","0","1","0","",""
"","feedback","","html-keyboard-response","242","289808","0.0-1.0-339.0-0.0","0","0","48649","","null","","","null","37","","","","","","","","","","","","","","","",""
"","time_out","","html-keyboard-response","243","291812","0.0-1.0-341.0-0.0","0","0","48649","","null","","","null","37","","","","","","","","","","","","","","","",""
"","ITI","","html-keyboard-response","244","292816","0.0-1.0-342.0","0","0","48649","","181","","","75","37","","","","","","","","","","","","","","","k",""
"","S1","","html-keyboard-response","245","293070","0.0-1.0-344.0","0","0","48649","","null","","","null","38","","","","","","","","","","","","","","","",""
"","ISI","","html-keyboard-response","246","294073","0.0-1.0-345.0","0","0","48649","","null","","","null","38","NaN","","","","","","","","","","","","","","",""
"","S2","","html-keyboard-response","247","294327","0.0-1.0-346.0","0","0","48649","","null","","","null","38","","NaN","","","","","","","","","","","","","",""
"","response","","html-keyboard-response","248","294332","0.0-1.0-347.0-0.0","0","0","48649","","2","","","68","38","","","1","38","training","adjacent","DE","4","5","P.jpg","R.jpg","0","1","0","",""
"","feedback","","html-keyboard-response","249","295336","0.0-1.0-348.0-0.0","0","0","48649","","null","","","null","38","","","","","","","","","","","","","","","",""
"","time_out","","html-keyboard-response","250","297340","0.0-1.0-350.0-0.0","0","0","48649","","null","","","null","38","","","","","","","","","","","","","","","",""
"","ITI","","html-keyboard-response","251","298344","0.0-1.0-351.0","0","0","48649","","null","","","null","38","","","","","","","","","","","","","","","NaN",""
"","S1","","html-keyboard-response","252","298597","0.0-1.0-353.0","0","0","48649","","null","","","null","39","","","","","","","","","","","","","","","",""
"","ISI","","html-keyboard-response","253","299601","0.0-1.0-354.0","0","0","48649","","null","","","null","39","NaN","","","","","","","","","","","","","","",""
"","S2","","html-keyboard-response","254","299855","0.0-1.0-355.0","0","0","48649","","null","","","null","39","","NaN","","","","","","","","","","","","","",""
"","response","","html-keyboard-response","255","300004","0.0-1.0-356.0-0.0","0","0","48649","","146","","","75","39","","","1","39","training","adjacent","GF","7","6","L.jpg","N.jpg","1","0","0","",""
"","feedback","","html-keyboard-response","256","301008","0.0-1.0-357.0-0.0","0","0","48649","","null","","","null","39","","","","","","","","","","","","","","","",""
"","time_out","","html-keyboard-response","257","303012","0.0-1.0-359.0-0.0","0","0","48649","","null","","","null","39","","","","","","","","","","","","","","","",""
"","ITI","","html-keyboard-response","258","304016","0.0-1.0-360.0","0","0","48649","","null","","","null","39","","","","","","","","","","","","","","","NaN",""
"","S1","","html-keyboard-response","259","304270","0.0-1.0-362.0","0","0","48649","","null","","","null","40","","","","","","","","","","","","","","","",""
"","ISI","","html-keyboard-response","260","305274","0.0-1.0-363.0","0","0","48649","","931","","","68","40","d","","","","","","","","","","","","","","",""
"","S2","","html-keyboard-response","261","305529","0.0-1.0-364.0","0","0","48649","","null","","","null","40","","NaN","","","","","","","","","","","","","",""
"","response","","html-keyboard-response","262","305532","0.0-1.0-365.0-0.0","0","0","48649","","0","","","68","40","","","1","40","training","adjacent","CB","3","2","M.jpg","O.jpg","0","0","1","",""
"","feedback","","html-keyboard-response","263","306536","0.0-1.0-366.0-0.0","0","0","48649","","null","","","null","40","","","","","","","","","","","","","","","",""
"","ITI","","html-keyboard-response","264","307540","0.0-1.0-369.0","0","0","48649","","null","","","null","40","","","","","","","","","","","","","","","NaN",""
"","S1","","html-keyboard-response","265","307794","0.0-1.0-371.0","0","0","48649","","null","","","null","41","","","","","","","","","","","","","","","",""
"","ISI","","html-keyboard-response","266","308797","0.0-1.0-372.0","0","0","48649","","null","","","null","41","NaN","","","","","","","","","","","","","","",""
"","S2","","html-keyboard-response","267","308892","0.0-1.0-373.0","0","0","48649","","92","","","68","41","","d","1","41","training","adjacent","EF","5","6","R.jpg","N.jpg","0","1","0","",""
"","feedback","","html-keyboard-response","268","309896","0.0-1.0-375.0-0.0","0","0","48649","","null","","","null","41","","","","","","","","","","","","","","","",""
"","time_out","","html-keyboard-response","269","311899","0.0-1.0-377.0-0.0","0","0","48649","","null","","","null","41","","","","","","","","","","","","","","","",""
"","ITI","","html-keyboard-response","270","312902","0.0-1.0-378.0","0","0","48649","","null","","","null","41","","","","","","","","","","","","","","","NaN",""
"","S1","","html-keyboard-response","271","313156","0.0-1.0-380.0","0","0","48649","","null","","","null","42","","","","","","","","","","","","","","","",""
"","ISI","","html-keyboard-response","272","314159","0.0-1.0-381.0","0","0","48649","","null","","","null","42","NaN","","","","","","","","","","","","","","",""
"","S2","","html-keyboard-response","273","314412","0.0-1.0-382.0","0","0","48649","","null","","","null","42","","NaN","","","","","","","","","","","","","",""
"","response","","html-keyboard-response","274","314460","0.0-1.0-383.0-0.0","0","0","48649","","45","","","75","42","","","1","42","training","adjacent","FG","6","7","N.jpg","L.jpg","1","1","1","",""
"","feedback","","html-keyboard-response","275","315464","0.0-1.0-384.0-0.0","0","0","48649","","null","","","null","42","","","","","","","","","","","","","","","",""
"","ITI","","html-keyboard-response","276","316467","0.0-1.0-387.0","0","0","48649","","null","","","null","42","","","","","","","","","","","","","","","NaN",""
"","S1","","html-keyboard-response","277","316721","0.0-1.0-389.0","0","0","48649","","null","","","null","43","","","","","","","","","","","","","","","",""
"","ISI","","html-keyboard-response","278","317724","0.0-1.0-390.0","0","0","48649","","null","","","null","43","NaN","","","","","","","","","","","","","","",""
"","S2","","html-keyboard-response","279","317979","0.0-1.0-391.0","0","0","48649","","null","","","null","43","","NaN","","","","","","","","","","","","","",""
"","response","","html-keyboard-response","280","318780","0.0-1.0-392.0-0.0","0","0","48649","","799","","","75","43","","","1","43","training","adjacent","CD","3","4","M.jpg","P.jpg","1","1","1","",""
"","feedback","","html-keyboard-response","281","319784","0.0-1.0-393.0-0.0","0","0","48649","","null","","","null","43","","","","","","","","","","","","","","","",""
"","ITI","","html-keyboard-response","282","320788","0.0-1.0-396.0","0","0","48649","","null","","","null","43","","","","","","","","","","","","","","","NaN",""
"","S1","","html-keyboard-response","283","321042","0.0-1.0-398.0","0","0","48649","","null","","","null","44","","","","","","","","","","","","","","","",""
"","ISI","","html-keyboard-response","284","322045","0.0-1.0-399.0","0","0","48649","","null","","","null","44","NaN","","","","","","","","","","","","","","",""
"","S2","","html-keyboard-response","285","322298","0.0-1.0-400.0","0","0","48649","","null","","","null","44","","NaN","","","","","","","","","","","","","",""
"","response","","html-keyboard-response","286","322732","0.0-1.0-401.0-0.0","0","0","48649","","431","","","75","44","","","1","44","training","adjacent","FE","6","5","N.jpg","R.jpg","1","0","0","",""
"","feedback","","html-keyboard-response","287","323736","0.0-1.0-402.0-0.0","0","0","48649","","null","","","null","44","","","","","","","","","","","","","","","",""
"","time_out","","html-keyboard-response","288","325739","0.0-1.0-404.0-0.0","0","0","48649","","null","","","null","44","","","","","","","","","","","","","","","",""
"","ITI","","html-keyboard-response","289","326743","0.0-1.0-405.0","0","0","48649","","null","","","null","44","","","","","","","","","","","","","","","NaN",""
"","S1","","html-keyboard-response","290","326996","0.0-1.0-407.0","0","0","48649","","null","","","null","45","","","","","","","","","","","","","","","",""
"","ISI","","html-keyboard-response","291","327999","0.0-1.0-408.0","0","0","48649","","989","","","68","45","d","","","","","","","","","","","","","","",""
"","S2","","html-keyboard-response","292","328253","0.0-1.0-409.0","0","0","48649","","null","","","null","45","","NaN","","","","","","","","","","","","","",""
"","response","","html-keyboard-response","293","328348","0.0-1.0-410.0-0.0","0","0","48649","","93","","","68","45","","","1","45","training","adjacent","DC","4","3","P.jpg","M.jpg","0","0","1","",""
"","feedback","","html-keyboard-response","294","329351","0.0-1.0-411.0-0.0","0","0","48649","","null","","","null","45","","","","","","","","","","","","","","","",""
"","ITI","","html-keyboard-response","295","330370","0.0-1.0-414.0","0","0","48649","","null","","","null","45","","","","","","","","","","","","","","","NaN",""
"","S1","","html-keyboard-response","296","330624","0.0-1.0-416.0","0","0","48649","","null","","","null","46","","","","","","","","","","","","","","","",""
"","ISI","","html-keyboard-response","297","331627","0.0-1.0-417.0","0","0","48649","","null","","","null","46","NaN","","","","","","","","","","","","","","",""
"","S2","","html-keyboard-response","298","331880","0.0-1.0-418.0","0","0","48649","","null","","","null","46","","NaN","","","","","","","","","","","","","",""
"","response","","html-keyboard-response","299","332484","0.0-1.0-419.0-0.0","0","0","48649","","601","","","75","46","","","1","46","training","adjacent","FG","6","7","N.jpg","L.jpg","1","1","1","",""
"","feedback","","html-keyboard-response","300","333487","0.0-1.0-420.0-0.0","0","0","48649","","null","","","null","46","","","","","","","","","","","","","","","",""
"","ITI","","html-keyboard-response","301","334490","0.0-1.0-423.0","0","0","48649","","null","","","null","46","","","","","","","","","","","","","","","NaN",""
"","S1","","html-keyboard-response","302","334744","0.0-1.0-425.0","0","0","48649","","null","","","null","47","","","","","","","","","","","","","","","",""
"","ISI","","html-keyboard-response","303","335747","0.0-1.0-426.0","0","0","48649","","null","","","null","47","NaN","","","","","","","","","","","","","","",""
"","S2","","html-keyboard-response","304","335804","0.0-1.0-427.0","0","0","48649","","54","","","75","47","","k","1","47","training","adjacent","ED","5","4","R.jpg","P.jpg","1","0","0","",""
"","feedback","","html-keyboard-response","305","336808","0.0-1.0-429.0-0.0","0","0","48649","","null","","","null","47","","","","","","","","","","","","","","","",""
"","time_out","","html-keyboard-response","306","338811","0.0-1.0-431.0-0.0","0","0","48649","","null","","","null","47","","","","","","","","","","","","","","","",""
"","ITI","","html-keyboard-response","307","339815","0.0-1.0-432.0","0","0","48649","","662","","","68","47","","","","","","","","","","","","","","","d",""
"","block_over","","html-keyboard-response","308","345332","0.0-1.0-433.0-0.0","0","0","48649","","5513","","","32","47","","","","","","","","","","","","","","","",""
"","S1","","html-keyboard-response","309","345586","0.0-1.0-434.0","0","0","48649","","null","","","null","48","","","","","","","","","","","","","","","",""
"","ISI","","html-keyboard-response","310","346589","0.0-1.0-435.0","0","0","48649","","null","","","null","48","NaN","","","","","","","","","","","","","","",""
"","S2","","html-keyboard-response","311","346843","0.0-1.0-436.0","0","0","48649","","null","","","null","48","","NaN","","","","","","","","","","","","","",""
"","response","","html-keyboard-response","312","347460","0.0-1.0-437.0-0.0","0","0","48649","","614","","","68","48","","","2","48","training","adjacent","DC","4","3","P.jpg","M.jpg","0","0","1","",""
"","feedback","","html-keyboard-response","313","348464","0.0-1.0-438.0-0.0","0","0","48649","","null","","","null","48","","","","","","","","","","","","","","","",""
"","ITI","","html-keyboard-response","314","349467","0.0-1.0-441.0","0","0","48649","","null","","","null","48","","","","","","","","","","","","","","","NaN",""
"","S1","","html-keyboard-response","315","349720","0.0-1.0-443.0","0","0","48649","","null","","","null","49","","","","","","","","","","","","","","","",""
"","ISI","","html-keyboard-response","316","350723","0.0-1.0-444.0","0","0","48649","","null","","","null","49","NaN","","","","","","","","","","","","","","",""
"","S2","","html-keyboard-response","317","350977","0.0-1.0-445.0","0","0","48649","","null","","","null","49","","NaN","","","","","","","","","","","","","",""
"","response","","html-keyboard-response","318","351388","0.0-1.0-446.0-0.0","0","0","48649","","409","","","68","49","","","2","49","training","adjacent","DE","4","5","P.jpg","R.jpg","0","1","0","",""
"","feedback","","html-keyboard-response","319","352394","0.0-1.0-447.0-0.0","0","0","48649","","null","","","null","49","","","","","","","","","","","","","","","",""
"","time_out","","html-keyboard-response","320","354398","0.0-1.0-449.0-0.0","0","0","48649","","null","","","null","49","","","","","","","","","","","","","","","",""
"","ITI","","html-keyboard-response","321","355401","0.0-1.0-450.0","0","0","48649","","null","","","null","49","","","","","","","","","","","","","","","NaN",""
"","S1","","html-keyboard-response","322","355656","0.0-1.0-452.0","0","0","48649","","null","","","null","50","","","","","","","","","","","","","","","",""
"","ISI","","html-keyboard-response","323","356659","0.0-1.0-453.0","0","0","48649","","null","","","null","50","NaN","","","","","","","","","","","","","","",""
"","S2","","html-keyboard-response","324","356913","0.0-1.0-454.0","0","0","48649","","null","","","null","50","","NaN","","","","","","","","","","","","","",""
"","response","","html-keyboard-response","325","357411","0.0-1.0-455.0-0.0","0","0","48649","","496","","","68","50","","","2","50","training","adjacent","AB","1","2","Q.jpg","O.jpg","0","1","0","",""
"","feedback","","html-keyboard-response","326","358416","0.0-1.0-456.0-0.0","0","0","48649","","null","","","null","50","","","","","","","","","","","","","","","",""
"","time_out","","html-keyboard-response","327","360420","0.0-1.0-458.0-0.0","0","0","48649","","null","","","null","50","","","","","","","","","","","","","","","",""
"","ITI","","html-keyboard-response","328","361423","0.0-1.0-459.0","0","0","48649","","null","","","null","50","","","","","","","","","","","","","","","NaN",""
"","S1","","html-keyboard-response","329","361678","0.0-1.0-461.0","0","0","48649","","null","","","null","51","","","","","","","","","","","","","","","",""
"","ISI","","html-keyboard-response","330","362681","0.0-1.0-462.0","0","0","48649","","null","","","null","51","NaN","","","","","","","","","","","","","","",""
"","S2","","html-keyboard-response","331","362935","0.0-1.0-463.0","0","0","48649","","null","","","null","51","","NaN","","","","","","","","","","","","","",""
"","response","","html-keyboard-response","332","363236","0.0-1.0-464.0-0.0","0","0","48649","","297","","","75","51","","","2","51","training","adjacent","FE","6","5","N.jpg","R.jpg","1","0","0","",""
"","feedback","","html-keyboard-response","333","364239","0.0-1.0-465.0-0.0","0","0","48649","","null","","","null","51","","","","","","","","","","","","","","","",""
"","time_out","","html-keyboard-response","334","366243","0.0-1.0-467.0-0.0","0","0","48649","","null","","","null","51","","","","","","","","","","","","","","","",""
"","ITI","","html-keyboard-response","335","367247","0.0-1.0-468.0","0","0","48649","","null","","","null","51","","","","","","","","","","","","","","","NaN",""
"","S1","","html-keyboard-response","336","367500","0.0-1.0-470.0","0","0","48649","","null","","","null","52","","","","","","","","","","","","","","","",""
"","ISI","","html-keyboard-response","337","368504","0.0-1.0-471.0","0","0","48649","","null","","","null","52","NaN","","","","","","","","","","","","","","",""
"","S2","","html-keyboard-response","338","368758","0.0-1.0-472.0","0","0","48649","","null","","","null","52","","NaN","","","","","","","","","","","","","",""
"","response","","html-keyboard-response","339","368883","0.0-1.0-473.0-0.0","0","0","48649","","122","","","75","52","","","2","52","training","adjacent","CD","3","4","M.jpg","P.jpg","1","1","1","",""
"","feedback","","html-keyboard-response","340","369888","0.0-1.0-474.0-0.0","0","0","48649","","null","","","null","52","","","","","","","","","","","","","","","",""
"","ITI","","html-keyboard-response","341","370892","0.0-1.0-477.0","0","0","48649","","null","","","null","52","","","","","","","","","","","","","","","NaN",""
"","S1","","html-keyboard-response","342","371145","0.0-1.0-479.0","0","0","48649","","null","","","null","53","","","","","","","","","","","","","","","",""
"","ISI","","html-keyboard-response","343","372148","0.0-1.0-480.0","0","0","48649","","null","","","null","53","NaN","","","","","","","","","","","","","","",""
"","S2","","html-keyboard-response","344","372387","0.0-1.0-481.0","0","0","48649","","236","","","75","53","","k","2","53","training","adjacent","EF","5","6","R.jpg","N.jpg","1","1","1","",""
"","feedback","","html-keyboard-response","345","373391","0.0-1.0-483.0-0.0","0","0","48649","","null","","","null","53","","","","","","","","","","","","","","","",""
"","ITI","","html-keyboard-response","346","374395","0.0-1.0-486.0","0","0","48649","","null","","","null","53","","","","","","","","","","","","","","","NaN",""
"","S1","","html-keyboard-response","347","374649","0.0-1.0-488.0","0","0","48649","","null","","","null","54","","","","","","","","","","","","","","","",""
"","ISI","","html-keyboard-response","348","375652","0.0-1.0-489.0","0","0","48649","","null","","","null","54","NaN","","","","","","","","","","","","","","",""
"","S2","","html-keyboard-response","349","375906","0.0-1.0-490.0","0","0","48649","","null","","","null","54","","NaN","","","","","","","","","","","","","",""
"","response","","html-keyboard-response","350","376019","0.0-1.0-491.0-0.0","0","0","48649","","111","","","68","54","","","2","54","training","adjacent","ED","5","4","R.jpg","P.jpg","0","0","1","",""
"","feedback","","html-keyboard-response","351","377023","0.0-1.0-492.0-0.0","0","0","48649","","null","","","null","54","","","","","","","","","","","","","","","",""
"","ITI","","html-keyboard-response","352","378028","0.0-1.0-495.0","0","0","48649","","null","","","null","54","","","","","","","","","","","","","","","NaN",""
"","S1","","html-keyboard-response","353","378282","0.0-1.0-497.0","0","0","48649","","null","","","null","55","","","","","","","","","","","","","","","",""
"","ISI","","html-keyboard-response","354","379286","0.0-1.0-498.0","0","0","48649","","null","","","null","55","NaN","","","","","","","","","","","","","","",""
"","S2","","html-keyboard-response","355","379539","0.0-1.0-499.0","0","0","48649","","null","","","null","55","","NaN","","","","","","","","","","","","","",""
"","response","","html-keyboard-response","356","379932","0.0-1.0-500.0-0.0","0","0","48649","","388","","","68","55","","","2","55","training","adjacent","BC","2","3","O.jpg","M.jpg","0","1","0","",""
"","feedback","","html-keyboard-response","357","380937","0.0-1.0-501.0-0.0","0","0","48649","","null","","","null","55","","","","","","","","","","","","","","","",""
"","time_out","","html-keyboard-response","358","382940","0.0-1.0-503.0-0.0","0","0","48649","","null","","","null","55","","","","","","","","","","","","","","","",""
"","ITI","","html-keyboard-response","359","383944","0.0-1.0-504.0","0","0","48649","","null","","","null","55","","","","","","","","","","","","","","","NaN",""
"","S1","","html-keyboard-response","360","384197","0.0-1.0-506.0","0","0","48649","","null","","","null","56","","","","","","","","","","","","","","","",""
"","ISI","","html-keyboard-response","361","385200","0.0-1.0-507.0","0","0","48649","","null","","","null","56","NaN","","","","","","","","","","","","","","",""
"","S2","","html-keyboard-response","362","385454","0.0-1.0-508.0","0","0","48649","","null","","","null","56","","NaN","","","","","","","","","","","","","",""
"","response","","html-keyboard-response","363","385779","0.0-1.0-509.0-0.0","0","0","48649","","322","","","68","56","","","2","56","training","adjacent","CD","3","4","M.jpg","P.jpg","0","1","0","",""
"","feedback","","html-keyboard-response","364","386783","0.0-1.0-510.0-0.0","0","0","48649","","null","","","null","56","","","","","","","","","","","","","","","",""
"","time_out","","html-keyboard-response","365","388787","0.0-1.0-512.0-0.0","0","0","48649","","null","","","null","56","","","","","","","","","","","","","","","",""
"","ITI","","html-keyboard-response","366","389791","0.0-1.0-513.0","0","0","48649","","null","","","null","56","","","","","","","","","","","","","","","NaN",""
"","S1","","html-keyboard-response","367","390045","0.0-1.0-515.0","0","0","48649","","null","","","null","57","","","","","","","","","","","","","","","",""
"","ISI","","html-keyboard-response","368","391047","0.0-1.0-516.0","0","0","48649","","null","","","null","57","NaN","","","","","","","","","","","","","","",""
"","S2","","html-keyboard-response","369","391301","0.0-1.0-517.0","0","0","48649","","null","","","null","57","","NaN","","","","","","","","","","","","","",""
"","response","","html-keyboard-response","370","391467","0.0-1.0-518.0-0.0","0","0","48649","","163","","","68","57","","","2","57","training","adjacent","AB","1","2","Q.jpg","O.jpg","0","1","0","",""
"","feedback","","html-keyboard-response","371","392471","0.0-1.0-519.0-0.0","0","0","48649","","null","","","null","57","","","","","","","","","","","","","","","",""
"","time_out","","html-keyboard-response","372","394476","0.0-1.0-521.0-0.0","0","0","48649","","null","","","null","57","","","","","","","","","","","","","","","",""
"","ITI","","html-keyboard-response","373","395480","0.0-1.0-522.0","0","0","48649","","null","","","null","57","","","","","","","","","","","","","","","NaN",""
"","S1","","html-keyboard-response","374","395735","0.0-1.0-524.0","0","0","48649","","null","","","null","58","","","","","","","","","","","","","","","",""
"","ISI","","html-keyboard-response","375","396738","0.0-1.0-525.0","0","0","48649","","null","","","null","58","NaN","","","","","","","","","","","","","","",""
"","S2","","html-keyboard-response","376","396992","0.0-1.0-526.0","0","0","48649","","null","","","null","58","","NaN","","","","","","","","","","","","","",""
"","response","","html-keyboard-response","377","397115","0.0-1.0-527.0-0.0","0","0","48649","","120","","","75","58","","","2","58","training","adjacent","CD","3","4","M.jpg","P.jpg","1","1","1","",""
"","feedback","","html-keyboard-response","378","398120","0.0-1.0-528.0-0.0","0","0","48649","","null","","","null","58","","","","","","","","","","","","","","","",""
"","ITI","","html-keyboard-response","379","399123","0.0-1.0-531.0","0","0","48649","","null","","","null","58","","","","","","","","","","","","","","","NaN",""
"","S1","","html-keyboard-response","380","399377","0.0-1.0-533.0","0","0","48649","","null","","","null","59","","","","","","","","","","","","","","","",""
"","ISI","","html-keyboard-response","381","400381","0.0-1.0-534.0","0","0","48649","","null","","","null","59","NaN","","","","","","","","","","","","","","",""
"","S2","","html-keyboard-response","382","400635","0.0-1.0-535.0","0","0","48649","","null","","","null","59","","NaN","","","","","","","","","","","","","",""
"","response","","html-keyboard-response","383","401564","0.0-1.0-536.0-0.0","0","0","48649","","925","","","75","59","","","2","59","training","adjacent","DC","4","3","P.jpg","M.jpg","1","0","0","",""
"","feedback","","html-keyboard-response","384","402567","0.0-1.0-537.0-0.0","0","0","48649","","null","","","null","59","","","","","","","","","","","","","","","",""
"","time_out","","html-keyboard-response","385","404571","0.0-1.0-539.0-0.0","0","0","48649","","null","","","null","59","","","","","","","","","","","","","","","",""
"","ITI","","html-keyboard-response","386","405574","0.0-1.0-540.0","0","0","48649","","null","","","null","59","","","","","","","","","","","","","","","NaN",""
"","S1","","html-keyboard-response","387","405827","0.0-1.0-542.0","0","0","48649","","null","","","null","60","","","","","","","","","","","","","","","",""
"","ISI","","html-keyboard-response","388","406830","0.0-1.0-543.0","0","0","48649","","null","","","null","60","NaN","","","","","","","","","","","","","","",""
"","S2","","html-keyboard-response","389","407084","0.0-1.0-544.0","0","0","48649","","null","","","null","60","","NaN","","","","","","","","","","","","","",""
"","response","","html-keyboard-response","390","407772","0.0-1.0-545.0-0.0","0","0","48649","","685","","","68","60","","","2","60","training","adjacent","DE","4","5","P.jpg","R.jpg","0","1","0","",""
"","feedback","","html-keyboard-response","391","408776","0.0-1.0-546.0-0.0","0","0","48649","","null","","","null","60","","","","","","","","","","","","","","","",""
"","time_out","","html-keyboard-response","392","410779","0.0-1.0-548.0-0.0","0","0","48649","","null","","","null","60","","","","","","","","","","","","","","","",""
"","ITI","","html-keyboard-response","393","411783","0.0-1.0-549.0","0","0","48649","","null","","","null","60","","","","","","","","","","","","","","","NaN",""
"","S1","","html-keyboard-response","394","412036","0.0-1.0-551.0","0","0","48649","","null","","","null","61","","","","","","","","","","","","","","","",""
"","ISI","","html-keyboard-response","395","413039","0.0-1.0-552.0","0","0","48649","","540","","","75","61","k","","","","","","","","","","","","","","",""
"","S2","","html-keyboard-response","396","413294","0.0-1.0-553.0","0","0","48649","","null","","","null","61","","NaN","","","","","","","","","","","","","",""
"","response","","html-keyboard-response","397","414659","0.0-1.0-554.0-0.0","0","0","48649","","1362","","","68","61","","","2","61","training","adjacent","FE","6","5","N.jpg","R.jpg","0","0","1","",""
"","feedback","","html-keyboard-response","398","415663","0.0-1.0-555.0-0.0","0","0","48649","","null","","","null","61","","","","","","","","","","","","","","","",""
"","ITI","","html-keyboard-response","399","416666","0.0-1.0-558.0","0","0","48649","","null","","","null","61","","","","","","","","","","","","","","","NaN",""
"","S1","","html-keyboard-response","400","416920","0.0-1.0-560.0","0","0","48649","","null","","","null","62","","","","","","","","","","","","","","","",""
"","ISI","","html-keyboard-response","401","417923","0.0-1.0-561.0","0","0","48649","","null","","","null","62","NaN","","","","","","","","","","","","","","",""
"","S2","","html-keyboard-response","402","418177","0.0-1.0-562.0","0","0","48649","","null","","","null","62","","NaN","","","","","","","","","","","","","",""
"","response","","html-keyboard-response","403","418275","0.0-1.0-563.0-0.0","0","0","48649","","95","","","68","62","","","2","62","training","adjacent","CB","3","2","M.jpg","O.jpg","0","0","1","",""
"","feedback","","html-keyboard-response","404","419279","0.0-1.0-564.0-0.0","0","0","48649","","null","","","null","62","","","","","","","","","","","","","","","",""
"","ITI","","html-keyboard-response","405","420283","0.0-1.0-567.0","0","0","48649","","null","","","null","62","","","","","","","","","","","","","","","NaN",""
"","S1","","html-keyboard-response","406","420538","0.0-1.0-569.0","0","0","48649","","null","","","null","63","","","","","","","","","","","","","","","",""
"","ISI","","html-keyboard-response","407","421542","0.0-1.0-570.0","0","0","48649","","null","","","null","63","NaN","","","","","","","","","","","","","","",""
"","S2","","html-keyboard-response","408","421796","0.0-1.0-571.0","0","0","48649","","null","","","null","63","","NaN","","","","","","","","","","","","","",""
"","response","","html-keyboard-response","409","422028","0.0-1.0-572.0-0.0","0","0","48649","","228","","","75","63","","","2","63","training","adjacent","BC","2","3","O.jpg","M.jpg","1","1","1","",""
"","feedback","","html-keyboard-response","410","423031","0.0-1.0-573.0-0.0","0","0","48649","","null","","","null","63","","","","","","","","","","","","","","","",""
"","ITI","","html-keyboard-response","411","424034","0.0-1.0-576.0","0","0","48649","","null","","","null","63","","","","","","","","","","","","","","","NaN",""
"","S1","","html-keyboard-response","412","424288","0.0-1.0-578.0","0","0","48649","","null","","","null","64","","","","","","","","","","","","","","","",""
"","ISI","","html-keyboard-response","413","425292","0.0-1.0-579.0","0","0","48649","","null","","","null","64","NaN","","","","","","","","","","","","","","",""
"","S2","","html-keyboard-response","414","425452","0.0-1.0-580.0","0","0","48649","","157","","","75","64","","k","2","64","training","adjacent","BA","2","1","O.jpg","Q.jpg","1","0","0","",""
"","feedback","","html-keyboard-response","415","426456","0.0-1.0-582.0-0.0","0","0","48649","","null","","","null","64","","","","","","","","","","","","","","","",""
"","time_out","","html-keyboard-response","416","428460","0.0-1.0-584.0-0.0","0","0","48649","","null","","","null","64","","","","","","","","","","","","","","","",""
"","ITI","","html-keyboard-response","417","429463","0.0-1.0-585.0","0","0","48649","","null","","","null","64","","","","","","","","","","","","","","","NaN",""
"","S1","","html-keyboard-response","418","429717","0.0-1.0-587.0","0","0","48649","","null","","","null","65","","","","","","","","","","","","","","","",""
"","ISI","","html-keyboard-response","419","430719","0.0-1.0-588.0","0","0","48649","","108","","","68","65","d","","","","","","","","","","","","","","",""
"","S2","","html-keyboard-response","420","430947","0.0-1.0-589.0","0","0","48649","","225","","","75","65","","k","2","65","training","adjacent","FG","6","7","N.jpg","L.jpg","1","1","1","",""
"","feedback","","html-keyboard-response","421","431951","0.0-1.0-591.0-0.0","0","0","48649","","null","","","null","65","","","","","","","","","","","","","","","",""
"","ITI","","html-keyboard-response","422","432955","0.0-1.0-594.0","0","0","48649","","null","","","null","65","","","","","","","","","","","","","","","NaN",""
"","S1","","html-keyboard-response","423","433209","0.0-1.0-596.0","0","0","48649","","null","","","null","66","","","","","","","","","","","","","","","",""
"","ISI","","html-keyboard-response","424","434212","0.0-1.0-597.0","0","0","48649","","null","","","null","66","NaN","","","","","","","","","","","","","","",""
"","S2","","html-keyboard-response","425","434465","0.0-1.0-598.0","0","0","48649","","null","","","null","66","","NaN","","","","","","","","","","","","","",""
"","response","","html-keyboard-response","426","434515","0.0-1.0-599.0-0.0","0","0","48649","","47","","","75","66","","","2","66","training","adjacent","FE","6","5","N.jpg","R.jpg","1","0","0","",""
"","feedback","","html-keyboard-response","427","435520","0.0-1.0-600.0-0.0","0","0","48649","","null","","","null","66","","","","","","","","","","","","","","","",""
"","time_out","","html-keyboard-response","428","437524","0.0-1.0-602.0-0.0","0","0","48649","","null","","","null","66","","","","","","","","","","","","","","","",""
"","ITI","","html-keyboard-response","429","438527","0.0-1.0-603.0","0","0","48649","","null","","","null","66","","","","","","","","","","","","","","","NaN",""
"","S1","","html-keyboard-response","430","438781","0.0-1.0-605.0","0","0","48649","","null","","","null","67","","","","","","","","","","","","","","","",""
"","ISI","","html-keyboard-response","431","439785","0.0-1.0-606.0","0","0","48649","","268","","","75","67","k","","","","","","","","","","","","","","",""
"","S2","","html-keyboard-response","432","439884","0.0-1.0-607.0","0","0","48649","","95","","","75","67","","k","2","67","training","adjacent","FE","6","5","N.jpg","R.jpg","1","0","0","",""
"","feedback","","html-keyboard-response","433","440888","0.0-1.0-609.0-0.0","0","0","48649","","null","","","null","67","","","","","","","","","","","","","","","",""
"","time_out","","html-keyboard-response","434","442892","0.0-1.0-611.0-0.0","0","0","48649","","null","","","null","67","","","","","","","","","","","","","","","",""
"","ITI","","html-keyboard-response","435","443898","0.0-1.0-612.0","0","0","48649","","null","","","null","67","","","","","","","","","","","","","","","NaN",""
"","S1","","html-keyboard-response","436","444151","0.0-1.0-614.0","0","0","48649","","null","","","null","68","","","","","","","","","","","","","","","",""
"","ISI","","html-keyboard-response","437","445154","0.0-1.0-615.0","0","0","48649","","null","","","null","68","NaN","","","","","","","","","","","","","","",""
"","S2","","html-keyboard-response","438","445292","0.0-1.0-616.0","0","0","48649","","134","","","68","68","","d","2","68","training","adjacent","EF","5","6","R.jpg","N.jpg","0","1","0","",""
"","feedback","","html-keyboard-response","439","446296","0.0-1.0-618.0-0.0","0","0","48649","","null","","","null","68","","","","","","","","","","","","","","","",""
"","time_out","","html-keyboard-response","440","448299","0.0-1.0-620.0-0.0","0","0","48649","","null","","","null","68","","","","","","","","","","","","","","","",""
"","ITI","","html-keyboard-response","441","449302","0.0-1.0-621.0","0","0","48649","","null","","","null","68","","","","","","","","","","","","","","","NaN",""
"","S1","","html-keyboard-response","442","449556","0.0-1.0-623.0","0","0","48649","","null","","","null","69","","","","","","","","","","","","","","","",""
"","ISI","","html-keyboard-response","443","450559","0.0-1.0-624.0","0","0","48649","","null","","","null","69","NaN","","","","","","","","","","","","","","",""
"","S2","","html-keyboard-response","444","450814","0.0-1.0-625.0","0","0","48649","","null","","","null","69","","NaN","","","","","","","","","","","","","",""
"","response","","html-keyboard-response","445","451636","0.0-1.0-626.0-0.0","0","0","48649","","820","","","75","69","","","2","69","training","adjacent","BA","2","1","O.jpg","Q.jpg","1","0","0","",""
"","feedback","","html-keyboard-response","446","452640","0.0-1.0-627.0-0.0","0","0","48649","","null","","","null","69","","","","","","","","","","","","","","","",""
"","time_out","","html-keyboard-response","447","454644","0.0-1.0-629.0-0.0","0","0","48649","","null","","","null","69","","","","","","","","","","","","","","","",""
"","ITI","","html-keyboard-response","448","455648","0.0-1.0-630.0","0","0","48649","","null","","","null","69","","","","","","","","","","","","","","","NaN",""
"","S1","","html-keyboard-response","449","455902","0.0-1.0-632.0","0","0","48649","","null","","","null","70","","","","","","","","","","","","","","","",""
"","ISI","","html-keyboard-response","450","456906","0.0-1.0-633.0","0","0","48649","","null","","","null","70","NaN","","","","","","","","","","","","","","",""
"","S2","","html-keyboard-response","451","457159","0.0-1.0-634.0","0","0","48649","","null","","","null","70","","NaN","","","","","","","","","","","","","",""
"","response","","html-keyboard-response","452","457643","0.0-1.0-635.0-0.0","0","0","48649","","481","","","68","70","","","2","70","training","adjacent","CB","3","2","M.jpg","O.jpg","0","0","1","",""
"","feedback","","html-keyboard-response","453","458647","0.0-1.0-636.0-0.0","0","0","48649","","null","","","null","70","","","","","","","","","","","","","","","",""
"","ITI","","html-keyboard-response","454","459651","0.0-1.0-639.0","0","0","48649","","null","","","null","70","","","","","","","","","","","","","","","NaN",""
"","S1","","html-keyboard-response","455","459905","0.0-1.0-641.0","0","0","48649","","null","","","null","71","","","","","","","","","","","","","","","",""
"","ISI","","html-keyboard-response","456","460907","0.0-1.0-642.0","0","0","48649","","null","","","null","71","NaN","","","","","","","","","","","","","","",""
"","S2","","html-keyboard-response","457","461161","0.0-1.0-643.0","0","0","48649","","null","","","null","71","","NaN","","","","","","","","","","","","","",""
"","response","","html-keyboard-response","458","462915","0.0-1.0-644.0-0.0","0","0","48649","","null","","","null","71","","","2","71","training","adjacent","BC","2","3","O.jpg","M.jpg","NaN","1","0","",""
"","too_slow_prompt","","html-keyboard-response","459","463919","0.0-1.0-646.0-0.0","1","0","48649","","null","","","null","","","","","","","","","","","","","","","","",""
"","time_out","","html-keyboard-response","460","465922","0.0-1.0-647.0-0.0","0","0","48649","","null","","","null","71","","","","","","","","","","","","","","","",""
"","ITI","","html-keyboard-response","461","466925","0.0-1.0-648.0","0","0","48649","","null","","","null","71","","","","","","","","","","","","","","","NaN",""
"","S1","","html-keyboard-response","462","467179","0.0-1.0-650.0","0","0","48649","","null","","","null","72","","","","","","","","","","","","","","","",""
"","ISI","","html-keyboard-response","463","468182","0.0-1.0-651.0","0","0","48649","","null","","","null","72","NaN","","","","","","","","","","","","","","",""
"","S2","","html-keyboard-response","464","468437","0.0-1.0-652.0","0","0","48649","","null","","","null","72","","NaN","","","","","","","","","","","","","",""
"","response","","html-keyboard-response","465","468507","0.0-1.0-653.0-0.0","0","0","48649","","67","","","68","72","","","2","72","training","adjacent","CB","3","2","M.jpg","O.jpg","0","0","1","",""
"","feedback","","html-keyboard-response","466","469511","0.0-1.0-654.0-0.0","0","0","48649","","null","","","null","72","","","","","","","","","","","","","","","",""
"","ITI","","html-keyboard-response","467","470515","0.0-1.0-657.0","0","0","48649","","null","","","null","72","","","","","","","","","","","","","","","NaN",""
"","S1","","html-keyboard-response","468","470769","0.0-1.0-659.0","0","0","48649","","null","","","null","73","","","","","","","","","","","","","","","",""
"","ISI","","html-keyboard-response","469","471772","0.0-1.0-660.0","0","0","48649","","null","","","null","73","NaN","","","","","","","","","","","","","","",""
"","S2","","html-keyboard-response","470","472026","0.0-1.0-661.0","0","0","48649","","null","","","null","73","","NaN","","","","","","","","","","","","","",""
"","response","","html-keyboard-response","471","472403","0.0-1.0-662.0-0.0","0","0","48649","","374","","","68","73","","","2","73","training","adjacent","DC","4","3","P.jpg","M.jpg","0","0","1","",""
"","feedback","","html-keyboard-response","472","473408","0.0-1.0-663.0-0.0","0","0","48649","","null","","","null","73","","","","","","","","","","","","","","","",""
"","ITI","","html-keyboard-response","473","474412","0.0-1.0-666.0","0","0","48649","","null","","","null","73","","","","","","","","","","","","","","","NaN",""
"","S1","","html-keyboard-response","474","474666","0.0-1.0-668.0","0","0","48649","","null","","","null","74","","","","","","","","","","","","","","","",""
"","ISI","","html-keyboard-response","475","475669","0.0-1.0-669.0","0","0","48649","","null","","","null","74","NaN","","","","","","","","","","","","","","",""
"","S2","","html-keyboard-response","476","475922","0.0-1.0-670.0","0","0","48649","","null","","","null","74","","NaN","","","","","","","","","","","","","",""
"","response","","html-keyboard-response","477","476292","0.0-1.0-671.0-0.0","0","0","48649","","367","","","68","74","","","2","74","training","adjacent","EF","5","6","R.jpg","N.jpg","0","1","0","",""
"","feedback","","html-keyboard-response","478","477296","0.0-1.0-672.0-0.0","0","0","48649","","null","","","null","74","","","","","","","","","","","","","","","",""
"","time_out","","html-keyboard-response","479","479299","0.0-1.0-674.0-0.0","0","0","48649","","null","","","null","74","","","","","","","","","","","","","","","",""
"","ITI","","html-keyboard-response","480","480303","0.0-1.0-675.0","0","0","48649","","null","","","null","74","","","","","","","","","","","","","","","NaN",""
"","S1","","html-keyboard-response","481","480557","0.0-1.0-677.0","0","0","48649","","null","","","null","75","","","","","","","","","","","","","","","",""
"","ISI","","html-keyboard-response","482","481560","0.0-1.0-678.0","0","0","48649","","null","","","null","75","NaN","","","","","","","","","","","","","","",""
"","S2","","html-keyboard-response","483","481811","0.0-1.0-679.0","0","0","48649","","248","","","75","75","","k","2","75","training","adjacent","DE","4","5","P.jpg","R.jpg","1","1","1","",""
"","feedback","","html-keyboard-response","484","482815","0.0-1.0-681.0-0.0","0","0","48649","","null","","","null","75","","","","","","","","","","","","","","","",""
"","ITI","","html-keyboard-response","485","483819","0.0-1.0-684.0","0","0","48649","","null","","","null","75","","","","","","","","","","","","","","","NaN",""
"","S1","","html-keyboard-response","486","484072","0.0-1.0-686.0","0","0","48649","","null","","","null","76","","","","","","","","","","","","","","","",""
"","ISI","","html-keyboard-response","487","485076","0.0-1.0-687.0","0","0","48649","","null","","","null","76","NaN","","","","","","","","","","","","","","",""
"","S2","","html-keyboard-response","488","485172","0.0-1.0-688.0","0","0","48649","","92","","","75","76","","k","2","76","training","adjacent","FG","6","7","N.jpg","L.jpg","1","1","1","",""
"","feedback","","html-keyboard-response","489","486175","0.0-1.0-690.0-0.0","0","0","48649","","null","","","null","76","","","","","","","","","","","","","","","",""
"","ITI","","html-keyboard-response","490","487179","0.0-1.0-693.0","0","0","48649","","null","","","null","76","","","","","","","","","","","","","","","NaN",""
"","S1","","html-keyboard-response","491","487433","0.0-1.0-695.0","0","0","48649","","null","","","null","77","","","","","","","","","","","","","","","",""
"","ISI","","html-keyboard-response","492","488437","0.0-1.0-696.0","0","0","48649","","null","","","null","77","NaN","","","","","","","","","","","","","","",""
"","S2","","html-keyboard-response","493","488692","0.0-1.0-697.0","0","0","48649","","null","","","null","77","","NaN","","","","","","","","","","","","","",""
"","response","","html-keyboard-response","494","490108","0.0-1.0-698.0-0.0","0","0","48649","","1413","","","68","77","","","2","77","training","adjacent","ED","5","4","R.jpg","P.jpg","0","0","1","",""
"","feedback","","html-keyboard-response","495","491111","0.0-1.0-699.0-0.0","0","0","48649","","null","","","null","77","","","","","","","","","","","","","","","",""
"","ITI","","html-keyboard-response","496","492116","0.0-1.0-702.0","0","0","48649","","null","","","null","77","","","","","","","","","","","","","","","NaN",""
"","S1","","html-keyboard-response","497","492369","0.0-1.0-704.0","0","0","48649","","null","","","null","78","","","","","","","","","","","","","","","",""
"","ISI","","html-keyboard-response","498","493373","0.0-1.0-705.0","0","0","48649","","null","","","null","78","NaN","","","","","","","","","","","","","","",""
"","S2","","html-keyboard-response","499","493627","0.0-1.0-706.0","0","0","48649","","null","","","null","78","","NaN","","","","","","","","","","","","","",""
"","response","","html-keyboard-response","500","493748","0.0-1.0-707.0-0.0","0","0","48649","","117","","","75","78","","","2","78","training","adjacent","CB","3","2","M.jpg","O.jpg","1","0","0","",""
"","feedback","","html-keyboard-response","501","494752","0.0-1.0-708.0-0.0","0","0","48649","","null","","","null","78","","","","","","","","","","","","","","","",""
"","time_out","","html-keyboard-response","502","496755","0.0-1.0-710.0-0.0","0","0","48649","","null","","","null","78","","","","","","","","","","","","","","","",""
"","ITI","","html-keyboard-response","503","497759","0.0-1.0-711.0","0","0","48649","","null","","","null","78","","","","","","","","","","","","","","","NaN",""
"","S1","","html-keyboard-response","504","498013","0.0-1.0-713.0","0","0","48649","","null","","","null","79","","","","","","","","","","","","","","","",""
"","ISI","","html-keyboard-response","505","499016","0.0-1.0-714.0","0","0","48649","","null","","","null","79","NaN","","","","","","","","","","","","","","",""
"","S2","","html-keyboard-response","506","499270","0.0-1.0-715.0","0","0","48649","","null","","","null","79","","NaN","","","","","","","","","","","","","",""
"","response","","html-keyboard-response","507","499275","0.0-1.0-716.0-0.0","0","0","48649","","2","","","75","79","","","2","79","training","adjacent","DE","4","5","P.jpg","R.jpg","1","1","1","",""
"","feedback","","html-keyboard-response","508","500279","0.0-1.0-717.0-0.0","0","0","48649","","null","","","null","79","","","","","","","","","","","","","","","",""
"","ITI","","html-keyboard-response","509","501290","0.0-1.0-720.0","0","0","48649","","null","","","null","79","","","","","","","","","","","","","","","NaN",""
"","S1","","html-keyboard-response","510","501543","0.0-1.0-722.0","0","0","48649","","null","","","null","80","","","","","","","","","","","","","","","",""
"","ISI","","html-keyboard-response","511","502547","0.0-1.0-723.0","0","0","48649","","null","","","null","80","NaN","","","","","","","","","","","","","","",""
"","S2","","html-keyboard-response","512","502801","0.0-1.0-724.0","0","0","48649","","null","","","null","80","","NaN","","","","","","","","","","","","","",""
"","response","","html-keyboard-response","513","503284","0.0-1.0-725.0-0.0","0","0","48649","","480","","","75","80","","","2","80","training","adjacent","BC","2","3","O.jpg","M.jpg","1","1","1","",""
"","feedback","","html-keyboard-response","514","504288","0.0-1.0-726.0-0.0","0","0","48649","","null","","","null","80","","","","","","","","","","","","","","","",""
"","ITI","","html-keyboard-response","515","505292","0.0-1.0-729.0","0","0","48649","","null","","","null","80","","","","","","","","","","","","","","","NaN",""
"","S1","","html-keyboard-response","516","505546","0.0-1.0-731.0","0","0","48649","","null","","","null","81","","","","","","","","","","","","","","","",""
"","ISI","","html-keyboard-response","517","506550","0.0-1.0-732.0","0","0","48649","","null","","","null","81","NaN","","","","","","","","","","","","","","",""
"","S2","","html-keyboard-response","518","506804","0.0-1.0-733.0","0","0","48649","","null","","","null","81","","NaN","","","","","","","","","","","","","",""
"","response","","html-keyboard-response","519","506979","0.0-1.0-734.0-0.0","0","0","48649","","172","","","68","81","","","2","81","training","adjacent","BA","2","1","O.jpg","Q.jpg","0","0","1","",""
"","feedback","","html-keyboard-response","520","507983","0.0-1.0-735.0-0.0","0","0","48649","","null","","","null","81","","","","","","","","","","","","","","","",""
"","ITI","","html-keyboard-response","521","508987","0.0-1.0-738.0","0","0","48649","","null","","","null","81","","","","","","","","","","","","","","","NaN",""
"","S1","","html-keyboard-response","522","509241","0.0-1.0-740.0","0","0","48649","","null","","","null","82","","","","","","","","","","","","","","","",""
"","ISI","","html-keyboard-response","523","510245","0.0-1.0-741.0","0","0","48649","","751","","","75","82","k","","","","","","","","","","","","","","",""
"","S2","","html-keyboard-response","524","510499","0.0-1.0-742.0","0","0","48649","","null","","","null","82","","NaN","","","","","","","","","","","","","",""
"","response","","html-keyboard-response","525","511475","0.0-1.0-743.0-0.0","0","0","48649","","973","","","68","82","","","2","82","training","adjacent","AB","1","2","Q.jpg","O.jpg","0","1","0","",""
"","feedback","","html-keyboard-response","526","512479","0.0-1.0-744.0-0.0","0","0","48649","","null","","","null","82","","","","","","","","","","","","","","","",""
"","time_out","","html-keyboard-response","527","514485","0.0-1.0-746.0-0.0","0","0","48649","","null","","","null","82","","","","","","","","","","","","","","","",""
"","ITI","","html-keyboard-response","528","515488","0.0-1.0-747.0","0","0","48649","","null","","","null","82","","","","","","","","","","","","","","","NaN",""
"","S1","","html-keyboard-response","529","515742","0.0-1.0-749.0","0","0","48649","","null","","","null","83","","","","","","","","","","","","","","","",""
"","ISI","","html-keyboard-response","530","516745","0.0-1.0-750.0","0","0","48649","","362","","","75","83","k","","","","","","","","","","","","","","",""
"","S2","","html-keyboard-response","531","516999","0.0-1.0-751.0","0","0","48649","","null","","","null","83","","NaN","","","","","","","","","","","","","",""
"","response","","html-keyboard-response","532","517179","0.0-1.0-752.0-0.0","0","0","48649","","177","","","75","83","","","2","83","training","adjacent","BA","2","1","O.jpg","Q.jpg","1","0","0","",""
"","feedback","","html-keyboard-response","533","518184","0.0-1.0-753.0-0.0","0","0","48649","","null","","","null","83","","","","","","","","","","","","","","","",""
"","time_out","","html-keyboard-response","534","520187","0.0-1.0-755.0-0.0","0","0","48649","","null","","","null","83","","","","","","","","","","","","","","","",""
"","ITI","","html-keyboard-response","535","521190","0.0-1.0-756.0","0","0","48649","","973","","","68","83","","","","","","","","","","","","","","","d",""
"","S1","","html-keyboard-response","536","521444","0.0-1.0-758.0","0","0","48649","","null","","","null","84","","","","","","","","","","","","","","","",""
"","ISI","","html-keyboard-response","537","522447","0.0-1.0-759.0","0","0","48649","","null","","","null","84","NaN","","","","","","","","","","","","","","",""
"","S2","","html-keyboard-response","538","522701","0.0-1.0-760.0","0","0","48649","","null","","","null","84","","NaN","","","","","","","","","","","","","",""
"","response","","html-keyboard-response","539","522811","0.0-1.0-761.0-0.0","0","0","48649","","107","","","68","84","","","2","84","training","adjacent","GF","7","6","L.jpg","N.jpg","0","0","1","",""
"","feedback","","html-keyboard-response","540","523816","0.0-1.0-762.0-0.0","0","0","48649","","null","","","null","84","","","","","","","","","","","","","","","",""
"","ITI","","html-keyboard-response","541","524820","0.0-1.0-765.0","0","0","48649","","null","","","null","84","","","","","","","","","","","","","","","NaN",""
"","S1","","html-keyboard-response","542","525073","0.0-1.0-767.0","0","0","48649","","null","","","null","85","","","","","","","","","","","","","","","",""
"","ISI","","html-keyboard-response","543","526077","0.0-1.0-768.0","0","0","48649","","null","","","null","85","NaN","","","","","","","","","","","","","","",""
"","S2","","html-keyboard-response","544","526330","0.0-1.0-769.0","0","0","48649","","null","","","null","85","","NaN","","","","","","","","","","","","","",""
"","response","","html-keyboard-response","545","528085","0.0-1.0-770.0-0.0","0","0","48649","","null","","","null","85","","","2","85","training","adjacent","CD","3","4","M.jpg","P.jpg","NaN","1","0","",""
"","too_slow_prompt","","html-keyboard-response","546","529089","0.0-1.0-772.0-0.0","1","0","48649","","null","","","null","","","","","","","","","","","","","","","","",""
"","time_out","","html-keyboard-response","547","531092","0.0-1.0-773.0-0.0","0","0","48649","","null","","","null","85","","","","","","","","","","","","","","","",""
"","ITI","","html-keyboard-response","548","532097","0.0-1.0-774.0","0","0","48649","","null","","","null","85","","","","","","","","","","","","","","","NaN",""
"","S1","","html-keyboard-response","549","532350","0.0-1.0-776.0","0","0","48649","","null","","","null","86","","","","","","","","","","","","","","","",""
"","ISI","","html-keyboard-response","550","533354","0.0-1.0-777.0","0","0","48649","","null","","","null","86","NaN","","","","","","","","","","","","","","",""
"","S2","","html-keyboard-response","551","533607","0.0-1.0-778.0","0","0","48649","","null","","","null","86","","NaN","","","","","","","","","","","","","",""
"","response","","html-keyboard-response","552","533747","0.0-1.0-779.0-0.0","0","0","48649","","137","","","75","86","","","2","86","training","adjacent","ED","5","4","R.jpg","P.jpg","1","0","0","",""
"","feedback","","html-keyboard-response","553","534752","0.0-1.0-780.0-0.0","0","0","48649","","null","","","null","86","","","","","","","","","","","","","","","",""
"","time_out","","html-keyboard-response","554","536768","0.0-1.0-782.0-0.0","0","0","48649","","null","","","null","86","","","","","","","","","","","","","","","",""
"","ITI","","html-keyboard-response","555","537772","0.0-1.0-783.0","0","0","48649","","536","","","68","86","","","","","","","","","","","","","","","d",""
"","S1","","html-keyboard-response","556","538026","0.0-1.0-785.0","0","0","48649","","null","","","null","87","","","","","","","","","","","","","","","",""
"","ISI","","html-keyboard-response","557","539029","0.0-1.0-786.0","0","0","48649","","439","","","68","87","d","","","","","","","","","","","","","","",""
"","S2","","html-keyboard-response","558","539283","0.0-1.0-787.0","0","0","48649","","null","","","null","87","","NaN","","","","","","","","","","","","","",""
"","response","","html-keyboard-response","559","539435","0.0-1.0-788.0-0.0","0","0","48649","","150","","","68","87","","","2","87","training","adjacent","GF","7","6","L.jpg","N.jpg","0","0","1","",""
"","feedback","","html-keyboard-response","560","540439","0.0-1.0-789.0-0.0","0","0","48649","","null","","","null","87","","","","","","","","","","","","","","","",""
"","ITI","","html-keyboard-response","561","541444","0.0-1.0-792.0","0","0","48649","","null","","","null","87","","","","","","","","","","","","","","","NaN",""
"","S1","","html-keyboard-response","562","541698","0.0-1.0-794.0","0","0","48649","","null","","","null","88","","","","","","","","","","","","","","","",""
"","ISI","","html-keyboard-response","563","542701","0.0-1.0-795.0","0","0","48649","","null","","","null","88","NaN","","","","","","","","","","","","","","",""
"","S2","","html-keyboard-response","564","542955","0.0-1.0-796.0","0","0","48649","","null","","","null","88","","NaN","","","","","","","","","","","","","",""
"","response","","html-keyboard-response","565","543124","0.0-1.0-797.0-0.0","0","0","48649","","166","","","75","88","","","2","88","training","adjacent","ED","5","4","R.jpg","P.jpg","1","0","0","",""
"","feedback","","html-keyboard-response","566","544128","0.0-1.0-798.0-0.0","0","0","48649","","null","","","null","88","","","","","","","","","","","","","","","",""
"","time_out","","html-keyboard-response","567","546132","0.0-1.0-800.0-0.0","0","0","48649","","null","","","null","88","","","","","","","","","","","","","","","",""
"","ITI","","html-keyboard-response","568","547136","0.0-1.0-801.0","0","0","48649","","null","","","null","88","","","","","","","","","","","","","","","NaN",""
"","S1","","html-keyboard-response","569","547389","0.0-1.0-803.0","0","0","48649","","null","","","null","89","","","","","","","","","","","","","","","",""
"","ISI","","html-keyboard-response","570","548392","0.0-1.0-804.0","0","0","48649","","null","","","null","89","NaN","","","","","","","","","","","","","","",""
"","S2","","html-keyboard-response","571","548645","0.0-1.0-805.0","0","0","48649","","null","","","null","89","","NaN","","","","","","","","","","","","","",""
"","response","","html-keyboard-response","572","548826","0.0-1.0-806.0-0.0","0","0","48649","","179","","","75","89","","","2","89","training","adjacent","GF","7","6","L.jpg","N.jpg","1","0","0","",""
"","feedback","","html-keyboard-response","573","549830","0.0-1.0-807.0-0.0","0","0","48649","","null","","","null","89","","","","","","","","","","","","","","","",""
"","time_out","","html-keyboard-response","574","551834","0.0-1.0-809.0-0.0","0","0","48649","","null","","","null","89","","","","","","","","","","","","","","","",""
"","ITI","","html-keyboard-response","575","552838","0.0-1.0-810.0","0","0","48649","","null","","","null","89","","","","","","","","","","","","","","","NaN",""
"","S1","","html-keyboard-response","576","553092","0.0-1.0-812.0","0","0","48649","","null","","","null","90","","","","","","","","","","","","","","","",""
"","ISI","","html-keyboard-response","577","554101","0.0-1.0-813.0","0","0","48649","","null","","","null","90","NaN","","","","","","","","","","","","","","",""
"","S2","","html-keyboard-response","578","554355","0.0-1.0-814.0","0","0","48649","","null","","","null","90","","NaN","","","","","","","","","","","","","",""
"","response","","html-keyboard-response","579","554359","0.0-1.0-815.0-0.0","0","0","48649","","1","","","75","90","","","2","90","training","adjacent","DC","4","3","P.jpg","M.jpg","1","0","0","",""
