"success","ttype","start_time","trial_type","trial_index","time_elapsed","internal_node_id","warning","missed_checkup","PID","view_history","rt","responses","repeat_instructions","key_press","index","keypress_isi","keypress_S2","block","trial_num","phase","group_type","pair_type","S1_stim","S2_stim","S1_img","S2_img","S1_chosen","S1_higher","accuracy","keypress_iti","total_bonus_tally"
"true","full_screen","d04152023hr0310","fullscreen","0","10932","0.0-0.0","0","0","76385","","","","","","","","","","","","","","","","","","","","","",""
"","instructions","","instructions","1","44507","0.0-1.0-0.0-0.0","0","0","76385","[{""page_index"":0,""viewing_time"":4557},{""page_index"":1,""viewing_time"":17034},{""page_index"":2,""viewing_time"":9584},{""page_index"":3,""viewing_time"":2397}]","33572","","","","","","","","","","","","","","","","","","","",""
"","comprehension_check","","survey-multi-choice","2","70430","0.0-1.0-0.0-1.0","0","0","76385","","25917","{""Q0"":""True"",""Q1"":""K"",""Q2"":""Once the second image appears and while the screen 'MAKE A CHOICE' is shown"",""Q3"":""Green mark"",""Q4"":""either D or K""}","0","","","","","","","","","","","","","","","","","",""
"","start_exp","","html-keyboard-response","3","72230","0.0-1.0-1.0","0","0","76385","","1797","","","32","","","","","","","","","","","","","","","","",""
"","S1","","html-keyboard-response","4","72484","0.0-1.0-2.0","0","0","76385","","null","","","null","0","","","","","","","","","","","","","","","",""
"","ISI","","html-keyboard-response","5","73494","0.0-1.0-3.0","0","0","76385","","null","","","null","0","NaN","","","","","","","","","","","","","","",""
"","S2","","html-keyboard-response","6","73749","0.0-1.0-4.0","0","0","76385","","null","","","null","0","","NaN","","","","","","","","","","","","","",""
"","response","","html-keyboard-response","7","74780","0.0-1.0-5.0-0.0","0","0","76385","","1030","","","75","0","","","1","0","training","adjacent","BC","2","3","L.jpg","M.jpg","1","1","1","",""
"","feedback","","html-keyboard-response","8","75793","0.0-1.0-6.0-0.0","0","0","76385","","null","","","null","0","","","","","","","","","","","","","","","",""
"","ITI","","html-keyboard-response","9","76797","0.0-1.0-9.0","0","0","76385","","null","","","null","0","","","","","","","","","","","","","","","NaN",""
"","S1","","html-keyboard-response","10","77055","0.0-1.0-11.0","0","0","76385","","null","","","null","1","","","","","","","","","","","","","","","",""
"","ISI","","html-keyboard-response","11","78062","0.0-1.0-12.0","0","0","76385","","null","","","null","1","NaN","","","","","","","","","","","","","","",""
"","S2","","html-keyboard-response","12","78318","0.0-1.0-13.0","0","0","76385","","null","","","null","1","","NaN","","","","","","","","","","","","","",""
"","response","","html-keyboard-response","13","78782","0.0-1.0-14.0-0.0","0","0","76385","","463","","","68","1","","","1","1","training","adjacent","EF","5","6","N.jpg","O.jpg","0","1","0","",""
"","feedback","","html-keyboard-response","14","79792","0.0-1.0-15.0-0.0","0","0","76385","","null","","","null","1","","","","","","","","","","","","","","","",""
"","time_out","","html-keyboard-response","15","81800","0.0-1.0-17.0-0.0","0","0","76385","","null","","","null","1","","","","","","","","","","","","","","","",""
"","ITI","","html-keyboard-response","16","82805","0.0-1.0-18.0","0","0","76385","","null","","","null","1","","","","","","","","","","","","","","","NaN",""
"","S1","","html-keyboard-response","17","83065","0.0-1.0-20.0","0","0","76385","","null","","","null","2","","","","","","","","","","","","","","","",""
"","ISI","","html-keyboard-response","18","84071","0.0-1.0-21.0","0","0","76385","","null","","","null","2","NaN","","","","","","","","","","","","","","",""
"","S2","","html-keyboard-response","19","84326","0.0-1.0-22.0","0","0","76385","","null","","","null","2","","NaN","","","","","","","","","","","","","",""
"","response","","html-keyboard-response","20","84844","0.0-1.0-23.0-0.0","0","0","76385","","517","","","75","2","","","1","2","training","adjacent","BC","2","3","L.jpg","M.jpg","1","1","1","",""
"","feedback","","html-keyboard-response","21","85852","0.0-1.0-24.0-0.0","0","0","76385","","null","","","null","2","","","","","","","","","","","","","","","",""
"","ITI","","html-keyboard-response","22","86863","0.0-1.0-27.0","0","0","76385","","null","","","null","2","","","","","","","","","","","","","","","NaN",""
"","S1","","html-keyboard-response","23","87119","0.0-1.0-29.0","0","0","76385","","null","","","null","3","","","","","","","","","","","","","","","",""
"","ISI","","html-keyboard-response","24","88128","0.0-1.0-30.0","0","0","76385","","null","","","null","3","NaN","","","","","","","","","","","","","","",""
"","S2","","html-keyboard-response","25","88389","0.0-1.0-31.0","0","0","76385","","null","","","null","3","","NaN","","","","","","","","","","","","","",""
"","response","","html-keyboard-response","26","88886","0.0-1.0-32.0-0.0","0","0","76385","","495","","","75","3","","","1","3","training","adjacent","CD","3","4","M.jpg","P.jpg","1","1","1","",""
"","feedback","","html-keyboard-response","27","89893","0.0-1.0-33.0-0.0","0","0","76385","","null","","","null","3","","","","","","","","","","","","","","","",""
"","ITI","","html-keyboard-response","28","90903","0.0-1.0-36.0","0","0","76385","","null","","","null","3","","","","","","","","","","","","","","","NaN",""
"","S1","","html-keyboard-response","29","91159","0.0-1.0-38.0","0","0","76385","","null","","","null","4","","","","","","","","","","","","","","","",""
"","ISI","","html-keyboard-response","30","92168","0.0-1.0-39.0","0","0","76385","","null","","","null","4","NaN","","","","","","","","","","","","","","",""
"","S2","","html-keyboard-response","31","92432","0.0-1.0-40.0","0","0","76385","","null","","","null","4","","NaN","","","","","","","","","","","","","",""
"","response","","html-keyboard-response","32","93483","0.0-1.0-41.0-0.0","0","0","76385","","1049","","","68","4","","","1","4","training","adjacent","FG","6","7","O.jpg","Q.jpg","0","1","0","",""
"","feedback","","html-keyboard-response","33","94497","0.0-1.0-42.0-0.0","0","0","76385","","null","","","null","4","","","","","","","","","","","","","","","",""
"","time_out","","html-keyboard-response","34","96505","0.0-1.0-44.0-0.0","0","0","76385","","null","","","null","4","","","","","","","","","","","","","","","",""
"","ITI","","html-keyboard-response","35","97509","0.0-1.0-45.0","0","0","76385","","null","","","null","4","","","","","","","","","","","","","","","NaN",""
"","S1","","html-keyboard-response","36","97765","0.0-1.0-47.0","0","0","76385","","null","","","null","5","","","","","","","","","","","","","","","",""
"","ISI","","html-keyboard-response","37","98775","0.0-1.0-48.0","0","0","76385","","null","","","null","5","NaN","","","","","","","","","","","","","","",""
"","S2","","html-keyboard-response","38","99031","0.0-1.0-49.0","0","0","76385","","null","","","null","5","","NaN","","","","","","","","","","","","","",""
"","response","","html-keyboard-response","39","99819","0.0-1.0-50.0-0.0","0","0","76385","","786","","","75","5","","","1","5","training","adjacent","FE","6","5","O.jpg","N.jpg","1","0","0","",""
"","feedback","","html-keyboard-response","40","100829","0.0-1.0-51.0-0.0","0","0","76385","","null","","","null","5","","","","","","","","","","","","","","","",""
"","time_out","","html-keyboard-response","41","102838","0.0-1.0-53.0-0.0","0","0","76385","","null","","","null","5","","","","","","","","","","","","","","","",""
"","ITI","","html-keyboard-response","42","103848","0.0-1.0-54.0","0","0","76385","","null","","","null","5","","","","","","","","","","","","","","","NaN",""
"","S1","","html-keyboard-response","43","104104","0.0-1.0-56.0","0","0","76385","","null","","","null","6","","","","","","","","","","","","","","","",""
"","ISI","","html-keyboard-response","44","105109","0.0-1.0-57.0","0","0","76385","","null","","","null","6","NaN","","","","","","","","","","","","","","",""
"","S2","","html-keyboard-response","45","105369","0.0-1.0-58.0","0","0","76385","","null","","","null","6","","NaN","","","","","","","","","","","","","",""
"","response","","html-keyboard-response","46","106010","0.0-1.0-59.0-0.0","0","0","76385","","640","","","75","6","","","1","6","training","adjacent","BA","2","1","L.jpg","R.jpg","1","0","0","",""
"","feedback","","html-keyboard-response","47","107013","0.0-1.0-60.0-0.0","0","0","76385","","null","","","null","6","","","","","","","","","","","","","","","",""
"","time_out","","html-keyboard-response","48","109021","0.0-1.0-62.0-0.0","0","0","76385","","null","","","null","6","","","","","","","","","","","","","","","",""
"","ITI","","html-keyboard-response","49","110031","0.0-1.0-63.0","0","0","76385","","null","","","null","6","","","","","","","","","","","","","","","NaN",""
"","S1","","html-keyboard-response","50","110286","0.0-1.0-65.0","0","0","76385","","null","","","null","7","","","","","","","","","","","","","","","",""
"","ISI","","html-keyboard-response","51","111296","0.0-1.0-66.0","0","0","76385","","null","","","null","7","NaN","","","","","","","","","","","","","","",""
"","S2","","html-keyboard-response","52","111552","0.0-1.0-67.0","0","0","76385","","null","","","null","7","","NaN","","","","","","","","","","","","","",""
"","response","","html-keyboard-response","53","112385","0.0-1.0-68.0-0.0","0","0","76385","","831","","","68","7","","","1","7","training","adjacent","ED","5","4","N.jpg","P.jpg","0","0","1","",""
"","feedback","","html-keyboard-response","54","113392","0.0-1.0-69.0-0.0","0","0","76385","","null","","","null","7","","","","","","","","","","","","","","","",""
"","ITI","","html-keyboard-response","55","114397","0.0-1.0-72.0","0","0","76385","","null","","","null","7","","","","","","","","","","","","","","","NaN",""
"","S1","","html-keyboard-response","56","114654","0.0-1.0-74.0","0","0","76385","","null","","","null","8","","","","","","","","","","","","","","","",""
"","ISI","","html-keyboard-response","57","115664","0.0-1.0-75.0","0","0","76385","","null","","","null","8","NaN","","","","","","","","","","","","","","",""
"","S2","","html-keyboard-response","58","115917","0.0-1.0-76.0","0","0","76385","","null","","","null","8","","NaN","","","","","","","","","","","","","",""
"","response","","html-keyboard-response","59","116855","0.0-1.0-77.0-0.0","0","0","76385","","937","","","68","8","","","1","8","training","adjacent","BA","2","1","L.jpg","R.jpg","0","0","1","",""
"","feedback","","html-keyboard-response","60","117865","0.0-1.0-78.0-0.0","0","0","76385","","null","","","null","8","","","","","","","","","","","","","","","",""
"","ITI","","html-keyboard-response","61","118872","0.0-1.0-81.0","0","0","76385","","null","","","null","8","","","","","","","","","","","","","","","NaN",""
"","S1","","html-keyboard-response","62","119127","0.0-1.0-83.0","0","0","76385","","null","","","null","9","","","","","","","","","","","","","","","",""
"","ISI","","html-keyboard-response","63","120137","0.0-1.0-84.0","0","0","76385","","null","","","null","9","NaN","","","","","","","","","","","","","","",""
"","S2","","html-keyboard-response","64","120400","0.0-1.0-85.0","0","0","76385","","null","","","null","9","","NaN","","","","","","","","","","","","","",""
"","response","","html-keyboard-response","65","122064","0.0-1.0-86.0-0.0","0","0","76385","","1663","","","68","9","","","1","9","training","adjacent","DC","4","3","P.jpg","M.jpg","0","0","1","",""
"","feedback","","html-keyboard-response","66","123070","0.0-1.0-87.0-0.0","0","0","76385","","null","","","null","9","","","","","","","","","","","","","","","",""
"","ITI","","html-keyboard-response","67","124079","0.0-1.0-90.0","0","0","76385","","null","","","null","9","","","","","","","","","","","","","","","NaN",""
"","S1","","html-keyboard-response","68","124336","0.0-1.0-92.0","0","0","76385","","null","","","null","10","","","","","","","","","","","","","","","",""
"","ISI","","html-keyboard-response","69","125345","0.0-1.0-93.0","0","0","76385","","null","","","null","10","NaN","","","","","","","","","","","","","","",""
"","S2","","html-keyboard-response","70","125606","0.0-1.0-94.0","0","0","76385","","null","","","null","10","","NaN","","","","","","","","","","","","","",""
"","response","","html-keyboard-response","71","126878","0.0-1.0-95.0-0.0","0","0","76385","","1270","","","68","10","","","1","10","training","adjacent","FE","6","5","O.jpg","N.jpg","0","0","1","",""
"","feedback","","html-keyboard-response","72","127887","0.0-1.0-96.0-0.0","0","0","76385","","null","","","null","10","","","","","","","","","","","","","","","",""
"","ITI","","html-keyboard-response","73","128898","0.0-1.0-99.0","0","0","76385","","null","","","null","10","","","","","","","","","","","","","","","NaN",""
"","S1","","html-keyboard-response","74","129159","0.0-1.0-101.0","0","0","76385","","null","","","null","11","","","","","","","","","","","","","","","",""
"","ISI","","html-keyboard-response","75","130169","0.0-1.0-102.0","0","0","76385","","null","","","null","11","NaN","","","","","","","","","","","","","","",""
"","S2","","html-keyboard-response","76","130430","0.0-1.0-103.0","0","0","76385","","null","","","null","11","","NaN","","","","","","","","","","","","","",""
"","response","","html-keyboard-response","77","131178","0.0-1.0-104.0-0.0","0","0","76385","","747","","","68","11","","","1","11","training","adjacent","DC","4","3","P.jpg","M.jpg","0","0","1","",""
"","feedback","","html-keyboard-response","78","132183","0.0-1.0-105.0-0.0","0","0","76385","","null","","","null","11","","","","","","","","","","","","","","","",""
"","ITI","","html-keyboard-response","79","133193","0.0-1.0-108.0","0","0","76385","","null","","","null","11","","","","","","","","","","","","","","","NaN",""
"","S1","","html-keyboard-response","80","133457","0.0-1.0-110.0","0","0","76385","","null","","","null","12","","","","","","","","","","","","","","","",""
"","ISI","","html-keyboard-response","81","134464","0.0-1.0-111.0","0","0","76385","","null","","","null","12","NaN","","","","","","","","","","","","","","",""
"","S2","","html-keyboard-response","82","134720","0.0-1.0-112.0","0","0","76385","","null","","","null","12","","NaN","","","","","","","","","","","","","",""
"","response","","html-keyboard-response","83","135165","0.0-1.0-113.0-0.0","0","0","76385","","444","","","75","12","","","1","12","training","adjacent","DE","4","5","P.jpg","N.jpg","1","1","1","",""
"","feedback","","html-keyboard-response","84","136177","0.0-1.0-114.0-0.0","0","0","76385","","null","","","null","12","","","","","","","","","","","","","","","",""
"","ITI","","html-keyboard-response","85","137181","0.0-1.0-117.0","0","0","76385","","null","","","null","12","","","","","","","","","","","","","","","NaN",""
"","S1","","html-keyboard-response","86","137442","0.0-1.0-119.0","0","0","76385","","null","","","null","13","","","","","","","","","","","","","","","",""
"","ISI","","html-keyboard-response","87","138446","0.0-1.0-120.0","0","0","76385","","null","","","null","13","NaN","","","","","","","","","","","","","","",""
"","S2","","html-keyboard-response","88","138703","0.0-1.0-121.0","0","0","76385","","null","","","null","13","","NaN","","","","","","","","","","","","","",""
"","response","","html-keyboard-response","89","139339","0.0-1.0-122.0-0.0","0","0","76385","","635","","","68","13","","","1","13","training","adjacent","ED","5","4","N.jpg","P.jpg","0","0","1","",""
"","feedback","","html-keyboard-response","90","140352","0.0-1.0-123.0-0.0","0","0","76385","","null","","","null","13","","","","","","","","","","","","","","","",""
"","ITI","","html-keyboard-response","91","141362","0.0-1.0-126.0","0","0","76385","","null","","","null","13","","","","","","","","","","","","","","","NaN",""
"","S1","","html-keyboard-response","92","141623","0.0-1.0-128.0","0","0","76385","","null","","","null","14","","","","","","","","","","","","","","","",""
"","ISI","","html-keyboard-response","93","142633","0.0-1.0-129.0","0","0","76385","","null","","","null","14","NaN","","","","","","","","","","","","","","",""
"","S2","","html-keyboard-response","94","142888","0.0-1.0-130.0","0","0","76385","","null","","","null","14","","NaN","","","","","","","","","","","","","",""
"","response","","html-keyboard-response","95","144276","0.0-1.0-131.0-0.0","0","0","76385","","1386","","","75","14","","","1","14","training","adjacent","CD","3","4","M.jpg","P.jpg","1","1","1","",""
"","feedback","","html-keyboard-response","96","145287","0.0-1.0-132.0-0.0","0","0","76385","","null","","","null","14","","","","","","","","","","","","","","","",""
"","ITI","","html-keyboard-response","97","146296","0.0-1.0-135.0","0","0","76385","","null","","","null","14","","","","","","","","","","","","","","","NaN",""
"","S1","","html-keyboard-response","98","146551","0.0-1.0-137.0","0","0","76385","","null","","","null","15","","","","","","","","","","","","","","","",""
"","ISI","","html-keyboard-response","99","147561","0.0-1.0-138.0","0","0","76385","","null","","","null","15","NaN","","","","","","","","","","","","","","",""
"","S2","","html-keyboard-response","100","147822","0.0-1.0-139.0","0","0","76385","","null","","","null","15","","NaN","","","","","","","","","","","","","",""
"","response","","html-keyboard-response","101","148355","0.0-1.0-140.0-0.0","0","0","76385","","532","","","68","15","","","1","15","training","adjacent","GF","7","6","Q.jpg","O.jpg","0","0","1","",""
"","feedback","","html-keyboard-response","102","149367","0.0-1.0-141.0-0.0","0","0","76385","","null","","","null","15","","","","","","","","","","","","","","","",""
"","ITI","","html-keyboard-response","103","150376","0.0-1.0-144.0","0","0","76385","","null","","","null","15","","","","","","","","","","","","","","","NaN",""
"","S1","","html-keyboard-response","104","150632","0.0-1.0-146.0","0","0","76385","","null","","","null","16","","","","","","","","","","","","","","","",""
"","ISI","","html-keyboard-response","105","151642","0.0-1.0-147.0","0","0","76385","","null","","","null","16","NaN","","","","","","","","","","","","","","",""
"","S2","","html-keyboard-response","106","151903","0.0-1.0-148.0","0","0","76385","","null","","","null","16","","NaN","","","","","","","","","","","","","",""
"","response","","html-keyboard-response","107","152806","0.0-1.0-149.0-0.0","0","0","76385","","902","","","75","16","","","1","16","training","adjacent","AB","1","2","R.jpg","L.jpg","1","1","1","",""
"","feedback","","html-keyboard-response","108","153817","0.0-1.0-150.0-0.0","0","0","76385","","null","","","null","16","","","","","","","","","","","","","","","",""
"","ITI","","html-keyboard-response","109","154823","0.0-1.0-153.0","0","0","76385","","null","","","null","16","","","","","","","","","","","","","","","NaN",""
"","S1","","html-keyboard-response","110","155078","0.0-1.0-155.0","0","0","76385","","null","","","null","17","","","","","","","","","","","","","","","",""
"","ISI","","html-keyboard-response","111","156088","0.0-1.0-156.0","0","0","76385","","null","","","null","17","NaN","","","","","","","","","","","","","","",""
"","S2","","html-keyboard-response","112","156344","0.0-1.0-157.0","0","0","76385","","null","","","null","17","","NaN","","","","","","","","","","","","","",""
"","response","","html-keyboard-response","113","157296","0.0-1.0-158.0-0.0","0","0","76385","","950","","","68","17","","","1","17","training","adjacent","AB","1","2","R.jpg","L.jpg","0","1","0","",""
"","feedback","","html-keyboard-response","114","158305","0.0-1.0-159.0-0.0","0","0","76385","","null","","","null","17","","","","","","","","","","","","","","","",""
"","time_out","","html-keyboard-response","115","160312","0.0-1.0-161.0-0.0","0","0","76385","","null","","","null","17","","","","","","","","","","","","","","","",""
"","ITI","","html-keyboard-response","116","161321","0.0-1.0-162.0","0","0","76385","","null","","","null","17","","","","","","","","","","","","","","","NaN",""
"","S1","","html-keyboard-response","117","161575","0.0-1.0-164.0","0","0","76385","","null","","","null","18","","","","","","","","","","","","","","","",""
"","ISI","","html-keyboard-response","118","162584","0.0-1.0-165.0","0","0","76385","","null","","","null","18","NaN","","","","","","","","","","","","","","",""
"","S2","","html-keyboard-response","119","162840","0.0-1.0-166.0","0","0","76385","","null","","","null","18","","NaN","","","","","","","","","","","","","",""
"","response","","html-keyboard-response","120","163526","0.0-1.0-167.0-0.0","0","0","76385","","685","","","75","18","","","1","18","training","adjacent","BA","2","1","L.jpg","R.jpg","1","0","0","",""
"","feedback","","html-keyboard-response","121","164539","0.0-1.0-168.0-0.0","0","0","76385","","null","","","null","18","","","","","","","","","","","","","","","",""
"","time_out","","html-keyboard-response","122","166543","0.0-1.0-170.0-0.0","0","0","76385","","null","","","null","18","","","","","","","","","","","","","","","",""
"","ITI","","html-keyboard-response","123","167554","0.0-1.0-171.0","0","0","76385","","null","","","null","18","","","","","","","","","","","","","","","NaN",""
"","S1","","html-keyboard-response","124","167815","0.0-1.0-173.0","0","0","76385","","null","","","null","19","","","","","","","","","","","","","","","",""
"","ISI","","html-keyboard-response","125","168825","0.0-1.0-174.0","0","0","76385","","null","","","null","19","NaN","","","","","","","","","","","","","","",""
"","S2","","html-keyboard-response","126","169081","0.0-1.0-175.0","0","0","76385","","null","","","null","19","","NaN","","","","","","","","","","","","","",""
"","response","","html-keyboard-response","127","170498","0.0-1.0-176.0-0.0","0","0","76385","","1416","","","75","19","","","1","19","training","adjacent","AB","1","2","R.jpg","L.jpg","1","1","1","",""
"","feedback","","html-keyboard-response","128","171504","0.0-1.0-177.0-0.0","0","0","76385","","null","","","null","19","","","","","","","","","","","","","","","",""
"","ITI","","html-keyboard-response","129","172511","0.0-1.0-180.0","0","0","76385","","null","","","null","19","","","","","","","","","","","","","","","NaN",""
"","S1","","html-keyboard-response","130","172766","0.0-1.0-182.0","0","0","76385","","null","","","null","20","","","","","","","","","","","","","","","",""
"","ISI","","html-keyboard-response","131","173776","0.0-1.0-183.0","0","0","76385","","null","","","null","20","NaN","","","","","","","","","","","","","","",""
"","S2","","html-keyboard-response","132","174033","0.0-1.0-184.0","0","0","76385","","null","","","null","20","","NaN","","","","","","","","","","","","","",""
"","response","","html-keyboard-response","133","175300","0.0-1.0-185.0-0.0","0","0","76385","","1266","","","68","20","","","1","20","training","adjacent","FG","6","7","O.jpg","Q.jpg","0","1","0","",""
"","feedback","","html-keyboard-response","134","176313","0.0-1.0-186.0-0.0","0","0","76385","","null","","","null","20","","","","","","","","","","","","","","","",""
"","time_out","","html-keyboard-response","135","178322","0.0-1.0-188.0-0.0","0","0","76385","","null","","","null","20","","","","","","","","","","","","","","","",""
"","ITI","","html-keyboard-response","136","179329","0.0-1.0-189.0","0","0","76385","","null","","","null","20","","","","","","","","","","","","","","","NaN",""
"","S1","","html-keyboard-response","137","179584","0.0-1.0-191.0","0","0","76385","","null","","","null","21","","","","","","","","","","","","","","","",""
"","ISI","","html-keyboard-response","138","180592","0.0-1.0-192.0","0","0","76385","","null","","","null","21","NaN","","","","","","","","","","","","","","",""
"","S2","","html-keyboard-response","139","180848","0.0-1.0-193.0","0","0","76385","","null","","","null","21","","NaN","","","","","","","","","","","","","",""
"","response","","html-keyboard-response","140","181955","0.0-1.0-194.0-0.0","0","0","76385","","1106","","","68","21","","","1","21","training","adjacent","GF","7","6","Q.jpg","O.jpg","0","0","1","",""
"","feedback","","html-keyboard-response","141","182961","0.0-1.0-195.0-0.0","0","0","76385","","null","","","null","21","","","","","","","","","","","","","","","",""
"","ITI","","html-keyboard-response","142","183971","0.0-1.0-198.0","0","0","76385","","null","","","null","21","","","","","","","","","","","","","","","NaN",""
"","S1","","html-keyboard-response","143","184232","0.0-1.0-200.0","0","0","76385","","null","","","null","22","","","","","","","","","","","","","","","",""
"","ISI","","html-keyboard-response","144","185242","0.0-1.0-201.0","0","0","76385","","null","","","null","22","NaN","","","","","","","","","","","","","","",""
"","S2","","html-keyboard-response","145","185504","0.0-1.0-202.0","0","0","76385","","null","","","null","22","","NaN","","","","","","","","","","","","","",""
"","response","","html-keyboard-response","146","185917","0.0-1.0-203.0-0.0","0","0","76385","","412","","","68","22","","","1","22","training","adjacent","GF","7","6","Q.jpg","O.jpg","0","0","1","",""
"","feedback","","html-keyboard-response","147","186927","0.0-1.0-204.0-0.0","0","0","76385","","null","","","null","22","","","","","","","","","","","","","","","",""
"","ITI","","html-keyboard-response","148","187936","0.0-1.0-207.0","0","0","76385","","null","","","null","22","","","","","","","","","","","","","","","NaN",""
"","S1","","html-keyboard-response","149","188191","0.0-1.0-209.0","0","0","76385","","null","","","null","23","","","","","","","","","","","","","","","",""
"","ISI","","html-keyboard-response","150","189201","0.0-1.0-210.0","0","0","76385","","null","","","null","23","NaN","","","","","","","","","","","","","","",""
"","S2","","html-keyboard-response","151","189457","0.0-1.0-211.0","0","0","76385","","null","","","null","23","","NaN","","","","","","","","","","","","","",""
"","response","","html-keyboard-response","152","189845","0.0-1.0-212.0-0.0","0","0","76385","","387","","","68","23","","","1","23","training","adjacent","GF","7","6","Q.jpg","O.jpg","0","0","1","",""
"","feedback","","html-keyboard-response","153","190856","0.0-1.0-213.0-0.0","0","0","76385","","null","","","null","23","","","","","","","","","","","","","","","",""
"","ITI","","html-keyboard-response","154","191866","0.0-1.0-216.0","0","0","76385","","null","","","null","23","","","","","","","","","","","","","","","NaN",""
"","S1","","html-keyboard-response","155","192121","0.0-1.0-218.0","0","0","76385","","null","","","null","24","","","","","","","","","","","","","","","",""
"","ISI","","html-keyboard-response","156","193131","0.0-1.0-219.0","0","0","76385","","null","","","null","24","NaN","","","","","","","","","","","","","","",""
"","S2","","html-keyboard-response","157","193395","0.0-1.0-220.0","0","0","76385","","null","","","null","24","","NaN","","","","","","","","","","","","","",""
"","response","","html-keyboard-response","158","194609","0.0-1.0-221.0-0.0","0","0","76385","","1211","","","75","24","","","1","24","training","adjacent","CB","3","2","M.jpg","L.jpg","1","0","0","",""
"","feedback","","html-keyboard-response","159","195616","0.0-1.0-222.0-0.0","0","0","76385","","null","","","null","24","","","","","","","","","","","","","","","",""
"","time_out","","html-keyboard-response","160","197624","0.0-1.0-224.0-0.0","0","0","76385","","null","","","null","24","","","","","","","","","","","","","","","",""
"","ITI","","html-keyboard-response","161","198634","0.0-1.0-225.0","0","0","76385","","null","","","null","24","","","","","","","","","","","","","","","NaN",""
"","S1","","html-keyboard-response","162","198889","0.0-1.0-227.0","0","0","76385","","null","","","null","25","","","","","","","","","","","","","","","",""
"","ISI","","html-keyboard-response","163","199895","0.0-1.0-228.0","0","0","76385","","null","","","null","25","NaN","","","","","","","","","","","","","","",""
"","S2","","html-keyboard-response","164","200155","0.0-1.0-229.0","0","0","76385","","null","","","null","25","","NaN","","","","","","","","","","","","","",""
"","response","","html-keyboard-response","165","201431","0.0-1.0-230.0-0.0","0","0","76385","","1275","","","68","25","","","1","25","training","adjacent","FG","6","7","O.jpg","Q.jpg","0","1","0","",""
"","feedback","","html-keyboard-response","166","202442","0.0-1.0-231.0-0.0","0","0","76385","","null","","","null","25","","","","","","","","","","","","","","","",""
"","time_out","","html-keyboard-response","167","204451","0.0-1.0-233.0-0.0","0","0","76385","","null","","","null","25","","","","","","","","","","","","","","","",""
"","ITI","","html-keyboard-response","168","205458","0.0-1.0-234.0","0","0","76385","","null","","","null","25","","","","","","","","","","","","","","","NaN",""
"","S1","","html-keyboard-response","169","205710","0.0-1.0-236.0","0","0","76385","","null","","","null","26","","","","","","","","","","","","","","","",""
"","ISI","","html-keyboard-response","170","206721","0.0-1.0-237.0","0","0","76385","","null","","","null","26","NaN","","","","","","","","","","","","","","",""
"","S2","","html-keyboard-response","171","206976","0.0-1.0-238.0","0","0","76385","","null","","","null","26","","NaN","","","","","","","","","","","","","",""
"","response","","html-keyboard-response","172","207864","0.0-1.0-239.0-0.0","0","0","76385","","887","","","68","26","","","1","26","training","adjacent","FE","6","5","O.jpg","N.jpg","0","0","1","",""
"","feedback","","html-keyboard-response","173","208874","0.0-1.0-240.0-0.0","0","0","76385","","null","","","null","26","","","","","","","","","","","","","","","",""
"","ITI","","html-keyboard-response","174","209878","0.0-1.0-243.0","0","0","76385","","null","","","null","26","","","","","","","","","","","","","","","NaN",""
"","S1","","html-keyboard-response","175","210139","0.0-1.0-245.0","0","0","76385","","null","","","null","27","","","","","","","","","","","","","","","",""
"","ISI","","html-keyboard-response","176","211145","0.0-1.0-246.0","0","0","76385","","null","","","null","27","NaN","","","","","","","","","","","","","","",""
"","S2","","html-keyboard-response","177","211399","0.0-1.0-247.0","0","0","76385","","null","","","null","27","","NaN","","","","","","","","","","","","","",""
"","response","","html-keyboard-response","178","211939","0.0-1.0-248.0-0.0","0","0","76385","","538","","","75","27","","","1","27","training","adjacent","BA","2","1","L.jpg","R.jpg","1","0","0","",""
"","feedback","","html-keyboard-response","179","212946","0.0-1.0-249.0-0.0","0","0","76385","","null","","","null","27","","","","","","","","","","","","","","","",""
"","time_out","","html-keyboard-response","180","214952","0.0-1.0-251.0-0.0","0","0","76385","","null","","","null","27","","","","","","","","","","","","","","","",""
"","ITI","","html-keyboard-response","181","215962","0.0-1.0-252.0","0","0","76385","","null","","","null","27","","","","","","","","","","","","","","","NaN",""
"","S1","","html-keyboard-response","182","216217","0.0-1.0-254.0","0","0","76385","","null","","","null","28","","","","","","","","","","","","","","","",""
"","ISI","","html-keyboard-response","183","217227","0.0-1.0-255.0","0","0","76385","","null","","","null","28","NaN","","","","","","","","","","","","","","",""
"","S2","","html-keyboard-response","184","217489","0.0-1.0-256.0","0","0","76385","","null","","","null","28","","NaN","","","","","","","","","","","","","",""
"","response","","html-keyboard-response","185","218154","0.0-1.0-257.0-0.0","0","0","76385","","664","","","75","28","","","1","28","training","adjacent","EF","5","6","N.jpg","O.jpg","1","1","1","",""
"","feedback","","html-keyboard-response","186","219161","0.0-1.0-258.0-0.0","0","0","76385","","null","","","null","28","","","","","","","","","","","","","","","",""
"","ITI","","html-keyboard-response","187","220172","0.0-1.0-261.0","0","0","76385","","null","","","null","28","","","","","","","","","","","","","","","NaN",""
"","S1","","html-keyboard-response","188","220433","0.0-1.0-263.0","0","0","76385","","null","","","null","29","","","","","","","","","","","","","","","",""
"","ISI","","html-keyboard-response","189","221443","0.0-1.0-264.0","0","0","76385","","null","","","null","29","NaN","","","","","","","","","","","","","","",""
"","S2","","html-keyboard-response","190","221699","0.0-1.0-265.0","0","0","76385","","null","","","null","29","","NaN","","","","","","","","","","","","","",""
"","response","","html-keyboard-response","191","222311","0.0-1.0-266.0-0.0","0","0","76385","","610","","","75","29","","","1","29","training","adjacent","EF","5","6","N.jpg","O.jpg","1","1","1","",""
"","feedback","","html-keyboard-response","192","223323","0.0-1.0-267.0-0.0","0","0","76385","","null","","","null","29","","","","","","","","","","","","","","","",""
"","ITI","","html-keyboard-response","193","224328","0.0-1.0-270.0","0","0","76385","","null","","","null","29","","","","","","","","","","","","","","","NaN",""
"","S1","","html-keyboard-response","194","224585","0.0-1.0-272.0","0","0","76385","","null","","","null","30","","","","","","","","","","","","","","","",""
"","ISI","","html-keyboard-response","195","225594","0.0-1.0-273.0","0","0","76385","","null","","","null","30","NaN","","","","","","","","","","","","","","",""
"","S2","","html-keyboard-response","196","225849","0.0-1.0-274.0","0","0","76385","","null","","","null","30","","NaN","","","","","","","","","","","","","",""
"","response","","html-keyboard-response","197","226667","0.0-1.0-275.0-0.0","0","0","76385","","816","","","68","30","","","1","30","training","adjacent","DE","4","5","P.jpg","N.jpg","0","1","0","",""
"","feedback","","html-keyboard-response","198","227672","0.0-1.0-276.0-0.0","0","0","76385","","null","","","null","30","","","","","","","","","","","","","","","",""
"","time_out","","html-keyboard-response","199","229680","0.0-1.0-278.0-0.0","0","0","76385","","null","","","null","30","","","","","","","","","","","","","","","",""
"","ITI","","html-keyboard-response","200","230691","0.0-1.0-279.0","0","0","76385","","null","","","null","30","","","","","","","","","","","","","","","NaN",""
"","S1","","html-keyboard-response","201","230946","0.0-1.0-281.0","0","0","76385","","null","","","null","31","","","","","","","","","","","","","","","",""
"","ISI","","html-keyboard-response","202","231956","0.0-1.0-282.0","0","0","76385","","null","","","null","31","NaN","","","","","","","","","","","","","","",""
"","S2","","html-keyboard-response","203","232217","0.0-1.0-283.0","0","0","76385","","null","","","null","31","","NaN","","","","","","","","","","","","","",""
"","response","","html-keyboard-response","204","233058","0.0-1.0-284.0-0.0","0","0","76385","","839","","","68","31","","","1","31","training","adjacent","ED","5","4","N.jpg","P.jpg","0","0","1","",""
"","feedback","","html-keyboard-response","205","234063","0.0-1.0-285.0-0.0","0","0","76385","","null","","","null","31","","","","","","","","","","","","","","","",""
"","ITI","","html-keyboard-response","206","235074","0.0-1.0-288.0","0","0","76385","","null","","","null","31","","","","","","","","","","","","","","","NaN",""
"","S1","","html-keyboard-response","207","235329","0.0-1.0-290.0","0","0","76385","","null","","","null","32","","","","","","","","","","","","","","","",""
"","ISI","","html-keyboard-response","208","236339","0.0-1.0-291.0","0","0","76385","","null","","","null","32","NaN","","","","","","","","","","","","","","",""
"","S2","","html-keyboard-response","209","236600","0.0-1.0-292.0","0","0","76385","","null","","","null","32","","NaN","","","","","","","","","","","","","",""
"","response","","html-keyboard-response","210","237954","0.0-1.0-293.0-0.0","0","0","76385","","1352","","","75","32","","","1","32","training","adjacent","CB","3","2","M.jpg","L.jpg","1","0","0","",""
"","feedback","","html-keyboard-response","211","238963","0.0-1.0-294.0-0.0","0","0","76385","","null","","","null","32","","","","","","","","","","","","","","","",""
"","time_out","","html-keyboard-response","212","240971","0.0-1.0-296.0-0.0","0","0","76385","","null","","","null","32","","","","","","","","","","","","","","","",""
"","ITI","","html-keyboard-response","213","241977","0.0-1.0-297.0","0","0","76385","","null","","","null","32","","","","","","","","","","","","","","","NaN",""
"","S1","","html-keyboard-response","214","242237","0.0-1.0-299.0","0","0","76385","","null","","","null","33","","","","","","","","","","","","","","","",""
"","ISI","","html-keyboard-response","215","243245","0.0-1.0-300.0","0","0","76385","","null","","","null","33","NaN","","","","","","","","","","","","","","",""
"","S2","","html-keyboard-response","216","243508","0.0-1.0-301.0","0","0","76385","","null","","","null","33","","NaN","","","","","","","","","","","","","",""
"","response","","html-keyboard-response","217","244747","0.0-1.0-302.0-0.0","0","0","76385","","1236","","","75","33","","","1","33","training","adjacent","DC","4","3","P.jpg","M.jpg","1","0","0","",""
"","feedback","","html-keyboard-response","218","245755","0.0-1.0-303.0-0.0","0","0","76385","","null","","","null","33","","","","","","","","","","","","","","","",""
"","time_out","","html-keyboard-response","219","247763","0.0-1.0-305.0-0.0","0","0","76385","","null","","","null","33","","","","","","","","","","","","","","","",""
"","ITI","","html-keyboard-response","220","248768","0.0-1.0-306.0","0","0","76385","","null","","","null","33","","","","","","","","","","","","","","","NaN",""
"","S1","","html-keyboard-response","221","249024","0.0-1.0-308.0","0","0","76385","","null","","","null","34","","","","","","","","","","","","","","","",""
"","ISI","","html-keyboard-response","222","250033","0.0-1.0-309.0","0","0","76385","","null","","","null","34","NaN","","","","","","","","","","","","","","",""
"","S2","","html-keyboard-response","223","250289","0.0-1.0-310.0","0","0","76385","","null","","","null","34","","NaN","","","","","","","","","","","","","",""
"","response","","html-keyboard-response","224","251192","0.0-1.0-311.0-0.0","0","0","76385","","902","","","68","34","","","1","34","training","adjacent","CD","3","4","M.jpg","P.jpg","0","1","0","",""
"","feedback","","html-keyboard-response","225","252204","0.0-1.0-312.0-0.0","0","0","76385","","null","","","null","34","","","","","","","","","","","","","","","",""
"","time_out","","html-keyboard-response","226","254213","0.0-1.0-314.0-0.0","0","0","76385","","null","","","null","34","","","","","","","","","","","","","","","",""
"","ITI","","html-keyboard-response","227","255217","0.0-1.0-315.0","0","0","76385","","null","","","null","34","","","","","","","","","","","","","","","NaN",""
"","S1","","html-keyboard-response","228","255472","0.0-1.0-317.0","0","0","76385","","null","","","null","35","","","","","","","","","","","","","","","",""
"","ISI","","html-keyboard-response","229","256484","0.0-1.0-318.0","0","0","76385","","null","","","null","35","NaN","","","","","","","","","","","","","","",""
"","S2","","html-keyboard-response","230","256744","0.0-1.0-319.0","0","0","76385","","null","","","null","35","","NaN","","","","","","","","","","","","","",""
"","response","","html-keyboard-response","231","257378","0.0-1.0-320.0-0.0","0","0","76385","","633","","","68","35","","","1","35","training","adjacent","BC","2","3","L.jpg","M.jpg","0","1","0","",""
"","feedback","","html-keyboard-response","232","258387","0.0-1.0-321.0-0.0","0","0","76385","","null","","","null","35","","","","","","","","","","","","","","","",""
"","time_out","","html-keyboard-response","233","260395","0.0-1.0-323.0-0.0","0","0","76385","","null","","","null","35","","","","","","","","","","","","","","","",""
"","ITI","","html-keyboard-response","234","261404","0.0-1.0-324.0","0","0","76385","","null","","","null","35","","","","","","","","","","","","","","","NaN",""
"","S1","","html-keyboard-response","235","261667","0.0-1.0-326.0","0","0","76385","","null","","","null","36","","","","","","","","","","","","","","","",""
"","ISI","","html-keyboard-response","236","262676","0.0-1.0-327.0","0","0","76385","","null","","","null","36","NaN","","","","","","","","","","","","","","",""
"","S2","","html-keyboard-response","237","262938","0.0-1.0-328.0","0","0","76385","","null","","","null","36","","NaN","","","","","","","","","","","","","",""
"","response","","html-keyboard-response","238","263422","0.0-1.0-329.0-0.0","0","0","76385","","483","","","75","36","","","1","36","training","adjacent","BC","2","3","L.jpg","M.jpg","1","1","1","",""
"","feedback","","html-keyboard-response","239","264433","0.0-1.0-330.0-0.0","0","0","76385","","null","","","null","36","","","","","","","","","","","","","","","",""
"","ITI","","html-keyboard-response","240","265440","0.0-1.0-333.0","0","0","76385","","null","","","null","36","","","","","","","","","","","","","","","NaN",""
"","S1","","html-keyboard-response","241","265701","0.0-1.0-335.0","0","0","76385","","null","","","null","37","","","","","","","","","","","","","","","",""
"","ISI","","html-keyboard-response","242","266706","0.0-1.0-336.0","0","0","76385","","null","","","null","37","NaN","","","","","","","","","","","","","","",""
"","S2","","html-keyboard-response","243","266961","0.0-1.0-337.0","0","0","76385","","null","","","null","37","","NaN","","","","","","","","","","","","","",""
"","response","","html-keyboard-response","244","267579","0.0-1.0-338.0-0.0","0","0","76385","","617","","","75","37","","","1","37","training","adjacent","CB","3","2","M.jpg","L.jpg","1","0","0","",""
"","feedback","","html-keyboard-response","245","268586","0.0-1.0-339.0-0.0","0","0","76385","","null","","","null","37","","","","","","","","","","","","","","","",""
"","time_out","","html-keyboard-response","246","270595","0.0-1.0-341.0-0.0","0","0","76385","","null","","","null","37","","","","","","","","","","","","","","","",""
"","ITI","","html-keyboard-response","247","271605","0.0-1.0-342.0","0","0","76385","","null","","","null","37","","","","","","","","","","","","","","","NaN",""
"","S1","","html-keyboard-response","248","271866","0.0-1.0-344.0","0","0","76385","","null","","","null","38","","","","","","","","","","","","","","","",""
"","ISI","","html-keyboard-response","249","272876","0.0-1.0-345.0","0","0","76385","","null","","","null","38","NaN","","","","","","","","","","","","","","",""
"","S2","","html-keyboard-response","250","273137","0.0-1.0-346.0","0","0","76385","","null","","","null","38","","NaN","","","","","","","","","","","","","",""
"","response","","html-keyboard-response","251","273961","0.0-1.0-347.0-0.0","0","0","76385","","821","","","75","38","","","1","38","training","adjacent","EF","5","6","N.jpg","O.jpg","1","1","1","",""
"","feedback","","html-keyboard-response","252","274972","0.0-1.0-348.0-0.0","0","0","76385","","null","","","null","38","","","","","","","","","","","","","","","",""
"","ITI","","html-keyboard-response","253","275977","0.0-1.0-351.0","0","0","76385","","null","","","null","38","","","","","","","","","","","","","","","NaN",""
"","S1","","html-keyboard-response","254","276237","0.0-1.0-353.0","0","0","76385","","null","","","null","39","","","","","","","","","","","","","","","",""
"","ISI","","html-keyboard-response","255","277242","0.0-1.0-354.0","0","0","76385","","null","","","null","39","NaN","","","","","","","","","","","","","","",""
"","S2","","html-keyboard-response","256","277500","0.0-1.0-355.0","0","0","76385","","null","","","null","39","","NaN","","","","","","","","","","","","","",""
"","response","","html-keyboard-response","257","278519","0.0-1.0-356.0-0.0","0","0","76385","","1017","","","75","39","","","1","39","training","adjacent","ED","5","4","N.jpg","P.jpg","1","0","0","",""
"","feedback","","html-keyboard-response","258","279529","0.0-1.0-357.0-0.0","0","0","76385","","null","","","null","39","","","","","","","","","","","","","","","",""
"","time_out","","html-keyboard-response","259","281538","0.0-1.0-359.0-0.0","0","0","76385","","null","","","null","39","","","","","","","","","","","","","","","",""
"","ITI","","html-keyboard-response","260","282548","0.0-1.0-360.0","0","0","76385","","null","","","null","39","","","","","","","","","","","","","","","NaN",""
"","S1","","html-keyboard-response","261","282803","0.0-1.0-362.0","0","0","76385","","null","","","null","40","","","","","","","","","","","","","","","",""
"","ISI","","html-keyboard-response","262","283813","0.0-1.0-363.0","0","0","76385","","null","","","null","40","NaN","","","","","","","","","","","","","","",""
"","S2","","html-keyboard-response","263","284074","0.0-1.0-364.0","0","0","76385","","null","","","null","40","","NaN","","","","","","","","","","","","","",""
"","response","","html-keyboard-response","264","285004","0.0-1.0-365.0-0.0","0","0","76385","","927","","","68","40","","","1","40","training","adjacent","DE","4","5","P.jpg","N.jpg","0","1","0","",""
"","feedback","","html-keyboard-response","265","286013","0.0-1.0-366.0-0.0","0","0","76385","","null","","","null","40","","","","","","","","","","","","","","","",""
"","time_out","","html-keyboard-response","266","288017","0.0-1.0-368.0-0.0","0","0","76385","","null","","","null","40","","","","","","","","","","","","","","","",""
"","ITI","","html-keyboard-response","267","289026","0.0-1.0-369.0","0","0","76385","","null","","","null","40","","","","","","","","","","","","","","","NaN",""
"","S1","","html-keyboard-response","268","289281","0.0-1.0-371.0","0","0","76385","","null","","","null","41","","","","","","","","","","","","","","","",""
"","ISI","","html-keyboard-response","269","290292","0.0-1.0-372.0","0","0","76385","","null","","","null","41","NaN","","","","","","","","","","","","","","",""
"","S2","","html-keyboard-response","270","290547","0.0-1.0-373.0","0","0","76385","","null","","","null","41","","NaN","","","","","","","","","","","","","",""
"","response","","html-keyboard-response","271","291341","0.0-1.0-374.0-0.0","0","0","76385","","790","","","75","41","","","1","41","training","adjacent","AB","1","2","R.jpg","L.jpg","1","1","1","",""
"","feedback","","html-keyboard-response","272","292347","0.0-1.0-375.0-0.0","0","0","76385","","null","","","null","41","","","","","","","","","","","","","","","",""
"","ITI","","html-keyboard-response","273","293357","0.0-1.0-378.0","0","0","76385","","null","","","null","41","","","","","","","","","","","","","","","NaN",""
"","S1","","html-keyboard-response","274","293619","0.0-1.0-380.0","0","0","76385","","null","","","null","42","","","","","","","","","","","","","","","",""
"","ISI","","html-keyboard-response","275","294628","0.0-1.0-381.0","0","0","76385","","null","","","null","42","NaN","","","","","","","","","","","","","","",""
"","S2","","html-keyboard-response","276","294883","0.0-1.0-382.0","0","0","76385","","null","","","null","42","","NaN","","","","","","","","","","","","","",""
"","response","","html-keyboard-response","277","295634","0.0-1.0-383.0-0.0","0","0","76385","","749","","","68","42","","","1","42","training","adjacent","FG","6","7","O.jpg","Q.jpg","0","1","0","",""
"","feedback","","html-keyboard-response","278","296642","0.0-1.0-384.0-0.0","0","0","76385","","null","","","null","42","","","","","","","","","","","","","","","",""
"","time_out","","html-keyboard-response","279","298651","0.0-1.0-386.0-0.0","0","0","76385","","null","","","null","42","","","","","","","","","","","","","","","",""
"","ITI","","html-keyboard-response","280","299661","0.0-1.0-387.0","0","0","76385","","null","","","null","42","","","","","","","","","","","","","","","NaN",""
"","S1","","html-keyboard-response","281","299922","0.0-1.0-389.0","0","0","76385","","null","","","null","43","","","","","","","","","","","","","","","",""
"","ISI","","html-keyboard-response","282","300932","0.0-1.0-390.0","0","0","76385","","null","","","null","43","NaN","","","","","","","","","","","","","","",""
"","S2","","html-keyboard-response","283","301189","0.0-1.0-391.0","0","0","76385","","null","","","null","43","","NaN","","","","","","","","","","","","","",""
"","response","","html-keyboard-response","284","302141","0.0-1.0-392.0-0.0","0","0","76385","","951","","","75","43","","","1","43","training","adjacent","DE","4","5","P.jpg","N.jpg","1","1","1","",""
"","feedback","","html-keyboard-response","285","303150","0.0-1.0-393.0-0.0","0","0","76385","","null","","","null","43","","","","","","","","","","","","","","","",""
"","ITI","","html-keyboard-response","286","304154","0.0-1.0-396.0","0","0","76385","","null","","","null","43","","","","","","","","","","","","","","","NaN",""
"","S1","","html-keyboard-response","287","304410","0.0-1.0-398.0","0","0","76385","","null","","","null","44","","","","","","","","","","","","","","","",""
"","ISI","","html-keyboard-response","288","305420","0.0-1.0-399.0","0","0","76385","","null","","","null","44","NaN","","","","","","","","","","","","","","",""
"","S2","","html-keyboard-response","289","305675","0.0-1.0-400.0","0","0","76385","","null","","","null","44","","NaN","","","","","","","","","","","","","",""
"","response","","html-keyboard-response","290","306355","0.0-1.0-401.0-0.0","0","0","76385","","678","","","75","44","","","1","44","training","adjacent","DC","4","3","P.jpg","M.jpg","1","0","0","",""
"","feedback","","html-keyboard-response","291","307364","0.0-1.0-402.0-0.0","0","0","76385","","null","","","null","44","","","","","","","","","","","","","","","",""
"","time_out","","html-keyboard-response","292","309372","0.0-1.0-404.0-0.0","0","0","76385","","null","","","null","44","","","","","","","","","","","","","","","",""
"","ITI","","html-keyboard-response","293","310378","0.0-1.0-405.0","0","0","76385","","null","","","null","44","","","","","","","","","","","","","","","NaN",""
"","S1","","html-keyboard-response","294","310633","0.0-1.0-407.0","0","0","76385","","null","","","null","45","","","","","","","","","","","","","","","",""
"","ISI","","html-keyboard-response","295","311645","0.0-1.0-408.0","0","0","76385","","null","","","null","45","NaN","","","","","","","","","","","","","","",""
"","S2","","html-keyboard-response","296","311910","0.0-1.0-409.0","0","0","76385","","null","","","null","45","","NaN","","","","","","","","","","","","","",""
"","response","","html-keyboard-response","297","312820","0.0-1.0-410.0-0.0","0","0","76385","","909","","","68","45","","","1","45","training","adjacent","CB","3","2","M.jpg","L.jpg","0","0","1","",""
"","feedback","","html-keyboard-response","298","313829","0.0-1.0-411.0-0.0","0","0","76385","","null","","","null","45","","","","","","","","","","","","","","","",""
"","ITI","","html-keyboard-response","299","314835","0.0-1.0-414.0","0","0","76385","","null","","","null","45","","","","","","","","","","","","","","","NaN",""
"","S1","","html-keyboard-response","300","315091","0.0-1.0-416.0","0","0","76385","","null","","","null","46","","","","","","","","","","","","","","","",""
"","ISI","","html-keyboard-response","301","316101","0.0-1.0-417.0","0","0","76385","","null","","","null","46","NaN","","","","","","","","","","","","","","",""
"","S2","","html-keyboard-response","302","316366","0.0-1.0-418.0","0","0","76385","","null","","","null","46","","NaN","","","","","","","","","","","","","",""
"","response","","html-keyboard-response","303","317417","0.0-1.0-419.0-0.0","0","0","76385","","1049","","","75","46","","","1","46","training","adjacent","CD","3","4","M.jpg","P.jpg","1","1","1","",""
"","feedback","","html-keyboard-response","304","318429","0.0-1.0-420.0-0.0","0","0","76385","","null","","","null","46","","","","","","","","","","","","","","","",""
"","ITI","","html-keyboard-response","305","319437","0.0-1.0-423.0","0","0","76385","","null","","","null","46","","","","","","","","","","","","","","","NaN",""
"","S1","","html-keyboard-response","306","319700","0.0-1.0-425.0","0","0","76385","","null","","","null","47","","","","","","","","","","","","","","","",""
"","ISI","","html-keyboard-response","307","320710","0.0-1.0-426.0","0","0","76385","","null","","","null","47","NaN","","","","","","","","","","","","","","",""
"","S2","","html-keyboard-response","308","320971","0.0-1.0-427.0","0","0","76385","","null","","","null","47","","NaN","","","","","","","","","","","","","",""
"","response","","html-keyboard-response","309","321837","0.0-1.0-428.0-0.0","0","0","76385","","864","","","68","47","","","1","47","training","adjacent","FE","6","5","O.jpg","N.jpg","0","0","1","",""
"","feedback","","html-keyboard-response","310","322845","0.0-1.0-429.0-0.0","0","0","76385","","null","","","null","47","","","","","","","","","","","","","","","",""
"","ITI","","html-keyboard-response","311","323851","0.0-1.0-432.0","0","0","76385","","null","","","null","47","","","","","","","","","","","","","","","NaN",""
"","block_over","","html-keyboard-response","312","329150","0.0-1.0-433.0-0.0","0","0","76385","","5297","","","32","47","","","","","","","","","","","","","","","",""
"","S1","","html-keyboard-response","313","329413","0.0-1.0-434.0","0","0","76385","","null","","","null","48","","","","","","","","","","","","","","","",""
"","ISI","","html-keyboard-response","314","330422","0.0-1.0-435.0","0","0","76385","","null","","","null","48","NaN","","","","","","","","","","","","","","",""
"","S2","","html-keyboard-response","315","330683","0.0-1.0-436.0","0","0","76385","","null","","","null","48","","NaN","","","","","","","","","","","","","",""
"","response","","html-keyboard-response","316","331590","0.0-1.0-437.0-0.0","0","0","76385","","904","","","68","48","","","2","48","training","adjacent","FG","6","7","O.jpg","Q.jpg","0","1","0","",""
"","feedback","","html-keyboard-response","317","332599","0.0-1.0-438.0-0.0","0","0","76385","","null","","","null","48","","","","","","","","","","","","","","","",""
"","time_out","","html-keyboard-response","318","334607","0.0-1.0-440.0-0.0","0","0","76385","","null","","","null","48","","","","","","","","","","","","","","","",""
"","ITI","","html-keyboard-response","319","335612","0.0-1.0-441.0","0","0","76385","","null","","","null","48","","","","","","","","","","","","","","","NaN",""
"","S1","","html-keyboard-response","320","335868","0.0-1.0-443.0","0","0","76385","","null","","","null","49","","","","","","","","","","","","","","","",""
"","ISI","","html-keyboard-response","321","336878","0.0-1.0-444.0","0","0","76385","","null","","","null","49","NaN","","","","","","","","","","","","","","",""
"","S2","","html-keyboard-response","322","337141","0.0-1.0-445.0","0","0","76385","","null","","","null","49","","NaN","","","","","","","","","","","","","",""
"","response","","html-keyboard-response","323","338137","0.0-1.0-446.0-0.0","0","0","76385","","994","","","68","49","","","2","49","training","adjacent","BA","2","1","L.jpg","R.jpg","0","0","1","",""
"","feedback","","html-keyboard-response","324","339147","0.0-1.0-447.0-0.0","0","0","76385","","null","","","null","49","","","","","","","","","","","","","","","",""
"","ITI","","html-keyboard-response","325","340158","0.0-1.0-450.0","0","0","76385","","null","","","null","49","","","","","","","","","","","","","","","NaN",""
"","S1","","html-keyboard-response","326","340419","0.0-1.0-452.0","0","0","76385","","null","","","null","50","","","","","","","","","","","","","","","",""
"","ISI","","html-keyboard-response","327","341428","0.0-1.0-453.0","0","0","76385","","null","","","null","50","NaN","","","","","","","","","","","","","","",""
"","S2","","html-keyboard-response","328","341684","0.0-1.0-454.0","0","0","76385","","null","","","null","50","","NaN","","","","","","","","","","","","","",""
"","response","","html-keyboard-response","329","342324","0.0-1.0-455.0-0.0","0","0","76385","","638","","","68","50","","","2","50","training","adjacent","BA","2","1","L.jpg","R.jpg","0","0","1","",""
"","feedback","","html-keyboard-response","330","343333","0.0-1.0-456.0-0.0","0","0","76385","","null","","","null","50","","","","","","","","","","","","","","","",""
"","ITI","","html-keyboard-response","331","344339","0.0-1.0-459.0","0","0","76385","","null","","","null","50","","","","","","","","","","","","","","","NaN",""
"","S1","","html-keyboard-response","332","344598","0.0-1.0-461.0","0","0","76385","","null","","","null","51","","","","","","","","","","","","","","","",""
"","ISI","","html-keyboard-response","333","345603","0.0-1.0-462.0","0","0","76385","","null","","","null","51","NaN","","","","","","","","","","","","","","",""
"","S2","","html-keyboard-response","334","345862","0.0-1.0-463.0","0","0","76385","","null","","","null","51","","NaN","","","","","","","","","","","","","",""
"","response","","html-keyboard-response","335","346111","0.0-1.0-464.0-0.0","0","0","76385","","247","","","68","51","","","2","51","training","adjacent","BC","2","3","L.jpg","M.jpg","0","1","0","",""
"","feedback","","html-keyboard-response","336","347118","0.0-1.0-465.0-0.0","0","0","76385","","null","","","null","51","","","","","","","","","","","","","","","",""
"","time_out","","html-keyboard-response","337","349126","0.0-1.0-467.0-0.0","0","0","76385","","null","","","null","51","","","","","","","","","","","","","","","",""
"","ITI","","html-keyboard-response","338","350131","0.0-1.0-468.0","0","0","76385","","null","","","null","51","","","","","","","","","","","","","","","NaN",""
"","S1","","html-keyboard-response","339","350386","0.0-1.0-470.0","0","0","76385","","null","","","null","52","","","","","","","","","","","","","","","",""
"","ISI","","html-keyboard-response","340","351398","0.0-1.0-471.0","0","0","76385","","null","","","null","52","NaN","","","","","","","","","","","","","","",""
"","S2","","html-keyboard-response","341","351662","0.0-1.0-472.0","0","0","76385","","null","","","null","52","","NaN","","","","","","","","","","","","","",""
"","response","","html-keyboard-response","342","353018","0.0-1.0-473.0-0.0","0","0","76385","","1355","","","68","52","","","2","52","training","adjacent","FE","6","5","O.jpg","N.jpg","0","0","1","",""
"","feedback","","html-keyboard-response","343","354029","0.0-1.0-474.0-0.0","0","0","76385","","null","","","null","52","","","","","","","","","","","","","","","",""
"","ITI","","html-keyboard-response","344","355036","0.0-1.0-477.0","0","0","76385","","null","","","null","52","","","","","","","","","","","","","","","NaN",""
"","S1","","html-keyboard-response","345","355291","0.0-1.0-479.0","0","0","76385","","null","","","null","53","","","","","","","","","","","","","","","",""
"","ISI","","html-keyboard-response","346","356301","0.0-1.0-480.0","0","0","76385","","null","","","null","53","NaN","","","","","","","","","","","","","","",""
"","S2","","html-keyboard-response","347","356563","0.0-1.0-481.0","0","0","76385","","null","","","null","53","","NaN","","","","","","","","","","","","","",""
"","response","","html-keyboard-response","348","357034","0.0-1.0-482.0-0.0","0","0","76385","","469","","","75","53","","","2","53","training","adjacent","GF","7","6","Q.jpg","O.jpg","1","0","0","",""
"","feedback","","html-keyboard-response","349","358043","0.0-1.0-483.0-0.0","0","0","76385","","null","","","null","53","","","","","","","","","","","","","","","",""
"","time_out","","html-keyboard-response","350","360052","0.0-1.0-485.0-0.0","0","0","76385","","null","","","null","53","","","","","","","","","","","","","","","",""
"","ITI","","html-keyboard-response","351","361061","0.0-1.0-486.0","0","0","76385","","null","","","null","53","","","","","","","","","","","","","","","NaN",""
"","S1","","html-keyboard-response","352","361317","0.0-1.0-488.0","0","0","76385","","null","","","null","54","","","","","","","","","","","","","","","",""
"","ISI","","html-keyboard-response","353","362323","0.0-1.0-489.0","0","0","76385","","null","","","null","54","NaN","","","","","","","","","","","","","","",""
"","S2","","html-keyboard-response","354","362582","0.0-1.0-490.0","0","0","76385","","null","","","null","54","","NaN","","","","","","","","","","","","","",""
"","response","","html-keyboard-response","355","363640","0.0-1.0-491.0-0.0","0","0","76385","","1056","","","68","54","","","2","54","training","adjacent","DC","4","3","P.jpg","M.jpg","0","0","1","",""
"","feedback","","html-keyboard-response","356","364654","0.0-1.0-492.0-0.0","0","0","76385","","null","","","null","54","","","","","","","","","","","","","","","",""
"","ITI","","html-keyboard-response","357","365659","0.0-1.0-495.0","0","0","76385","","null","","","null","54","","","","","","","","","","","","","","","NaN",""
"","S1","","html-keyboard-response","358","365915","0.0-1.0-497.0","0","0","76385","","null","","","null","55","","","","","","","","","","","","","","","",""
"","ISI","","html-keyboard-response","359","366925","0.0-1.0-498.0","0","0","76385","","null","","","null","55","NaN","","","","","","","","","","","","","","",""
"","S2","","html-keyboard-response","360","367180","0.0-1.0-499.0","0","0","76385","","null","","","null","55","","NaN","","","","","","","","","","","","","",""
"","response","","html-keyboard-response","361","368273","0.0-1.0-500.0-0.0","0","0","76385","","1090","","","75","55","","","2","55","training","adjacent","EF","5","6","N.jpg","O.jpg","1","1","1","",""
"","feedback","","html-keyboard-response","362","369287","0.0-1.0-501.0-0.0","0","0","76385","","null","","","null","55","","","","","","","","","","","","","","","",""
"","ITI","","html-keyboard-response","363","370292","0.0-1.0-504.0","0","0","76385","","null","","","null","55","","","","","","","","","","","","","","","NaN",""
"","S1","","html-keyboard-response","364","370547","0.0-1.0-506.0","0","0","76385","","null","","","null","56","","","","","","","","","","","","","","","",""
"","ISI","","html-keyboard-response","365","371558","0.0-1.0-507.0","0","0","76385","","null","","","null","56","NaN","","","","","","","","","","","","","","",""
"","S2","","html-keyboard-response","366","371818","0.0-1.0-508.0","0","0","76385","","null","","","null","56","","NaN","","","","","","","","","","","","","",""
"","response","","html-keyboard-response","367","373138","0.0-1.0-509.0-0.0","0","0","76385","","1318","","","68","56","","","2","56","training","adjacent","AB","1","2","R.jpg","L.jpg","0","1","0","",""
"","feedback","","html-keyboard-response","368","374150","0.0-1.0-510.0-0.0","0","0","76385","","null","","","null","56","","","","","","","","","","","","","","","",""
"","time_out","","html-keyboard-response","369","376155","0.0-1.0-512.0-0.0","0","0","76385","","null","","","null","56","","","","","","","","","","","","","","","",""
"","ITI","","html-keyboard-response","370","377167","0.0-1.0-513.0","0","0","76385","","null","","","null","56","","","","","","","","","","","","","","","NaN",""
"","S1","","html-keyboard-response","371","377427","0.0-1.0-515.0","0","0","76385","","null","","","null","57","","","","","","","","","","","","","","","",""
"","ISI","","html-keyboard-response","372","378436","0.0-1.0-516.0","0","0","76385","","null","","","null","57","NaN","","","","","","","","","","","","","","",""
"","S2","","html-keyboard-response","373","378695","0.0-1.0-517.0","0","0","76385","","null","","","null","57","","NaN","","","","","","","","","","","","","",""
"","response","","html-keyboard-response","374","379940","0.0-1.0-518.0-0.0","0","0","76385","","1244","","","75","57","","","2","57","training","adjacent","CB","3","2","M.jpg","L.jpg","1","0","0","",""
"","feedback","","html-keyboard-response","375","380950","0.0-1.0-519.0-0.0","0","0","76385","","null","","","null","57","","","","","","","","","","","","","","","",""
"","time_out","","html-keyboard-response","376","382959","0.0-1.0-521.0-0.0","0","0","76385","","null","","","null","57","","","","","","","","","","","","","","","",""
"","ITI","","html-keyboard-response","377","383964","0.0-1.0-522.0","0","0","76385","","null","","","null","57","","","","","","","","","","","","","","","NaN",""
"","S1","","html-keyboard-response","378","384224","0.0-1.0-524.0","0","0","76385","","null","","","null","58","","","","","","","","","","","","","","","",""
"","ISI","","html-keyboard-response","379","385231","0.0-1.0-525.0","0","0","76385","","null","","","null","58","NaN","","","","","","","","","","","","","","",""
"","S2","","html-keyboard-response","380","385495","0.0-1.0-526.0","0","0","76385","","null","","","null","58","","NaN","","","","","","","","","","","","","",""
"","response","","html-keyboard-response","381","386540","0.0-1.0-527.0-0.0","0","0","76385","","1043","","","68","58","","","2","58","training","adjacent","FG","6","7","O.jpg","Q.jpg","0","1","0","",""
"","feedback","","html-keyboard-response","382","387550","0.0-1.0-528.0-0.0","0","0","76385","","null","","","null","58","","","","","","","","","","","","","","","",""
"","time_out","","html-keyboard-response","383","389559","0.0-1.0-530.0-0.0","0","0","76385","","null","","","null","58","","","","","","","","","","","","","","","",""
"","ITI","","html-keyboard-response","384","390567","0.0-1.0-531.0","0","0","76385","","null","","","null","58","","","","","","","","","","","","","","","NaN",""
"","S1","","html-keyboard-response","385","390830","0.0-1.0-533.0","0","0","76385","","null","","","null","59","","","","","","","","","","","","","","","",""
"","ISI","","html-keyboard-response","386","391835","0.0-1.0-534.0","0","0","76385","","null","","","null","59","NaN","","","","","","","","","","","","","","",""
"","S2","","html-keyboard-response","387","392095","0.0-1.0-535.0","0","0","76385","","null","","","null","59","","NaN","","","","","","","","","","","","","",""
"","response","","html-keyboard-response","388","392738","0.0-1.0-536.0-0.0","0","0","76385","","641","","","75","59","","","2","59","training","adjacent","AB","1","2","R.jpg","L.jpg","1","1","1","",""
"","feedback","","html-keyboard-response","389","393750","0.0-1.0-537.0-0.0","0","0","76385","","null","","","null","59","","","","","","","","","","","","","","","",""
"","ITI","","html-keyboard-response","390","394758","0.0-1.0-540.0","0","0","76385","","null","","","null","59","","","","","","","","","","","","","","","NaN",""
"","S1","","html-keyboard-response","391","395015","0.0-1.0-542.0","0","0","76385","","null","","","null","60","","","","","","","","","","","","","","","",""
"","ISI","","html-keyboard-response","392","396020","0.0-1.0-543.0","0","0","76385","","null","","","null","60","NaN","","","","","","","","","","","","","","",""
"","S2","","html-keyboard-response","393","396275","0.0-1.0-544.0","0","0","76385","","null","","","null","60","","NaN","","","","","","","","","","","","","",""
"","response","","html-keyboard-response","394","397056","0.0-1.0-545.0-0.0","0","0","76385","","779","","","68","60","","","2","60","training","adjacent","CD","3","4","M.jpg","P.jpg","0","1","0","",""
"","feedback","","html-keyboard-response","395","398063","0.0-1.0-546.0-0.0","0","0","76385","","null","","","null","60","","","","","","","","","","","","","","","",""
"","time_out","","html-keyboard-response","396","400072","0.0-1.0-548.0-0.0","0","0","76385","","null","","","null","60","","","","","","","","","","","","","","","",""
"","ITI","","html-keyboard-response","397","401076","0.0-1.0-549.0","0","0","76385","","null","","","null","60","","","","","","","","","","","","","","","NaN",""
"","S1","","html-keyboard-response","398","401332","0.0-1.0-551.0","0","0","76385","","null","","","null","61","","","","","","","","","","","","","","","",""
"","ISI","","html-keyboard-response","399","402342","0.0-1.0-552.0","0","0","76385","","null","","","null","61","NaN","","","","","","","","","","","","","","",""
"","S2","","html-keyboard-response","400","402597","0.0-1.0-553.0","0","0","76385","","null","","","null","61","","NaN","","","","","","","","","","","","","",""
"","response","","html-keyboard-response","401","403484","0.0-1.0-554.0-0.0","0","0","76385","","885","","","68","61","","","2","61","training","adjacent","DC","4","3","P.jpg","M.jpg","0","0","1","",""
"","feedback","","html-keyboard-response","402","404495","0.0-1.0-555.0-0.0","0","0","76385","","null","","","null","61","","","","","","","","","","","","","","","",""
"","ITI","","html-keyboard-response","403","405499","0.0-1.0-558.0","0","0","76385","","null","","","null","61","","","","","","","","","","","","","","","NaN",""
"","S1","","html-keyboard-response","404","405758","0.0-1.0-560.0","0","0","76385","","null","","","null","62","","","","","","","","","","","","","","","",""
"","ISI","","html-keyboard-response","405","406765","0.0-1.0-561.0","0","0","76385","","null","","","null","62","NaN","","","","","","","","","","","","","","",""
"","S2","","html-keyboard-response","406","407021","0.0-1.0-562.0","0","0","76385","","null","","","null","62","","NaN","","","","","","","","","","","","","",""
"","response","","html-keyboard-response","407","407896","0.0-1.0-563.0-0.0","0","0","76385","","873","","","75","62","","","2","62","training","adjacent","ED","5","4","N.jpg","P.jpg","1","0","0","",""
"","feedback","","html-keyboard-response","408","408902","0.0-1.0-564.0-0.0","0","0","76385","","null","","","null","62","","","","","","","","","","","","","","","",""
"","time_out","","html-keyboard-response","409","410911","0.0-1.0-566.0-0.0","0","0","76385","","null","","","null","62","","","","","","","","","","","","","","","",""
"","ITI","","html-keyboard-response","410","411918","0.0-1.0-567.0","0","0","76385","","null","","","null","62","","","","","","","","","","","","","","","NaN",""
"","S1","","html-keyboard-response","411","412175","0.0-1.0-569.0","0","0","76385","","null","","","null","63","","","","","","","","","","","","","","","",""
"","ISI","","html-keyboard-response","412","413180","0.0-1.0-570.0","0","0","76385","","null","","","null","63","NaN","","","","","","","","","","","","","","",""
"","S2","","html-keyboard-response","413","413435","0.0-1.0-571.0","0","0","76385","","null","","","null","63","","NaN","","","","","","","","","","","","","",""
"","response","","html-keyboard-response","414","413970","0.0-1.0-572.0-0.0","0","0","76385","","532","","","68","63","","","2","63","training","adjacent","BA","2","1","L.jpg","R.jpg","0","0","1","",""
"","feedback","","html-keyboard-response","415","414980","0.0-1.0-573.0-0.0","0","0","76385","","null","","","null","63","","","","","","","","","","","","","","","",""
"","ITI","","html-keyboard-response","416","415989","0.0-1.0-576.0","0","0","76385","","null","","","null","63","","","","","","","","","","","","","","","NaN",""
"","S1","","html-keyboard-response","417","416247","0.0-1.0-578.0","0","0","76385","","null","","","null","64","","","","","","","","","","","","","","","",""
"","ISI","","html-keyboard-response","418","417255","0.0-1.0-579.0","0","0","76385","","null","","","null","64","NaN","","","","","","","","","","","","","","",""
"","S2","","html-keyboard-response","419","417516","0.0-1.0-580.0","0","0","76385","","null","","","null","64","","NaN","","","","","","","","","","","","","",""
"","response","","html-keyboard-response","420","418424","0.0-1.0-581.0-0.0","0","0","76385","","906","","","68","64","","","2","64","training","adjacent","CB","3","2","M.jpg","L.jpg","0","0","1","",""
"","feedback","","html-keyboard-response","421","419432","0.0-1.0-582.0-0.0","0","0","76385","","null","","","null","64","","","","","","","","","","","","","","","",""
"","ITI","","html-keyboard-response","422","420436","0.0-1.0-585.0","0","0","76385","","null","","","null","64","","","","","","","","","","","","","","","NaN",""
"","S1","","html-keyboard-response","423","420692","0.0-1.0-587.0","0","0","76385","","null","","","null","65","","","","","","","","","","","","","","","",""
"","ISI","","html-keyboard-response","424","421702","0.0-1.0-588.0","0","0","76385","","null","","","null","65","NaN","","","","","","","","","","","","","","",""
"","S2","","html-keyboard-response","425","421957","0.0-1.0-589.0","0","0","76385","","null","","","null","65","","NaN","","","","","","","","","","","","","",""
"","response","","html-keyboard-response","426","422477","0.0-1.0-590.0-0.0","0","0","76385","","518","","","68","65","","","2","65","training","adjacent","FE","6","5","O.jpg","N.jpg","0","0","1","",""
"","feedback","","html-keyboard-response","427","423484","0.0-1.0-591.0-0.0","0","0","76385","","null","","","null","65","","","","","","","","","","","","","","","",""
"","ITI","","html-keyboard-response","428","424494","0.0-1.0-594.0","0","0","76385","","null","","","null","65","","","","","","","","","","","","","","","NaN",""
"","S1","","html-keyboard-response","429","424751","0.0-1.0-596.0","0","0","76385","","null","","","null","66","","","","","","","","","","","","","","","",""
"","ISI","","html-keyboard-response","430","425759","0.0-1.0-597.0","0","0","76385","","null","","","null","66","NaN","","","","","","","","","","","","","","",""
"","S2","","html-keyboard-response","431","426024","0.0-1.0-598.0","0","0","76385","","null","","","null","66","","NaN","","","","","","","","","","","","","",""
"","response","","html-keyboard-response","432","426558","0.0-1.0-599.0-0.0","0","0","76385","","533","","","68","66","","","2","66","training","adjacent","DE","4","5","P.jpg","N.jpg","0","1","0","",""
"","feedback","","html-keyboard-response","433","427565","0.0-1.0-600.0-0.0","0","0","76385","","null","","","null","66","","","","","","","","","","","","","","","",""
"","time_out","","html-keyboard-response","434","429573","0.0-1.0-602.0-0.0","0","0","76385","","null","","","null","66","","","","","","","","","","","","","","","",""
"","ITI","","html-keyboard-response","435","430584","0.0-1.0-603.0","0","0","76385","","null","","","null","66","","","","","","","","","","","","","","","NaN",""
"","S1","","html-keyboard-response","436","430845","0.0-1.0-605.0","0","0","76385","","null","","","null","67","","","","","","","","","","","","","","","",""
"","ISI","","html-keyboard-response","437","431854","0.0-1.0-606.0","0","0","76385","","null","","","null","67","NaN","","","","","","","","","","","","","","",""
"","S2","","html-keyboard-response","438","432110","0.0-1.0-607.0","0","0","76385","","null","","","null","67","","NaN","","","","","","","","","","","","","",""
"","response","","html-keyboard-response","439","432919","0.0-1.0-608.0-0.0","0","0","76385","","807","","","68","67","","","2","67","training","adjacent","FE","6","5","O.jpg","N.jpg","0","0","1","",""
"","feedback","","html-keyboard-response","440","433927","0.0-1.0-609.0-0.0","0","0","76385","","null","","","null","67","","","","","","","","","","","","","","","",""
"","ITI","","html-keyboard-response","441","434935","0.0-1.0-612.0","0","0","76385","","null","","","null","67","","","","","","","","","","","","","","","NaN",""
"","S1","","html-keyboard-response","442","435189","0.0-1.0-614.0","0","0","76385","","null","","","null","68","","","","","","","","","","","","","","","",""
"","ISI","","html-keyboard-response","443","436197","0.0-1.0-615.0","0","0","76385","","null","","","null","68","NaN","","","","","","","","","","","","","","",""
"","S2","","html-keyboard-response","444","436457","0.0-1.0-616.0","0","0","76385","","null","","","null","68","","NaN","","","","","","","","","","","","","",""
"","response","","html-keyboard-response","445","436863","0.0-1.0-617.0-0.0","0","0","76385","","405","","","75","68","","","2","68","training","adjacent","CD","3","4","M.jpg","P.jpg","1","1","1","",""
"","feedback","","html-keyboard-response","446","437868","0.0-1.0-618.0-0.0","0","0","76385","","null","","","null","68","","","","","","","","","","","","","","","",""
"","ITI","","html-keyboard-response","447","438879","0.0-1.0-621.0","0","0","76385","","null","","","null","68","","","","","","","","","","","","","","","NaN",""
"","S1","","html-keyboard-response","448","439141","0.0-1.0-623.0","0","0","76385","","null","","","null","69","","","","","","","","","","","","","","","",""
"","ISI","","html-keyboard-response","449","440151","0.0-1.0-624.0","0","0","76385","","null","","","null","69","NaN","","","","","","","","","","","","","","",""
"","S2","","html-keyboard-response","450","440409","0.0-1.0-625.0","0","0","76385","","null","","","null","69","","NaN","","","","","","","","","","","","","",""
"","response","","html-keyboard-response","451","441411","0.0-1.0-626.0-0.0","0","0","76385","","1001","","","68","69","","","2","69","training","adjacent","FG","6","7","O.jpg","Q.jpg","0","1","0","",""
"","feedback","","html-keyboard-response","452","442420","0.0-1.0-627.0-0.0","0","0","76385","","null","","","null","69","","","","","","","","","","","","","","","",""
"","time_out","","html-keyboard-response","453","444429","0.0-1.0-629.0-0.0","0","0","76385","","null","","","null","69","","","","","","","","","","","","","","","",""
"","ITI","","html-keyboard-response","454","445439","0.0-1.0-630.0","0","0","76385","","null","","","null","69","","","","","","","","","","","","","","","NaN",""
"","S1","","html-keyboard-response","455","445694","0.0-1.0-632.0","0","0","76385","","null","","","null","70","","","","","","","","","","","","","","","",""
"","ISI","","html-keyboard-response","456","446704","0.0-1.0-633.0","0","0","76385","","null","","","null","70","NaN","","","","","","","","","","","","","","",""
"","S2","","html-keyboard-response","457","446966","0.0-1.0-634.0","0","0","76385","","null","","","null","70","","NaN","","","","","","","","","","","","","",""
"","response","","html-keyboard-response","458","447887","0.0-1.0-635.0-0.0","0","0","76385","","920","","","68","70","","","2","70","training","adjacent","BA","2","1","L.jpg","R.jpg","0","0","1","",""
"","feedback","","html-keyboard-response","459","448896","0.0-1.0-636.0-0.0","0","0","76385","","null","","","null","70","","","","","","","","","","","","","","","",""
"","ITI","","html-keyboard-response","460","449903","0.0-1.0-639.0","0","0","76385","","null","","","null","70","","","","","","","","","","","","","","","NaN",""
"","S1","","html-keyboard-response","461","450158","0.0-1.0-641.0","0","0","76385","","null","","","null","71","","","","","","","","","","","","","","","",""
"","ISI","","html-keyboard-response","462","451168","0.0-1.0-642.0","0","0","76385","","null","","","null","71","NaN","","","","","","","","","","","","","","",""
"","S2","","html-keyboard-response","463","451431","0.0-1.0-643.0","0","0","76385","","null","","","null","71","","NaN","","","","","","","","","","","","","",""
"","response","","html-keyboard-response","464","451841","0.0-1.0-644.0-0.0","0","0","76385","","409","","","68","71","","","2","71","training","adjacent","GF","7","6","Q.jpg","O.jpg","0","0","1","",""
"","feedback","","html-keyboard-response","465","452852","0.0-1.0-645.0-0.0","0","0","76385","","null","","","null","71","","","","","","","","","","","","","","","",""
"","ITI","","html-keyboard-response","466","453862","0.0-1.0-648.0","0","0","76385","","null","","","null","71","","","","","","","","","","","","","","","NaN",""
"","S1","","html-keyboard-response","467","454117","0.0-1.0-650.0","0","0","76385","","null","","","null","72","","","","","","","","","","","","","","","",""
"","ISI","","html-keyboard-response","468","455128","0.0-1.0-651.0","0","0","76385","","null","","","null","72","NaN","","","","","","","","","","","","","","",""
"","S2","","html-keyboard-response","469","455389","0.0-1.0-652.0","0","0","76385","","null","","","null","72","","NaN","","","","","","","","","","","","","",""
"","response","","html-keyboard-response","470","456941","0.0-1.0-653.0-0.0","0","0","76385","","1551","","","68","72","","","2","72","training","adjacent","CB","3","2","M.jpg","L.jpg","0","0","1","",""
"","feedback","","html-keyboard-response","471","457951","0.0-1.0-654.0-0.0","0","0","76385","","null","","","null","72","","","","","","","","","","","","","","","",""
"","ITI","","html-keyboard-response","472","458959","0.0-1.0-657.0","0","0","76385","","null","","","null","72","","","","","","","","","","","","","","","NaN",""
"","S1","","html-keyboard-response","473","459214","0.0-1.0-659.0","0","0","76385","","null","","","null","73","","","","","","","","","","","","","","","",""
"","ISI","","html-keyboard-response","474","460225","0.0-1.0-660.0","0","0","76385","","null","","","null","73","NaN","","","","","","","","","","","","","","",""
"","S2","","html-keyboard-response","475","460485","0.0-1.0-661.0","0","0","76385","","null","","","null","73","","NaN","","","","","","","","","","","","","",""
"","response","","html-keyboard-response","476","460902","0.0-1.0-662.0-0.0","0","0","76385","","415","","","75","73","","","2","73","training","adjacent","EF","5","6","N.jpg","O.jpg","1","1","1","",""
"","feedback","","html-keyboard-response","477","461911","0.0-1.0-663.0-0.0","0","0","76385","","null","","","null","73","","","","","","","","","","","","","","","",""
"","ITI","","html-keyboard-response","478","462920","0.0-1.0-666.0","0","0","76385","","null","","","null","73","","","","","","","","","","","","","","","NaN",""
"","S1","","html-keyboard-response","479","463185","0.0-1.0-668.0","0","0","76385","","null","","","null","74","","","","","","","","","","","","","","","",""
"","ISI","","html-keyboard-response","480","464189","0.0-1.0-669.0","0","0","76385","","null","","","null","74","NaN","","","","","","","","","","","","","","",""
"","S2","","html-keyboard-response","481","464445","0.0-1.0-670.0","0","0","76385","","null","","","null","74","","NaN","","","","","","","","","","","","","",""
"","response","","html-keyboard-response","482","465120","0.0-1.0-671.0-0.0","0","0","76385","","674","","","68","74","","","2","74","training","adjacent","BC","2","3","L.jpg","M.jpg","0","1","0","",""
"","feedback","","html-keyboard-response","483","466128","0.0-1.0-672.0-0.0","0","0","76385","","null","","","null","74","","","","","","","","","","","","","","","",""
"","time_out","","html-keyboard-response","484","468136","0.0-1.0-674.0-0.0","0","0","76385","","null","","","null","74","","","","","","","","","","","","","","","",""
"","ITI","","html-keyboard-response","485","469141","0.0-1.0-675.0","0","0","76385","","null","","","null","74","","","","","","","","","","","","","","","NaN",""
"","S1","","html-keyboard-response","486","469397","0.0-1.0-677.0","0","0","76385","","null","","","null","75","","","","","","","","","","","","","","","",""
"","ISI","","html-keyboard-response","487","470407","0.0-1.0-678.0","0","0","76385","","null","","","null","75","NaN","","","","","","","","","","","","","","",""
"","S2","","html-keyboard-response","488","470662","0.0-1.0-679.0","0","0","76385","","null","","","null","75","","NaN","","","","","","","","","","","","","",""
"","response","","html-keyboard-response","489","471353","0.0-1.0-680.0-0.0","0","0","76385","","689","","","68","75","","","2","75","training","adjacent","ED","5","4","N.jpg","P.jpg","0","0","1","",""
"","feedback","","html-keyboard-response","490","472358","0.0-1.0-681.0-0.0","0","0","76385","","null","","","null","75","","","","","","","","","","","","","","","",""
"","ITI","","html-keyboard-response","491","473367","0.0-1.0-684.0","0","0","76385","","null","","","null","75","","","","","","","","","","","","","","","NaN",""
"","S1","","html-keyboard-response","492","473625","0.0-1.0-686.0","0","0","76385","","null","","","null","76","","","","","","","","","","","","","","","",""
"","ISI","","html-keyboard-response","493","474632","0.0-1.0-687.0","0","0","76385","","null","","","null","76","NaN","","","","","","","","","","","","","","",""
"","S2","","html-keyboard-response","494","474894","0.0-1.0-688.0","0","0","76385","","null","","","null","76","","NaN","","","","","","","","","","","","","",""
"","response","","html-keyboard-response","495","475592","0.0-1.0-689.0-0.0","0","0","76385","","695","","","75","76","","","2","76","training","adjacent","ED","5","4","N.jpg","P.jpg","1","0","0","",""
"","feedback","","html-keyboard-response","496","476601","0.0-1.0-690.0-0.0","0","0","76385","","null","","","null","76","","","","","","","","","","","","","","","",""
"","time_out","","html-keyboard-response","497","478609","0.0-1.0-692.0-0.0","0","0","76385","","null","","","null","76","","","","","","","","","","","","","","","",""
"","ITI","","html-keyboard-response","498","479614","0.0-1.0-693.0","0","0","76385","","null","","","null","76","","","","","","","","","","","","","","","NaN",""
"","S1","","html-keyboard-response","499","479869","0.0-1.0-695.0","0","0","76385","","null","","","null","77","","","","","","","","","","","","","","","",""
"","ISI","","html-keyboard-response","500","480878","0.0-1.0-696.0","0","0","76385","","null","","","null","77","NaN","","","","","","","","","","","","","","",""
"","S2","","html-keyboard-response","501","481134","0.0-1.0-697.0","0","0","76385","","null","","","null","77","","NaN","","","","","","","","","","","","","",""
"","response","","html-keyboard-response","502","482121","0.0-1.0-698.0-0.0","0","0","76385","","985","","","68","77","","","2","77","training","adjacent","DE","4","5","P.jpg","N.jpg","0","1","0","",""
"","feedback","","html-keyboard-response","503","483125","0.0-1.0-699.0-0.0","0","0","76385","","null","","","null","77","","","","","","","","","","","","","","","",""
"","time_out","","html-keyboard-response","504","485134","0.0-1.0-701.0-0.0","0","0","76385","","null","","","null","77","","","","","","","","","","","","","","","",""
"","ITI","","html-keyboard-response","505","486144","0.0-1.0-702.0","0","0","76385","","null","","","null","77","","","","","","","","","","","","","","","NaN",""
"","S1","","html-keyboard-response","506","486406","0.0-1.0-704.0","0","0","76385","","null","","","null","78","","","","","","","","","","","","","","","",""
"","ISI","","html-keyboard-response","507","487415","0.0-1.0-705.0","0","0","76385","","null","","","null","78","NaN","","","","","","","","","","","","","","",""
"","S2","","html-keyboard-response","508","487671","0.0-1.0-706.0","0","0","76385","","null","","","null","78","","NaN","","","","","","","","","","","","","",""
"","response","","html-keyboard-response","509","487804","0.0-1.0-707.0-0.0","0","0","76385","","131","","","75","78","","","2","78","training","adjacent","DC","4","3","P.jpg","M.jpg","1","0","0","",""
"","feedback","","html-keyboard-response","510","488815","0.0-1.0-708.0-0.0","0","0","76385","","null","","","null","78","","","","","","","","","","","","","","","",""
"","time_out","","html-keyboard-response","511","490823","0.0-1.0-710.0-0.0","0","0","76385","","null","","","null","78","","","","","","","","","","","","","","","",""
"","ITI","","html-keyboard-response","512","491833","0.0-1.0-711.0","0","0","76385","","null","","","null","78","","","","","","","","","","","","","","","NaN",""
"","S1","","html-keyboard-response","513","492094","0.0-1.0-713.0","0","0","76385","","null","","","null","79","","","","","","","","","","","","","","","",""
"","ISI","","html-keyboard-response","514","493105","0.0-1.0-714.0","0","0","76385","","null","","","null","79","NaN","","","","","","","","","","","","","","",""
"","S2","","html-keyboard-response","515","493368","0.0-1.0-715.0","0","0","76385","","null","","","null","79","","NaN","","","","","","","","","","","","","",""
"","response","","html-keyboard-response","516","493907","0.0-1.0-716.0-0.0","0","0","76385","","537","","","75","79","","","2","79","training","adjacent","AB","1","2","R.jpg","L.jpg","1","1","1","",""
"","feedback","","html-keyboard-response","517","494922","0.0-1.0-717.0-0.0","0","0","76385","","null","","","null","79","","","","","","","","","","","","","","","",""
"","ITI","","html-keyboard-response","518","495926","0.0-1.0-720.0","0","0","76385","","null","","","null","79","","","","","","","","","","","","","","","NaN",""
"","S1","","html-keyboard-response","519","496181","0.0-1.0-722.0","0","0","76385","","null","","","null","80","","","","","","","","","","","","","","","",""
"","ISI","","html-keyboard-response","520","497191","0.0-1.0-723.0","0","0","76385","","null","","","null","80","NaN","","","","","","","","","","","","","","",""
"","S2","","html-keyboard-response","521","497447","0.0-1.0-724.0","0","0","76385","","null","","","null","80","","NaN","","","","","","","","","","","","","",""
"","response","","html-keyboard-response","522","497928","0.0-1.0-725.0-0.0","0","0","76385","","480","","","68","80","","","2","80","training","adjacent","BC","2","3","L.jpg","M.jpg","0","1","0","",""
"","feedback","","html-keyboard-response","523","498938","0.0-1.0-726.0-0.0","0","0","76385","","null","","","null","80","","","","","","","","","","","","","","","",""
"","time_out","","html-keyboard-response","524","500942","0.0-1.0-728.0-0.0","0","0","76385","","null","","","null","80","","","","","","","","","","","","","","","",""
"","ITI","","html-keyboard-response","525","501952","0.0-1.0-729.0","0","0","76385","","null","","","null","80","","","","","","","","","","","","","","","NaN",""
"","S1","","html-keyboard-response","526","502207","0.0-1.0-731.0","0","0","76385","","null","","","null","81","","","","","","","","","","","","","","","",""
"","ISI","","html-keyboard-response","527","503217","0.0-1.0-732.0","0","0","76385","","null","","","null","81","NaN","","","","","","","","","","","","","","",""
"","S2","","html-keyboard-response","528","503478","0.0-1.0-733.0","0","0","76385","","null","","","null","81","","NaN","","","","","","","","","","","","","",""
"","response","","html-keyboard-response","529","504135","0.0-1.0-734.0-0.0","0","0","76385","","655","","","75","81","","","2","81","training","adjacent","AB","1","2","R.jpg","L.jpg","1","1","1","",""
"","feedback","","html-keyboard-response","530","505145","0.0-1.0-735.0-0.0","0","0","76385","","null","","","null","81","","","","","","","","","","","","","","","",""
"","ITI","","html-keyboard-response","531","506152","0.0-1.0-738.0","0","0","76385","","null","","","null","81","","","","","","","","","","","","","","","NaN",""
"","S1","","html-keyboard-response","532","506410","0.0-1.0-740.0","0","0","76385","","null","","","null","82","","","","","","","","","","","","","","","",""
"","ISI","","html-keyboard-response","533","507414","0.0-1.0-741.0","0","0","76385","","null","","","null","82","NaN","","","","","","","","","","","","","","",""
"","S2","","html-keyboard-response","534","507669","0.0-1.0-742.0","0","0","76385","","null","","","null","82","","NaN","","","","","","","","","","","","","",""
"","response","","html-keyboard-response","535","508254","0.0-1.0-743.0-0.0","0","0","76385","","583","","","75","82","","","2","82","training","adjacent","CB","3","2","M.jpg","L.jpg","1","0","0","",""
"","feedback","","html-keyboard-response","536","509266","0.0-1.0-744.0-0.0","0","0","76385","","null","","","null","82","","","","","","","","","","","","","","","",""
"","time_out","","html-keyboard-response","537","511274","0.0-1.0-746.0-0.0","0","0","76385","","null","","","null","82","","","","","","","","","","","","","","","",""
"","ITI","","html-keyboard-response","538","512279","0.0-1.0-747.0","0","0","76385","","null","","","null","82","","","","","","","","","","","","","","","NaN",""
"","S1","","html-keyboard-response","539","512534","0.0-1.0-749.0","0","0","76385","","null","","","null","83","","","","","","","","","","","","","","","",""
"","ISI","","html-keyboard-response","540","513545","0.0-1.0-750.0","0","0","76385","","null","","","null","83","NaN","","","","","","","","","","","","","","",""
"","S2","","html-keyboard-response","541","513806","0.0-1.0-751.0","0","0","76385","","null","","","null","83","","NaN","","","","","","","","","","","","","",""
"","response","","html-keyboard-response","542","514653","0.0-1.0-752.0-0.0","0","0","76385","","845","","","68","83","","","2","83","training","adjacent","CD","3","4","M.jpg","P.jpg","0","1","0","",""
"","feedback","","html-keyboard-response","543","515663","0.0-1.0-753.0-0.0","0","0","76385","","null","","","null","83","","","","","","","","","","","","","","","",""
"","time_out","","html-keyboard-response","544","517672","0.0-1.0-755.0-0.0","0","0","76385","","null","","","null","83","","","","","","","","","","","","","","","",""
"","ITI","","html-keyboard-response","545","518682","0.0-1.0-756.0","0","0","76385","","null","","","null","83","","","","","","","","","","","","","","","NaN",""
"","S1","","html-keyboard-response","546","518943","0.0-1.0-758.0","0","0","76385","","null","","","null","84","","","","","","","","","","","","","","","",""
"","ISI","","html-keyboard-response","547","519953","0.0-1.0-759.0","0","0","76385","","null","","","null","84","NaN","","","","","","","","","","","","","","",""
"","S2","","html-keyboard-response","548","520215","0.0-1.0-760.0","0","0","76385","","null","","","null","84","","NaN","","","","","","","","","","","","","",""
"","response","","html-keyboard-response","549","521855","0.0-1.0-761.0-0.0","0","0","76385","","1639","","","75","84","","","2","84","training","adjacent","FG","6","7","O.jpg","Q.jpg","1","1","1","",""
"","feedback","","html-keyboard-response","550","522866","0.0-1.0-762.0-0.0","0","0","76385","","null","","","null","84","","","","","","","","","","","","","","","",""
"","ITI","","html-keyboard-response","551","523872","0.0-1.0-765.0","0","0","76385","","null","","","null","84","","","","","","","","","","","","","","","NaN",""
"","S1","","html-keyboard-response","552","524127","0.0-1.0-767.0","0","0","76385","","null","","","null","85","","","","","","","","","","","","","","","",""
"","ISI","","html-keyboard-response","553","525137","0.0-1.0-768.0","0","0","76385","","null","","","null","85","NaN","","","","","","","","","","","","","","",""
"","S2","","html-keyboard-response","554","525392","0.0-1.0-769.0","0","0","76385","","null","","","null","85","","NaN","","","","","","","","","","","","","",""
"","response","","html-keyboard-response","555","525975","0.0-1.0-770.0-0.0","0","0","76385","","582","","","75","85","","","2","85","training","adjacent","DE","4","5","P.jpg","N.jpg","1","1","1","",""
"","feedback","","html-keyboard-response","556","526984","0.0-1.0-771.0-0.0","0","0","76385","","null","","","null","85","","","","","","","","","","","","","","","",""
"","ITI","","html-keyboard-response","557","527992","0.0-1.0-774.0","0","0","76385","","null","","","null","85","","","","","","","","","","","","","","","NaN",""
"","S1","","html-keyboard-response","558","528249","0.0-1.0-776.0","0","0","76385","","null","","","null","86","","","","","","","","","","","","","","","",""
"","ISI","","html-keyboard-response","559","529255","0.0-1.0-777.0","0","0","76385","","null","","","null","86","NaN","","","","","","","","","","","","","","",""
"","S2","","html-keyboard-response","560","529514","0.0-1.0-778.0","0","0","76385","","null","","","null","86","","NaN","","","","","","","","","","","","","",""
"","response","","html-keyboard-response","561","530217","0.0-1.0-779.0-0.0","0","0","76385","","701","","","68","86","","","2","86","training","adjacent","GF","7","6","Q.jpg","O.jpg","0","0","1","",""
"","feedback","","html-keyboard-response","562","531225","0.0-1.0-780.0-0.0","0","0","76385","","null","","","null","86","","","","","","","","","","","","","","","",""
"","ITI","","html-keyboard-response","563","532230","0.0-1.0-783.0","0","0","76385","","null","","","null","86","","","","","","","","","","","","","","","NaN",""
"","S1","","html-keyboard-response","564","532488","0.0-1.0-785.0","0","0","76385","","null","","","null","87","","","","","","","","","","","","","","","",""
"","ISI","","html-keyboard-response","565","533497","0.0-1.0-786.0","0","0","76385","","null","","","null","87","NaN","","","","","","","","","","","","","","",""
"","S2","","html-keyboard-response","566","533752","0.0-1.0-787.0","0","0","76385","","null","","","null","87","","NaN","","","","","","","","","","","","","",""
"","response","","html-keyboard-response","567","534164","0.0-1.0-788.0-0.0","0","0","76385","","411","","","75","87","","","2","87","training","adjacent","EF","5","6","N.jpg","O.jpg","1","1","1","",""
"","feedback","","html-keyboard-response","568","535174","0.0-1.0-789.0-0.0","0","0","76385","","null","","","null","87","","","","","","","","","","","","","","","",""
"","ITI","","html-keyboard-response","569","536184","0.0-1.0-792.0","0","0","76385","","null","","","null","87","","","","","","","","","","","","","","","NaN",""
"","S1","","html-keyboard-response","570","536439","0.0-1.0-794.0","0","0","76385","","null","","","null","88","","","","","","","","","","","","","","","",""
"","ISI","","html-keyboard-response","571","537450","0.0-1.0-795.0","0","0","76385","","null","","","null","88","NaN","","","","","","","","","","","","","","",""
"","S2","","html-keyboard-response","572","537711","0.0-1.0-796.0","0","0","76385","","null","","","null","88","","NaN","","","","","","","","","","","","","",""
"","response","","html-keyboard-response","573","538129","0.0-1.0-797.0-0.0","0","0","76385","","417","","","68","88","","","2","88","training","adjacent","GF","7","6","Q.jpg","O.jpg","0","0","1","",""
"","feedback","","html-keyboard-response","574","539138","0.0-1.0-798.0-0.0","0","0","76385","","null","","","null","88","","","","","","","","","","","","","","","",""
"","ITI","","html-keyboard-response","575","540143","0.0-1.0-801.0","0","0","76385","","null","","","null","88","","","","","","","","","","","","","","","NaN",""
"","S1","","html-keyboard-response","576","540399","0.0-1.0-803.0","0","0","76385","","null","","","null","89","","","","","","","","","","","","","","","",""
"","ISI","","html-keyboard-response","577","541409","0.0-1.0-804.0","0","0","76385","","null","","","null","89","NaN","","","","","","","","","","","","","","",""
"","S2","","html-keyboard-response","578","541670","0.0-1.0-805.0","0","0","76385","","null","","","null","89","","NaN","","","","","","","","","","","","","",""
"","response","","html-keyboard-response","579","542120","0.0-1.0-806.0-0.0","0","0","76385","","448","","","75","89","","","2","89","training","adjacent","EF","5","6","N.jpg","O.jpg","1","1","1","",""
"","feedback","","html-keyboard-response","580","543127","0.0-1.0-807.0-0.0","0","0","76385","","null","","","null","89","","","","","","","","","","","","","","","",""
"","ITI","","html-keyboard-response","581","544137","0.0-1.0-810.0","0","0","76385","","null","","","null","89","","","","","","","","","","","","","","","NaN",""
"","S1","","html-keyboard-response","582","544398","0.0-1.0-812.0","0","0","76385","","null","","","null","90","","","","","","","","","","","","","","","",""
