"success","ttype","start_time","trial_type","trial_index","time_elapsed","internal_node_id","warning","missed_checkup","PID","view_history","rt","responses","repeat_instructions","key_press","index","keypress_isi","keypress_S2","block","trial_num","phase","group_type","pair_type","S1_stim","S2_stim","S1_img","S2_img","S1_chosen","S1_higher","accuracy","keypress_iti","total_bonus_tally"
"true","full_screen","d04062023hr1824","fullscreen","0","18749","0.0-0.0","0","0","53033","","","","","","","","","","","","","","","","","","","","","",""
"","instructions","","instructions","1","48040","0.0-1.0-0.0-0.0","0","0","53033","[{""page_index"":0,""viewing_time"":3885},{""page_index"":1,""viewing_time"":15755},{""page_index"":2,""viewing_time"":6974},{""page_index"":3,""viewing_time"":2676}]","29290","","","","","","","","","","","","","","","","","","","",""
"","comprehension_check","","survey-multi-choice","2","76393","0.0-1.0-0.0-1.0","0","0","53033","","28348","{""Q0"":""True"",""Q1"":""D"",""Q2"":""Once the second image appears and while the screen 'MAKE A CHOICE' is shown"",""Q3"":""Green mark"",""Q4"":""either D or K""}","1","","","","","","","","","","","","","","","","","",""
"","missed_instruction_checkup","","html-keyboard-response","3","78867","0.0-1.0-0.0-2.0-0.0","0","1","53033","","2472","","","32","","","","","","","","","","","","","","","","",""
"","instructions","","instructions","4","95444","0.0-1.0-0.1-0.1","0","0","53033","[{""page_index"":0,""viewing_time"":3225},{""page_index"":1,""viewing_time"":9928},{""page_index"":2,""viewing_time"":2397},{""page_index"":3,""viewing_time"":1025}]","16575","","","","","","","","","","","","","","","","","","","",""
"","comprehension_check","","survey-multi-choice","5","108260","0.0-1.0-0.1-1.1","0","0","53033","","12812","{""Q0"":""True"",""Q1"":""K"",""Q2"":""Once the second image appears and while the screen 'MAKE A CHOICE' is shown"",""Q3"":""Green mark"",""Q4"":""either D or K""}","0","","","","","","","","","","","","","","","","","",""
"","start_exp","","html-keyboard-response","6","110497","0.0-1.0-1.0","0","0","53033","","2236","","","32","","","","","","","","","","","","","","","","",""
"","S1","","html-keyboard-response","7","110659","0.0-1.0-2.0","0","0","53033","","null","","","null","0","","","","","","","","","","","","","","","",""
"","ISI","","html-keyboard-response","8","112661","0.0-1.0-3.0","0","0","53033","","null","","","null","0","NaN","","","","","","","","","","","","","","",""
"","S2","","html-keyboard-response","9","112818","0.0-1.0-4.0","0","0","53033","","null","","","null","0","","NaN","","","","","","","","","","","","","",""
"","response","","html-keyboard-response","10","114290","0.0-1.0-5.0-0.0","0","0","53033","","1470","","","68","0","","","1","0","training","adjacent","ED","5","4","N.jpg","M.jpg","0","0","1","",""
"","feedback","","html-keyboard-response","11","115292","0.0-1.0-6.0-0.0","0","0","53033","","null","","","null","0","","","","","","","","","","","","","","","",""
"","ITI","","html-keyboard-response","12","116296","0.0-1.0-9.0","0","0","53033","","null","","","null","0","","","","","","","","","","","","","","","NaN",""
"","S1","","html-keyboard-response","13","116455","0.0-1.0-11.0","0","0","53033","","null","","","null","1","","","","","","","","","","","","","","","",""
"","ISI","","html-keyboard-response","14","118458","0.0-1.0-12.0","0","0","53033","","null","","","null","1","NaN","","","","","","","","","","","","","","",""
"","S2","","html-keyboard-response","15","118615","0.0-1.0-13.0","0","0","53033","","null","","","null","1","","NaN","","","","","","","","","","","","","",""
"","response","","html-keyboard-response","16","119122","0.0-1.0-14.0-0.0","0","0","53033","","505","","","75","1","","","1","1","training","adjacent","EF","5","6","N.jpg","L.jpg","1","1","1","",""
"","feedback","","html-keyboard-response","17","120129","0.0-1.0-15.0-0.0","0","0","53033","","null","","","null","1","","","","","","","","","","","","","","","",""
"","ITI","","html-keyboard-response","18","121145","0.0-1.0-18.0","0","0","53033","","null","","","null","1","","","","","","","","","","","","","","","NaN",""
"","S1","","html-keyboard-response","19","121302","0.0-1.0-20.0","0","0","53033","","null","","","null","2","","","","","","","","","","","","","","","",""
"","ISI","","html-keyboard-response","20","123307","0.0-1.0-21.0","0","0","53033","","null","","","null","2","NaN","","","","","","","","","","","","","","",""
"","S2","","html-keyboard-response","21","123464","0.0-1.0-22.0","0","0","53033","","null","","","null","2","","NaN","","","","","","","","","","","","","",""
"","response","","html-keyboard-response","22","124034","0.0-1.0-23.0-0.0","0","0","53033","","568","","","68","2","","","1","2","training","adjacent","CB","3","2","Q.jpg","O.jpg","0","0","1","",""
"","feedback","","html-keyboard-response","23","125049","0.0-1.0-24.0-0.0","0","0","53033","","null","","","null","2","","","","","","","","","","","","","","","",""
"","ITI","","html-keyboard-response","24","126067","0.0-1.0-27.0","0","0","53033","","null","","","null","2","","","","","","","","","","","","","","","NaN",""
"","S1","","html-keyboard-response","25","126225","0.0-1.0-29.0","0","0","53033","","null","","","null","3","","","","","","","","","","","","","","","",""
"","ISI","","html-keyboard-response","26","128240","0.0-1.0-30.0","0","0","53033","","null","","","null","3","NaN","","","","","","","","","","","","","","",""
"","S2","","html-keyboard-response","27","128395","0.0-1.0-31.0","0","0","53033","","null","","","null","3","","NaN","","","","","","","","","","","","","",""
"","response","","html-keyboard-response","28","128897","0.0-1.0-32.0-0.0","0","0","53033","","501","","","68","3","","","1","3","training","adjacent","AB","1","2","P.jpg","O.jpg","0","1","0","",""
"","feedback","","html-keyboard-response","29","129913","0.0-1.0-33.0-0.0","0","0","53033","","null","","","null","3","","","","","","","","","","","","","","","",""
"","time_out","","html-keyboard-response","30","131923","0.0-1.0-35.0-0.0","0","0","53033","","null","","","null","3","","","","","","","","","","","","","","","",""
"","ITI","","html-keyboard-response","31","132926","0.0-1.0-36.0","0","0","53033","","null","","","null","3","","","","","","","","","","","","","","","NaN",""
"","S1","","html-keyboard-response","32","133081","0.0-1.0-38.0","0","0","53033","","null","","","null","4","","","","","","","","","","","","","","","",""
"","ISI","","html-keyboard-response","33","135088","0.0-1.0-39.0","0","0","53033","","null","","","null","4","NaN","","","","","","","","","","","","","","",""
"","S2","","html-keyboard-response","34","135247","0.0-1.0-40.0","0","0","53033","","null","","","null","4","","NaN","","","","","","","","","","","","","",""
"","response","","html-keyboard-response","35","135448","0.0-1.0-41.0-0.0","0","0","53033","","201","","","75","4","","","1","4","training","adjacent","DC","4","3","M.jpg","Q.jpg","1","0","0","",""
"","feedback","","html-keyboard-response","36","136464","0.0-1.0-42.0-0.0","0","0","53033","","null","","","null","4","","","","","","","","","","","","","","","",""
"","time_out","","html-keyboard-response","37","138479","0.0-1.0-44.0-0.0","0","0","53033","","null","","","null","4","","","","","","","","","","","","","","","",""
"","ITI","","html-keyboard-response","38","139481","0.0-1.0-45.0","0","0","53033","","null","","","null","4","","","","","","","","","","","","","","","NaN",""
"","S1","","html-keyboard-response","39","139634","0.0-1.0-47.0","0","0","53033","","null","","","null","5","","","","","","","","","","","","","","","",""
"","ISI","","html-keyboard-response","40","141649","0.0-1.0-48.0","0","0","53033","","null","","","null","5","NaN","","","","","","","","","","","","","","",""
"","S2","","html-keyboard-response","41","141805","0.0-1.0-49.0","0","0","53033","","null","","","null","5","","NaN","","","","","","","","","","","","","",""
"","response","","html-keyboard-response","42","142016","0.0-1.0-50.0-0.0","0","0","53033","","210","","","68","5","","","1","5","training","adjacent","EF","5","6","N.jpg","L.jpg","0","1","0","",""
"","feedback","","html-keyboard-response","43","143022","0.0-1.0-51.0-0.0","0","0","53033","","null","","","null","5","","","","","","","","","","","","","","","",""
"","time_out","","html-keyboard-response","44","145035","0.0-1.0-53.0-0.0","0","0","53033","","null","","","null","5","","","","","","","","","","","","","","","",""
"","ITI","","html-keyboard-response","45","146051","0.0-1.0-54.0","0","0","53033","","null","","","null","5","","","","","","","","","","","","","","","NaN",""
"","S1","","html-keyboard-response","46","146207","0.0-1.0-56.0","0","0","53033","","null","","","null","6","","","","","","","","","","","","","","","",""
"","ISI","","html-keyboard-response","47","148218","0.0-1.0-57.0","0","0","53033","","null","","","null","6","NaN","","","","","","","","","","","","","","",""
"","S2","","html-keyboard-response","48","148374","0.0-1.0-58.0","0","0","53033","","null","","","null","6","","NaN","","","","","","","","","","","","","",""
"","response","","html-keyboard-response","49","148784","0.0-1.0-59.0-0.0","0","0","53033","","409","","","75","6","","","1","6","training","adjacent","ED","5","4","N.jpg","M.jpg","1","0","0","",""
"","feedback","","html-keyboard-response","50","149788","0.0-1.0-60.0-0.0","0","0","53033","","null","","","null","6","","","","","","","","","","","","","","","",""
"","time_out","","html-keyboard-response","51","151797","0.0-1.0-62.0-0.0","0","0","53033","","null","","","null","6","","","","","","","","","","","","","","","",""
"","ITI","","html-keyboard-response","52","152801","0.0-1.0-63.0","0","0","53033","","74","","","68","6","","","","","","","","","","","","","","","d",""
"","S1","","html-keyboard-response","53","152956","0.0-1.0-65.0","0","0","53033","","null","","","null","7","","","","","","","","","","","","","","","",""
"","ISI","","html-keyboard-response","54","154973","0.0-1.0-66.0","0","0","53033","","null","","","null","7","NaN","","","","","","","","","","","","","","",""
"","S2","","html-keyboard-response","55","155129","0.0-1.0-67.0","0","0","53033","","null","","","null","7","","NaN","","","","","","","","","","","","","",""
"","response","","html-keyboard-response","56","155312","0.0-1.0-68.0-0.0","0","0","53033","","182","","","68","7","","","1","7","training","adjacent","CD","3","4","Q.jpg","M.jpg","0","1","0","",""
"","feedback","","html-keyboard-response","57","156321","0.0-1.0-69.0-0.0","0","0","53033","","null","","","null","7","","","","","","","","","","","","","","","",""
"","time_out","","html-keyboard-response","58","158335","0.0-1.0-71.0-0.0","0","0","53033","","null","","","null","7","","","","","","","","","","","","","","","",""
"","ITI","","html-keyboard-response","59","159351","0.0-1.0-72.0","0","0","53033","","null","","","null","7","","","","","","","","","","","","","","","NaN",""
"","S1","","html-keyboard-response","60","159510","0.0-1.0-74.0","0","0","53033","","null","","","null","8","","","","","","","","","","","","","","","",""
"","ISI","","html-keyboard-response","61","161523","0.0-1.0-75.0","0","0","53033","","561","","","75","8","k","","","","","","","","","","","","","","",""
"","S2","","html-keyboard-response","62","161677","0.0-1.0-76.0","0","0","53033","","null","","","null","8","","NaN","","","","","","","","","","","","","",""
"","response","","html-keyboard-response","63","163537","0.0-1.0-77.0-0.0","0","0","53033","","null","","","null","8","","","1","8","training","adjacent","BC","2","3","O.jpg","Q.jpg","NaN","1","0","",""
"","too_slow_prompt","","html-keyboard-response","64","164548","0.0-1.0-79.0-0.0","1","0","53033","","null","","","null","","","","","","","","","","","","","","","","",""
"","time_out","","html-keyboard-response","65","166556","0.0-1.0-80.0-0.0","0","0","53033","","null","","","null","8","","","","","","","","","","","","","","","",""
"","ITI","","html-keyboard-response","66","167568","0.0-1.0-81.0","0","0","53033","","null","","","null","8","","","","","","","","","","","","","","","NaN",""
"","S1","","html-keyboard-response","67","167726","0.0-1.0-83.0","0","0","53033","","null","","","null","9","","","","","","","","","","","","","","","",""
"","ISI","","html-keyboard-response","68","169738","0.0-1.0-84.0","0","0","53033","","1551","","","68","9","d","","","","","","","","","","","","","","",""
"","S2","","html-keyboard-response","69","169894","0.0-1.0-85.0","0","0","53033","","null","","","null","9","","NaN","","","","","","","","","","","","","",""
"","response","","html-keyboard-response","70","171112","0.0-1.0-86.0-0.0","0","0","53033","","1217","","","75","9","","","1","9","training","adjacent","FE","6","5","L.jpg","N.jpg","1","0","0","",""
"","feedback","","html-keyboard-response","71","172119","0.0-1.0-87.0-0.0","0","0","53033","","null","","","null","9","","","","","","","","","","","","","","","",""
"","time_out","","html-keyboard-response","72","174121","0.0-1.0-89.0-0.0","0","0","53033","","null","","","null","9","","","","","","","","","","","","","","","",""
"","ITI","","html-keyboard-response","73","175128","0.0-1.0-90.0","0","0","53033","","null","","","null","9","","","","","","","","","","","","","","","NaN",""
"","S1","","html-keyboard-response","74","175287","0.0-1.0-92.0","0","0","53033","","null","","","null","10","","","","","","","","","","","","","","","",""
"","ISI","","html-keyboard-response","75","177302","0.0-1.0-93.0","0","0","53033","","null","","","null","10","NaN","","","","","","","","","","","","","","",""
"","S2","","html-keyboard-response","76","177459","0.0-1.0-94.0","0","0","53033","","null","","","null","10","","NaN","","","","","","","","","","","","","",""
"","response","","html-keyboard-response","77","177758","0.0-1.0-95.0-0.0","0","0","53033","","298","","","75","10","","","1","10","training","adjacent","CD","3","4","Q.jpg","M.jpg","1","1","1","",""
"","feedback","","html-keyboard-response","78","178772","0.0-1.0-96.0-0.0","0","0","53033","","null","","","null","10","","","","","","","","","","","","","","","",""
"","ITI","","html-keyboard-response","79","179775","0.0-1.0-99.0","0","0","53033","","null","","","null","10","","","","","","","","","","","","","","","NaN",""
"","S1","","html-keyboard-response","80","179933","0.0-1.0-101.0","0","0","53033","","null","","","null","11","","","","","","","","","","","","","","","",""
"","ISI","","html-keyboard-response","81","181941","0.0-1.0-102.0","0","0","53033","","null","","","null","11","NaN","","","","","","","","","","","","","","",""
"","S2","","html-keyboard-response","82","182097","0.0-1.0-103.0","0","0","53033","","null","","","null","11","","NaN","","","","","","","","","","","","","",""
"","response","","html-keyboard-response","83","183954","0.0-1.0-104.0-0.0","0","0","53033","","null","","","null","11","","","1","11","training","adjacent","BC","2","3","O.jpg","Q.jpg","NaN","1","0","",""
"","too_slow_prompt","","html-keyboard-response","84","184956","0.0-1.0-106.0-0.0","1","0","53033","","null","","","null","","","","","","","","","","","","","","","","",""
"","time_out","","html-keyboard-response","85","186958","0.0-1.0-107.0-0.0","0","0","53033","","null","","","null","11","","","","","","","","","","","","","","","",""
"","ITI","","html-keyboard-response","86","187962","0.0-1.0-108.0","0","0","53033","","null","","","null","11","","","","","","","","","","","","","","","NaN",""
"","S1","","html-keyboard-response","87","188118","0.0-1.0-110.0","0","0","53033","","null","","","null","12","","","","","","","","","","","","","","","",""
"","ISI","","html-keyboard-response","88","190129","0.0-1.0-111.0","0","0","53033","","null","","","null","12","NaN","","","","","","","","","","","","","","",""
"","S2","","html-keyboard-response","89","190284","0.0-1.0-112.0","0","0","53033","","null","","","null","12","","NaN","","","","","","","","","","","","","",""
"","response","","html-keyboard-response","90","192148","0.0-1.0-113.0-0.0","0","0","53033","","null","","","null","12","","","1","12","training","adjacent","CB","3","2","Q.jpg","O.jpg","NaN","0","0","",""
"","too_slow_prompt","","html-keyboard-response","91","193161","0.0-1.0-115.0-0.0","1","0","53033","","null","","","null","","","","","","","","","","","","","","","","",""
"","time_out","","html-keyboard-response","92","195174","0.0-1.0-116.0-0.0","0","0","53033","","null","","","null","12","","","","","","","","","","","","","","","",""
"","ITI","","html-keyboard-response","93","196191","0.0-1.0-117.0","0","0","53033","","null","","","null","12","","","","","","","","","","","","","","","NaN",""
"","S1","","html-keyboard-response","94","196346","0.0-1.0-119.0","0","0","53033","","null","","","null","13","","","","","","","","","","","","","","","",""
"","ISI","","html-keyboard-response","95","198350","0.0-1.0-120.0","0","0","53033","","250","","","68","13","d","","","","","","","","","","","","","","",""
"","S2","","html-keyboard-response","96","198508","0.0-1.0-121.0","0","0","53033","","null","","","null","13","","NaN","","","","","","","","","","","","","",""
"","response","","html-keyboard-response","97","198886","0.0-1.0-122.0-0.0","0","0","53033","","377","","","68","13","","","1","13","training","adjacent","AB","1","2","P.jpg","O.jpg","0","1","0","",""
"","feedback","","html-keyboard-response","98","199888","0.0-1.0-123.0-0.0","0","0","53033","","null","","","null","13","","","","","","","","","","","","","","","",""
"","time_out","","html-keyboard-response","99","201892","0.0-1.0-125.0-0.0","0","0","53033","","null","","","null","13","","","","","","","","","","","","","","","",""
"","ITI","","html-keyboard-response","100","202895","0.0-1.0-126.0","0","0","53033","","null","","","null","13","","","","","","","","","","","","","","","NaN",""
"","S1","","html-keyboard-response","101","203050","0.0-1.0-128.0","0","0","53033","","null","","","null","14","","","","","","","","","","","","","","","",""
"","ISI","","html-keyboard-response","102","205054","0.0-1.0-129.0","0","0","53033","","null","","","null","14","NaN","","","","","","","","","","","","","","",""
"","S2","","html-keyboard-response","103","205211","0.0-1.0-130.0","0","0","53033","","null","","","null","14","","NaN","","","","","","","","","","","","","",""
"","response","","html-keyboard-response","104","206638","0.0-1.0-131.0-0.0","0","0","53033","","1426","","","75","14","","","1","14","training","adjacent","GF","7","6","R.jpg","L.jpg","1","0","0","",""
"","feedback","","html-keyboard-response","105","207650","0.0-1.0-132.0-0.0","0","0","53033","","null","","","null","14","","","","","","","","","","","","","","","",""
"","time_out","","html-keyboard-response","106","209663","0.0-1.0-134.0-0.0","0","0","53033","","null","","","null","14","","","","","","","","","","","","","","","",""
"","ITI","","html-keyboard-response","107","210675","0.0-1.0-135.0","0","0","53033","","null","","","null","14","","","","","","","","","","","","","","","NaN",""
"","S1","","html-keyboard-response","108","210833","0.0-1.0-137.0","0","0","53033","","null","","","null","15","","","","","","","","","","","","","","","",""
"","ISI","","html-keyboard-response","109","212842","0.0-1.0-138.0","0","0","53033","","null","","","null","15","NaN","","","","","","","","","","","","","","",""
"","S2","","html-keyboard-response","110","212995","0.0-1.0-139.0","0","0","53033","","null","","","null","15","","NaN","","","","","","","","","","","","","",""
"","response","","html-keyboard-response","111","213854","0.0-1.0-140.0-0.0","0","0","53033","","858","","","68","15","","","1","15","training","adjacent","AB","1","2","P.jpg","O.jpg","0","1","0","",""
"","feedback","","html-keyboard-response","112","214859","0.0-1.0-141.0-0.0","0","0","53033","","null","","","null","15","","","","","","","","","","","","","","","",""
"","time_out","","html-keyboard-response","113","216874","0.0-1.0-143.0-0.0","0","0","53033","","null","","","null","15","","","","","","","","","","","","","","","",""
"","ITI","","html-keyboard-response","114","217879","0.0-1.0-144.0","0","0","53033","","null","","","null","15","","","","","","","","","","","","","","","NaN",""
"","S1","","html-keyboard-response","115","218031","0.0-1.0-146.0","0","0","53033","","null","","","null","16","","","","","","","","","","","","","","","",""
"","ISI","","html-keyboard-response","116","220044","0.0-1.0-147.0","0","0","53033","","null","","","null","16","NaN","","","","","","","","","","","","","","",""
"","S2","","html-keyboard-response","117","220200","0.0-1.0-148.0","0","0","53033","","null","","","null","16","","NaN","","","","","","","","","","","","","",""
"","response","","html-keyboard-response","118","221038","0.0-1.0-149.0-0.0","0","0","53033","","837","","","75","16","","","1","16","training","adjacent","GF","7","6","R.jpg","L.jpg","1","0","0","",""
"","feedback","","html-keyboard-response","119","222052","0.0-1.0-150.0-0.0","0","0","53033","","null","","","null","16","","","","","","","","","","","","","","","",""
"","time_out","","html-keyboard-response","120","224067","0.0-1.0-152.0-0.0","0","0","53033","","null","","","null","16","","","","","","","","","","","","","","","",""
"","ITI","","html-keyboard-response","121","225069","0.0-1.0-153.0","0","0","53033","","null","","","null","16","","","","","","","","","","","","","","","NaN",""
"","S1","","html-keyboard-response","122","225227","0.0-1.0-155.0","0","0","53033","","null","","","null","17","","","","","","","","","","","","","","","",""
"","ISI","","html-keyboard-response","123","227231","0.0-1.0-156.0","0","0","53033","","null","","","null","17","NaN","","","","","","","","","","","","","","",""
"","S2","","html-keyboard-response","124","227387","0.0-1.0-157.0","0","0","53033","","null","","","null","17","","NaN","","","","","","","","","","","","","",""
"","response","","html-keyboard-response","125","227501","0.0-1.0-158.0-0.0","0","0","53033","","113","","","68","17","","","1","17","training","adjacent","BA","2","1","O.jpg","P.jpg","0","0","1","",""
"","feedback","","html-keyboard-response","126","228507","0.0-1.0-159.0-0.0","0","0","53033","","null","","","null","17","","","","","","","","","","","","","","","",""
"","ITI","","html-keyboard-response","127","229522","0.0-1.0-162.0","0","0","53033","","null","","","null","17","","","","","","","","","","","","","","","NaN",""
"","S1","","html-keyboard-response","128","229680","0.0-1.0-164.0","0","0","53033","","null","","","null","18","","","","","","","","","","","","","","","",""
"","ISI","","html-keyboard-response","129","231686","0.0-1.0-165.0","0","0","53033","","null","","","null","18","NaN","","","","","","","","","","","","","","",""
"","S2","","html-keyboard-response","130","231845","0.0-1.0-166.0","0","0","53033","","null","","","null","18","","NaN","","","","","","","","","","","","","",""
"","response","","html-keyboard-response","131","232597","0.0-1.0-167.0-0.0","0","0","53033","","751","","","68","18","","","1","18","training","adjacent","FE","6","5","L.jpg","N.jpg","0","0","1","",""
"","feedback","","html-keyboard-response","132","233614","0.0-1.0-168.0-0.0","0","0","53033","","null","","","null","18","","","","","","","","","","","","","","","",""
"","ITI","","html-keyboard-response","133","234629","0.0-1.0-171.0","0","0","53033","","null","","","null","18","","","","","","","","","","","","","","","NaN",""
"","S1","","html-keyboard-response","134","234783","0.0-1.0-173.0","0","0","53033","","null","","","null","19","","","","","","","","","","","","","","","",""
"","ISI","","html-keyboard-response","135","236794","0.0-1.0-174.0","0","0","53033","","null","","","null","19","NaN","","","","","","","","","","","","","","",""
"","S2","","html-keyboard-response","136","236949","0.0-1.0-175.0","0","0","53033","","null","","","null","19","","NaN","","","","","","","","","","","","","",""
"","response","","html-keyboard-response","137","237862","0.0-1.0-176.0-0.0","0","0","53033","","912","","","68","19","","","1","19","training","adjacent","CB","3","2","Q.jpg","O.jpg","0","0","1","",""
"","feedback","","html-keyboard-response","138","238868","0.0-1.0-177.0-0.0","0","0","53033","","null","","","null","19","","","","","","","","","","","","","","","",""
"","ITI","","html-keyboard-response","139","239874","0.0-1.0-180.0","0","0","53033","","null","","","null","19","","","","","","","","","","","","","","","NaN",""
"","S1","","html-keyboard-response","140","240029","0.0-1.0-182.0","0","0","53033","","null","","","null","20","","","","","","","","","","","","","","","",""
"","ISI","","html-keyboard-response","141","242036","0.0-1.0-183.0","0","0","53033","","null","","","null","20","NaN","","","","","","","","","","","","","","",""
"","S2","","html-keyboard-response","142","242191","0.0-1.0-184.0","0","0","53033","","null","","","null","20","","NaN","","","","","","","","","","","","","",""
"","response","","html-keyboard-response","143","242782","0.0-1.0-185.0-0.0","0","0","53033","","589","","","68","20","","","1","20","training","adjacent","BA","2","1","O.jpg","P.jpg","0","0","1","",""
"","feedback","","html-keyboard-response","144","243785","0.0-1.0-186.0-0.0","0","0","53033","","null","","","null","20","","","","","","","","","","","","","","","",""
"","ITI","","html-keyboard-response","145","244799","0.0-1.0-189.0","0","0","53033","","null","","","null","20","","","","","","","","","","","","","","","NaN",""
"","S1","","html-keyboard-response","146","244954","0.0-1.0-191.0","0","0","53033","","null","","","null","21","","","","","","","","","","","","","","","",""
"","ISI","","html-keyboard-response","147","246957","0.0-1.0-192.0","0","0","53033","","null","","","null","21","NaN","","","","","","","","","","","","","","",""
"","S2","","html-keyboard-response","148","247113","0.0-1.0-193.0","0","0","53033","","null","","","null","21","","NaN","","","","","","","","","","","","","",""
"","response","","html-keyboard-response","149","247645","0.0-1.0-194.0-0.0","0","0","53033","","531","","","68","21","","","1","21","training","adjacent","DE","4","5","M.jpg","N.jpg","0","1","0","",""
"","feedback","","html-keyboard-response","150","248660","0.0-1.0-195.0-0.0","0","0","53033","","null","","","null","21","","","","","","","","","","","","","","","",""
"","time_out","","html-keyboard-response","151","250676","0.0-1.0-197.0-0.0","0","0","53033","","null","","","null","21","","","","","","","","","","","","","","","",""
"","ITI","","html-keyboard-response","152","251691","0.0-1.0-198.0","0","0","53033","","null","","","null","21","","","","","","","","","","","","","","","NaN",""
"","S1","","html-keyboard-response","153","251845","0.0-1.0-200.0","0","0","53033","","null","","","null","22","","","","","","","","","","","","","","","",""
"","ISI","","html-keyboard-response","154","253850","0.0-1.0-201.0","0","0","53033","","null","","","null","22","NaN","","","","","","","","","","","","","","",""
"","S2","","html-keyboard-response","155","254010","0.0-1.0-202.0","0","0","53033","","null","","","null","22","","NaN","","","","","","","","","","","","","",""
"","response","","html-keyboard-response","156","254541","0.0-1.0-203.0-0.0","0","0","53033","","530","","","75","22","","","1","22","training","adjacent","GF","7","6","R.jpg","L.jpg","1","0","0","",""
"","feedback","","html-keyboard-response","157","255546","0.0-1.0-204.0-0.0","0","0","53033","","null","","","null","22","","","","","","","","","","","","","","","",""
"","time_out","","html-keyboard-response","158","257561","0.0-1.0-206.0-0.0","0","0","53033","","null","","","null","22","","","","","","","","","","","","","","","",""
"","ITI","","html-keyboard-response","159","258563","0.0-1.0-207.0","0","0","53033","","null","","","null","22","","","","","","","","","","","","","","","NaN",""
"","S1","","html-keyboard-response","160","258720","0.0-1.0-209.0","0","0","53033","","null","","","null","23","","","","","","","","","","","","","","","",""
"","ISI","","html-keyboard-response","161","260723","0.0-1.0-210.0","0","0","53033","","null","","","null","23","NaN","","","","","","","","","","","","","","",""
"","S2","","html-keyboard-response","162","260878","0.0-1.0-211.0","0","0","53033","","null","","","null","23","","NaN","","","","","","","","","","","","","",""
"","response","","html-keyboard-response","163","261100","0.0-1.0-212.0-0.0","0","0","53033","","220","","","68","23","","","1","23","training","adjacent","AB","1","2","P.jpg","O.jpg","0","1","0","",""
"","feedback","","html-keyboard-response","164","262115","0.0-1.0-213.0-0.0","0","0","53033","","null","","","null","23","","","","","","","","","","","","","","","",""
"","time_out","","html-keyboard-response","165","264130","0.0-1.0-215.0-0.0","0","0","53033","","null","","","null","23","","","","","","","","","","","","","","","",""
"","ITI","","html-keyboard-response","166","265131","0.0-1.0-216.0","0","0","53033","","null","","","null","23","","","","","","","","","","","","","","","NaN",""
"","S1","","html-keyboard-response","167","265289","0.0-1.0-218.0","0","0","53033","","null","","","null","24","","","","","","","","","","","","","","","",""
"","ISI","","html-keyboard-response","168","267295","0.0-1.0-219.0","0","0","53033","","null","","","null","24","NaN","","","","","","","","","","","","","","",""
"","S2","","html-keyboard-response","169","267449","0.0-1.0-220.0","0","0","53033","","null","","","null","24","","NaN","","","","","","","","","","","","","",""
"","response","","html-keyboard-response","170","267916","0.0-1.0-221.0-0.0","0","0","53033","","466","","","75","24","","","1","24","training","adjacent","DC","4","3","M.jpg","Q.jpg","1","0","0","",""
"","feedback","","html-keyboard-response","171","268933","0.0-1.0-222.0-0.0","0","0","53033","","null","","","null","24","","","","","","","","","","","","","","","",""
"","time_out","","html-keyboard-response","172","270949","0.0-1.0-224.0-0.0","0","0","53033","","null","","","null","24","","","","","","","","","","","","","","","",""
"","ITI","","html-keyboard-response","173","271964","0.0-1.0-225.0","0","0","53033","","null","","","null","24","","","","","","","","","","","","","","","NaN",""
"","S1","","html-keyboard-response","174","272119","0.0-1.0-227.0","0","0","53033","","null","","","null","25","","","","","","","","","","","","","","","",""
"","ISI","","html-keyboard-response","175","274133","0.0-1.0-228.0","0","0","53033","","null","","","null","25","NaN","","","","","","","","","","","","","","",""
"","S2","","html-keyboard-response","176","274290","0.0-1.0-229.0","0","0","53033","","null","","","null","25","","NaN","","","","","","","","","","","","","",""
"","response","","html-keyboard-response","177","274500","0.0-1.0-230.0-0.0","0","0","53033","","208","","","68","25","","","1","25","training","adjacent","DC","4","3","M.jpg","Q.jpg","0","0","1","",""
"","feedback","","html-keyboard-response","178","275514","0.0-1.0-231.0-0.0","0","0","53033","","null","","","null","25","","","","","","","","","","","","","","","",""
"","ITI","","html-keyboard-response","179","276531","0.0-1.0-234.0","0","0","53033","","null","","","null","25","","","","","","","","","","","","","","","NaN",""
"","S1","","html-keyboard-response","180","276688","0.0-1.0-236.0","0","0","53033","","null","","","null","26","","","","","","","","","","","","","","","",""
"","ISI","","html-keyboard-response","181","278692","0.0-1.0-237.0","0","0","53033","","null","","","null","26","NaN","","","","","","","","","","","","","","",""
"","S2","","html-keyboard-response","182","278849","0.0-1.0-238.0","0","0","53033","","null","","","null","26","","NaN","","","","","","","","","","","","","",""
"","response","","html-keyboard-response","183","279556","0.0-1.0-239.0-0.0","0","0","53033","","706","","","68","26","","","1","26","training","adjacent","EF","5","6","N.jpg","L.jpg","0","1","0","",""
"","feedback","","html-keyboard-response","184","280571","0.0-1.0-240.0-0.0","0","0","53033","","null","","","null","26","","","","","","","","","","","","","","","",""
"","time_out","","html-keyboard-response","185","282584","0.0-1.0-242.0-0.0","0","0","53033","","null","","","null","26","","","","","","","","","","","","","","","",""
"","ITI","","html-keyboard-response","186","283585","0.0-1.0-243.0","0","0","53033","","null","","","null","26","","","","","","","","","","","","","","","NaN",""
"","S1","","html-keyboard-response","187","283738","0.0-1.0-245.0","0","0","53033","","null","","","null","27","","","","","","","","","","","","","","","",""
"","ISI","","html-keyboard-response","188","285747","0.0-1.0-246.0","0","0","53033","","null","","","null","27","NaN","","","","","","","","","","","","","","",""
"","S2","","html-keyboard-response","189","285900","0.0-1.0-247.0","0","0","53033","","null","","","null","27","","NaN","","","","","","","","","","","","","",""
"","response","","html-keyboard-response","190","286444","0.0-1.0-248.0-0.0","0","0","53033","","543","","","75","27","","","1","27","training","adjacent","FG","6","7","L.jpg","R.jpg","1","1","1","",""
"","feedback","","html-keyboard-response","191","287450","0.0-1.0-249.0-0.0","0","0","53033","","null","","","null","27","","","","","","","","","","","","","","","",""
"","ITI","","html-keyboard-response","192","288453","0.0-1.0-252.0","0","0","53033","","null","","","null","27","","","","","","","","","","","","","","","NaN",""
"","S1","","html-keyboard-response","193","288610","0.0-1.0-254.0","0","0","53033","","null","","","null","28","","","","","","","","","","","","","","","",""
"","ISI","","html-keyboard-response","194","290621","0.0-1.0-255.0","0","0","53033","","null","","","null","28","NaN","","","","","","","","","","","","","","",""
"","S2","","html-keyboard-response","195","290777","0.0-1.0-256.0","0","0","53033","","null","","","null","28","","NaN","","","","","","","","","","","","","",""
"","response","","html-keyboard-response","196","291348","0.0-1.0-257.0-0.0","0","0","53033","","570","","","68","28","","","1","28","training","adjacent","CD","3","4","Q.jpg","M.jpg","0","1","0","",""
"","feedback","","html-keyboard-response","197","292356","0.0-1.0-258.0-0.0","0","0","53033","","null","","","null","28","","","","","","","","","","","","","","","",""
"","time_out","","html-keyboard-response","198","294360","0.0-1.0-260.0-0.0","0","0","53033","","null","","","null","28","","","","","","","","","","","","","","","",""
"","ITI","","html-keyboard-response","199","295364","0.0-1.0-261.0","0","0","53033","","null","","","null","28","","","","","","","","","","","","","","","NaN",""
"","S1","","html-keyboard-response","200","295520","0.0-1.0-263.0","0","0","53033","","null","","","null","29","","","","","","","","","","","","","","","",""
"","ISI","","html-keyboard-response","201","297525","0.0-1.0-264.0","0","0","53033","","null","","","null","29","NaN","","","","","","","","","","","","","","",""
"","S2","","html-keyboard-response","202","297683","0.0-1.0-265.0","0","0","53033","","null","","","null","29","","NaN","","","","","","","","","","","","","",""
"","response","","html-keyboard-response","203","297939","0.0-1.0-266.0-0.0","0","0","53033","","255","","","75","29","","","1","29","training","adjacent","DE","4","5","M.jpg","N.jpg","1","1","1","",""
"","feedback","","html-keyboard-response","204","298949","0.0-1.0-267.0-0.0","0","0","53033","","null","","","null","29","","","","","","","","","","","","","","","",""
"","ITI","","html-keyboard-response","205","299952","0.0-1.0-270.0","0","0","53033","","null","","","null","29","","","","","","","","","","","","","","","NaN",""
"","S1","","html-keyboard-response","206","300110","0.0-1.0-272.0","0","0","53033","","null","","","null","30","","","","","","","","","","","","","","","",""
"","ISI","","html-keyboard-response","207","302113","0.0-1.0-273.0","0","0","53033","","null","","","null","30","NaN","","","","","","","","","","","","","","",""
"","S2","","html-keyboard-response","208","302268","0.0-1.0-274.0","0","0","53033","","null","","","null","30","","NaN","","","","","","","","","","","","","",""
"","response","","html-keyboard-response","209","303402","0.0-1.0-275.0-0.0","0","0","53033","","1134","","","75","30","","","1","30","training","adjacent","BC","2","3","O.jpg","Q.jpg","1","1","1","",""
"","feedback","","html-keyboard-response","210","304411","0.0-1.0-276.0-0.0","0","0","53033","","null","","","null","30","","","","","","","","","","","","","","","",""
"","ITI","","html-keyboard-response","211","305421","0.0-1.0-279.0","0","0","53033","","null","","","null","30","","","","","","","","","","","","","","","NaN",""
"","S1","","html-keyboard-response","212","305579","0.0-1.0-281.0","0","0","53033","","null","","","null","31","","","","","","","","","","","","","","","",""
"","ISI","","html-keyboard-response","213","307583","0.0-1.0-282.0","0","0","53033","","null","","","null","31","NaN","","","","","","","","","","","","","","",""
"","S2","","html-keyboard-response","214","307741","0.0-1.0-283.0","0","0","53033","","null","","","null","31","","NaN","","","","","","","","","","","","","",""
"","response","","html-keyboard-response","215","308147","0.0-1.0-284.0-0.0","0","0","53033","","405","","","75","31","","","1","31","training","adjacent","DE","4","5","M.jpg","N.jpg","1","1","1","",""
"","feedback","","html-keyboard-response","216","309163","0.0-1.0-285.0-0.0","0","0","53033","","null","","","null","31","","","","","","","","","","","","","","","",""
"","ITI","","html-keyboard-response","217","310176","0.0-1.0-288.0","0","0","53033","","null","","","null","31","","","","","","","","","","","","","","","NaN",""
"","S1","","html-keyboard-response","218","310333","0.0-1.0-290.0","0","0","53033","","null","","","null","32","","","","","","","","","","","","","","","",""
"","ISI","","html-keyboard-response","219","312343","0.0-1.0-291.0","0","0","53033","","null","","","null","32","NaN","","","","","","","","","","","","","","",""
"","S2","","html-keyboard-response","220","312498","0.0-1.0-292.0","0","0","53033","","null","","","null","32","","NaN","","","","","","","","","","","","","",""
"","response","","html-keyboard-response","221","313115","0.0-1.0-293.0-0.0","0","0","53033","","616","","","75","32","","","1","32","training","adjacent","BA","2","1","O.jpg","P.jpg","1","0","0","",""
"","feedback","","html-keyboard-response","222","314129","0.0-1.0-294.0-0.0","0","0","53033","","null","","","null","32","","","","","","","","","","","","","","","",""
"","time_out","","html-keyboard-response","223","316145","0.0-1.0-296.0-0.0","0","0","53033","","null","","","null","32","","","","","","","","","","","","","","","",""
"","ITI","","html-keyboard-response","224","317147","0.0-1.0-297.0","0","0","53033","","null","","","null","32","","","","","","","","","","","","","","","NaN",""
"","S1","","html-keyboard-response","225","317303","0.0-1.0-299.0","0","0","53033","","null","","","null","33","","","","","","","","","","","","","","","",""
"","ISI","","html-keyboard-response","226","319308","0.0-1.0-300.0","0","0","53033","","null","","","null","33","NaN","","","","","","","","","","","","","","",""
"","S2","","html-keyboard-response","227","319463","0.0-1.0-301.0","0","0","53033","","null","","","null","33","","NaN","","","","","","","","","","","","","",""
"","response","","html-keyboard-response","228","319770","0.0-1.0-302.0-0.0","0","0","53033","","306","","","68","33","","","1","33","training","adjacent","FE","6","5","L.jpg","N.jpg","0","0","1","",""
"","feedback","","html-keyboard-response","229","320778","0.0-1.0-303.0-0.0","0","0","53033","","null","","","null","33","","","","","","","","","","","","","","","",""
"","ITI","","html-keyboard-response","230","321787","0.0-1.0-306.0","0","0","53033","","null","","","null","33","","","","","","","","","","","","","","","NaN",""
"","S1","","html-keyboard-response","231","321945","0.0-1.0-308.0","0","0","53033","","null","","","null","34","","","","","","","","","","","","","","","",""
"","ISI","","html-keyboard-response","232","323947","0.0-1.0-309.0","0","0","53033","","1256","","","75","34","k","","","","","","","","","","","","","","",""
"","S2","","html-keyboard-response","233","324107","0.0-1.0-310.0","0","0","53033","","null","","","null","34","","NaN","","","","","","","","","","","","","",""
"","response","","html-keyboard-response","234","324346","0.0-1.0-311.0-0.0","0","0","53033","","238","","","75","34","","","1","34","training","adjacent","DC","4","3","M.jpg","Q.jpg","1","0","0","",""
"","feedback","","html-keyboard-response","235","325355","0.0-1.0-312.0-0.0","0","0","53033","","null","","","null","34","","","","","","","","","","","","","","","",""
"","time_out","","html-keyboard-response","236","327370","0.0-1.0-314.0-0.0","0","0","53033","","null","","","null","34","","","","","","","","","","","","","","","",""
"","ITI","","html-keyboard-response","237","328374","0.0-1.0-315.0","0","0","53033","","null","","","null","34","","","","","","","","","","","","","","","NaN",""
"","S1","","html-keyboard-response","238","328526","0.0-1.0-317.0","0","0","53033","","null","","","null","35","","","","","","","","","","","","","","","",""
"","ISI","","html-keyboard-response","239","330528","0.0-1.0-318.0","0","0","53033","","null","","","null","35","NaN","","","","","","","","","","","","","","",""
"","S2","","html-keyboard-response","240","330682","0.0-1.0-319.0","0","0","53033","","null","","","null","35","","NaN","","","","","","","","","","","","","",""
"","response","","html-keyboard-response","241","331274","0.0-1.0-320.0-0.0","0","0","53033","","591","","","68","35","","","1","35","training","adjacent","BC","2","3","O.jpg","Q.jpg","0","1","0","",""
"","feedback","","html-keyboard-response","242","332291","0.0-1.0-321.0-0.0","0","0","53033","","null","","","null","35","","","","","","","","","","","","","","","",""
"","time_out","","html-keyboard-response","243","334304","0.0-1.0-323.0-0.0","0","0","53033","","null","","","null","35","","","","","","","","","","","","","","","",""
"","ITI","","html-keyboard-response","244","335306","0.0-1.0-324.0","0","0","53033","","null","","","null","35","","","","","","","","","","","","","","","NaN",""
"","S1","","html-keyboard-response","245","335460","0.0-1.0-326.0","0","0","53033","","null","","","null","36","","","","","","","","","","","","","","","",""
"","ISI","","html-keyboard-response","246","337476","0.0-1.0-327.0","0","0","53033","","null","","","null","36","NaN","","","","","","","","","","","","","","",""
"","S2","","html-keyboard-response","247","337631","0.0-1.0-328.0","0","0","53033","","null","","","null","36","","NaN","","","","","","","","","","","","","",""
"","response","","html-keyboard-response","248","338010","0.0-1.0-329.0-0.0","0","0","53033","","378","","","75","36","","","1","36","training","adjacent","GF","7","6","R.jpg","L.jpg","1","0","0","",""
"","feedback","","html-keyboard-response","249","339027","0.0-1.0-330.0-0.0","0","0","53033","","null","","","null","36","","","","","","","","","","","","","","","",""
"","time_out","","html-keyboard-response","250","341029","0.0-1.0-332.0-0.0","0","0","53033","","null","","","null","36","","","","","","","","","","","","","","","",""
"","ITI","","html-keyboard-response","251","342032","0.0-1.0-333.0","0","0","53033","","null","","","null","36","","","","","","","","","","","","","","","NaN",""
"","S1","","html-keyboard-response","252","342188","0.0-1.0-335.0","0","0","53033","","null","","","null","37","","","","","","","","","","","","","","","",""
"","ISI","","html-keyboard-response","253","344192","0.0-1.0-336.0","0","0","53033","","null","","","null","37","NaN","","","","","","","","","","","","","","",""
"","S2","","html-keyboard-response","254","344348","0.0-1.0-337.0","0","0","53033","","null","","","null","37","","NaN","","","","","","","","","","","","","",""
"","response","","html-keyboard-response","255","344602","0.0-1.0-338.0-0.0","0","0","53033","","253","","","68","37","","","1","37","training","adjacent","FG","6","7","L.jpg","R.jpg","0","1","0","",""
"","feedback","","html-keyboard-response","256","345617","0.0-1.0-339.0-0.0","0","0","53033","","null","","","null","37","","","","","","","","","","","","","","","",""
"","time_out","","html-keyboard-response","257","347629","0.0-1.0-341.0-0.0","0","0","53033","","null","","","null","37","","","","","","","","","","","","","","","",""
"","ITI","","html-keyboard-response","258","348638","0.0-1.0-342.0","0","0","53033","","268","","","75","37","","","","","","","","","","","","","","","k",""
"","S1","","html-keyboard-response","259","348795","0.0-1.0-344.0","0","0","53033","","null","","","null","38","","","","","","","","","","","","","","","",""
"","ISI","","html-keyboard-response","260","350797","0.0-1.0-345.0","0","0","53033","","318","","","75","38","k","","","","","","","","","","","","","","",""
"","S2","","html-keyboard-response","261","350954","0.0-1.0-346.0","0","0","53033","","null","","","null","38","","NaN","","","","","","","","","","","","","",""
"","response","","html-keyboard-response","262","351393","0.0-1.0-347.0-0.0","0","0","53033","","438","","","75","38","","","1","38","training","adjacent","CD","3","4","Q.jpg","M.jpg","1","1","1","",""
"","feedback","","html-keyboard-response","263","352401","0.0-1.0-348.0-0.0","0","0","53033","","null","","","null","38","","","","","","","","","","","","","","","",""
"","ITI","","html-keyboard-response","264","353417","0.0-1.0-351.0","0","0","53033","","null","","","null","38","","","","","","","","","","","","","","","NaN",""
"","S1","","html-keyboard-response","265","353574","0.0-1.0-353.0","0","0","53033","","null","","","null","39","","","","","","","","","","","","","","","",""
"","ISI","","html-keyboard-response","266","355581","0.0-1.0-354.0","0","0","53033","","null","","","null","39","NaN","","","","","","","","","","","","","","",""
"","S2","","html-keyboard-response","267","355738","0.0-1.0-355.0","0","0","53033","","null","","","null","39","","NaN","","","","","","","","","","","","","",""
"","response","","html-keyboard-response","268","356713","0.0-1.0-356.0-0.0","0","0","53033","","973","","","75","39","","","1","39","training","adjacent","EF","5","6","N.jpg","L.jpg","1","1","1","",""
"","feedback","","html-keyboard-response","269","357723","0.0-1.0-357.0-0.0","0","0","53033","","null","","","null","39","","","","","","","","","","","","","","","",""
"","ITI","","html-keyboard-response","270","358739","0.0-1.0-360.0","0","0","53033","","null","","","null","39","","","","","","","","","","","","","","","NaN",""
"","S1","","html-keyboard-response","271","358894","0.0-1.0-362.0","0","0","53033","","null","","","null","40","","","","","","","","","","","","","","","",""
"","ISI","","html-keyboard-response","272","360901","0.0-1.0-363.0","0","0","53033","","null","","","null","40","NaN","","","","","","","","","","","","","","",""
"","S2","","html-keyboard-response","273","361058","0.0-1.0-364.0","0","0","53033","","null","","","null","40","","NaN","","","","","","","","","","","","","",""
"","response","","html-keyboard-response","274","361801","0.0-1.0-365.0-0.0","0","0","53033","","742","","","75","40","","","1","40","training","adjacent","BA","2","1","O.jpg","P.jpg","1","0","0","",""
"","feedback","","html-keyboard-response","275","362811","0.0-1.0-366.0-0.0","0","0","53033","","null","","","null","40","","","","","","","","","","","","","","","",""
"","time_out","","html-keyboard-response","276","364827","0.0-1.0-368.0-0.0","0","0","53033","","null","","","null","40","","","","","","","","","","","","","","","",""
"","ITI","","html-keyboard-response","277","365832","0.0-1.0-369.0","0","0","53033","","null","","","null","40","","","","","","","","","","","","","","","NaN",""
"","S1","","html-keyboard-response","278","365987","0.0-1.0-371.0","0","0","53033","","null","","","null","41","","","","","","","","","","","","","","","",""
"","ISI","","html-keyboard-response","279","368001","0.0-1.0-372.0","0","0","53033","","null","","","null","41","NaN","","","","","","","","","","","","","","",""
"","S2","","html-keyboard-response","280","368155","0.0-1.0-373.0","0","0","53033","","null","","","null","41","","NaN","","","","","","","","","","","","","",""
"","response","","html-keyboard-response","281","368385","0.0-1.0-374.0-0.0","0","0","53033","","229","","","68","41","","","1","41","training","adjacent","FE","6","5","L.jpg","N.jpg","0","0","1","",""
"","feedback","","html-keyboard-response","282","369396","0.0-1.0-375.0-0.0","0","0","53033","","null","","","null","41","","","","","","","","","","","","","","","",""
"","ITI","","html-keyboard-response","283","370413","0.0-1.0-378.0","0","0","53033","","null","","","null","41","","","","","","","","","","","","","","","NaN",""
"","S1","","html-keyboard-response","284","370570","0.0-1.0-380.0","0","0","53033","","null","","","null","42","","","","","","","","","","","","","","","",""
"","ISI","","html-keyboard-response","285","372574","0.0-1.0-381.0","0","0","53033","","null","","","null","42","NaN","","","","","","","","","","","","","","",""
"","S2","","html-keyboard-response","286","372728","0.0-1.0-382.0","0","0","53033","","null","","","null","42","","NaN","","","","","","","","","","","","","",""
"","response","","html-keyboard-response","287","373473","0.0-1.0-383.0-0.0","0","0","53033","","744","","","75","42","","","1","42","training","adjacent","ED","5","4","N.jpg","M.jpg","1","0","0","",""
"","feedback","","html-keyboard-response","288","374489","0.0-1.0-384.0-0.0","0","0","53033","","null","","","null","42","","","","","","","","","","","","","","","",""
"","time_out","","html-keyboard-response","289","376490","0.0-1.0-386.0-0.0","0","0","53033","","null","","","null","42","","","","","","","","","","","","","","","",""
"","ITI","","html-keyboard-response","290","377493","0.0-1.0-387.0","0","0","53033","","null","","","null","42","","","","","","","","","","","","","","","NaN",""
"","S1","","html-keyboard-response","291","377648","0.0-1.0-389.0","0","0","53033","","null","","","null","43","","","","","","","","","","","","","","","",""
"","ISI","","html-keyboard-response","292","379665","0.0-1.0-390.0","0","0","53033","","null","","","null","43","NaN","","","","","","","","","","","","","","",""
"","S2","","html-keyboard-response","293","379822","0.0-1.0-391.0","0","0","53033","","null","","","null","43","","NaN","","","","","","","","","","","","","",""
"","response","","html-keyboard-response","294","380064","0.0-1.0-392.0-0.0","0","0","53033","","241","","","68","43","","","1","43","training","adjacent","FG","6","7","L.jpg","R.jpg","0","1","0","",""
"","feedback","","html-keyboard-response","295","381074","0.0-1.0-393.0-0.0","0","0","53033","","null","","","null","43","","","","","","","","","","","","","","","",""
"","time_out","","html-keyboard-response","296","383086","0.0-1.0-395.0-0.0","0","0","53033","","null","","","null","43","","","","","","","","","","","","","","","",""
"","ITI","","html-keyboard-response","297","384100","0.0-1.0-396.0","0","0","53033","","null","","","null","43","","","","","","","","","","","","","","","NaN",""
"","S1","","html-keyboard-response","298","384252","0.0-1.0-398.0","0","0","53033","","null","","","null","44","","","","","","","","","","","","","","","",""
"","ISI","","html-keyboard-response","299","386258","0.0-1.0-399.0","0","0","53033","","null","","","null","44","NaN","","","","","","","","","","","","","","",""
"","S2","","html-keyboard-response","300","386417","0.0-1.0-400.0","0","0","53033","","null","","","null","44","","NaN","","","","","","","","","","","","","",""
"","response","","html-keyboard-response","301","386680","0.0-1.0-401.0-0.0","0","0","53033","","262","","","75","44","","","1","44","training","adjacent","ED","5","4","N.jpg","M.jpg","1","0","0","",""
"","feedback","","html-keyboard-response","302","387692","0.0-1.0-402.0-0.0","0","0","53033","","null","","","null","44","","","","","","","","","","","","","","","",""
"","time_out","","html-keyboard-response","303","389698","0.0-1.0-404.0-0.0","0","0","53033","","null","","","null","44","","","","","","","","","","","","","","","",""
"","ITI","","html-keyboard-response","304","390706","0.0-1.0-405.0","0","0","53033","","null","","","null","44","","","","","","","","","","","","","","","NaN",""
"","S1","","html-keyboard-response","305","390862","0.0-1.0-407.0","0","0","53033","","null","","","null","45","","","","","","","","","","","","","","","",""
"","ISI","","html-keyboard-response","306","392867","0.0-1.0-408.0","0","0","53033","","null","","","null","45","NaN","","","","","","","","","","","","","","",""
"","S2","","html-keyboard-response","307","393025","0.0-1.0-409.0","0","0","53033","","null","","","null","45","","NaN","","","","","","","","","","","","","",""
"","response","","html-keyboard-response","308","393609","0.0-1.0-410.0-0.0","0","0","53033","","583","","","68","45","","","1","45","training","adjacent","DE","4","5","M.jpg","N.jpg","0","1","0","",""
"","feedback","","html-keyboard-response","309","394618","0.0-1.0-411.0-0.0","0","0","53033","","null","","","null","45","","","","","","","","","","","","","","","",""
"","time_out","","html-keyboard-response","310","396626","0.0-1.0-413.0-0.0","0","0","53033","","null","","","null","45","","","","","","","","","","","","","","","",""
"","ITI","","html-keyboard-response","311","397641","0.0-1.0-414.0","0","0","53033","","null","","","null","45","","","","","","","","","","","","","","","NaN",""
"","S1","","html-keyboard-response","312","397797","0.0-1.0-416.0","0","0","53033","","null","","","null","46","","","","","","","","","","","","","","","",""
"","ISI","","html-keyboard-response","313","399801","0.0-1.0-417.0","0","0","53033","","null","","","null","46","NaN","","","","","","","","","","","","","","",""
"","S2","","html-keyboard-response","314","399957","0.0-1.0-418.0","0","0","53033","","null","","","null","46","","NaN","","","","","","","","","","","","","",""
"","response","","html-keyboard-response","315","400480","0.0-1.0-419.0-0.0","0","0","53033","","521","","","75","46","","","1","46","training","adjacent","FG","6","7","L.jpg","R.jpg","1","1","1","",""
"","feedback","","html-keyboard-response","316","401482","0.0-1.0-420.0-0.0","0","0","53033","","null","","","null","46","","","","","","","","","","","","","","","",""
"","ITI","","html-keyboard-response","317","402499","0.0-1.0-423.0","0","0","53033","","null","","","null","46","","","","","","","","","","","","","","","NaN",""
"","S1","","html-keyboard-response","318","402655","0.0-1.0-425.0","0","0","53033","","null","","","null","47","","","","","","","","","","","","","","","",""
"","ISI","","html-keyboard-response","319","404670","0.0-1.0-426.0","0","0","53033","","null","","","null","47","NaN","","","","","","","","","","","","","","",""
"","S2","","html-keyboard-response","320","404829","0.0-1.0-427.0","0","0","53033","","null","","","null","47","","NaN","","","","","","","","","","","","","",""
"","response","","html-keyboard-response","321","405064","0.0-1.0-428.0-0.0","0","0","53033","","234","","","75","47","","","1","47","training","adjacent","CB","3","2","Q.jpg","O.jpg","1","0","0","",""
"","feedback","","html-keyboard-response","322","406069","0.0-1.0-429.0-0.0","0","0","53033","","null","","","null","47","","","","","","","","","","","","","","","",""
"","time_out","","html-keyboard-response","323","408084","0.0-1.0-431.0-0.0","0","0","53033","","null","","","null","47","","","","","","","","","","","","","","","",""
"","ITI","","html-keyboard-response","324","409098","0.0-1.0-432.0","0","0","53033","","null","","","null","47","","","","","","","","","","","","","","","NaN",""
"","block_over","","html-keyboard-response","325","699406","0.0-1.0-433.0-0.0","0","0","53033","","290307","","","32","47","","","","","","","","","","","","","","","",""
"","S1","","html-keyboard-response","326","699560","0.0-1.0-434.0","0","0","53033","","null","","","null","48","","","","","","","","","","","","","","","",""
"","ISI","","html-keyboard-response","327","701563","0.0-1.0-435.0","0","0","53033","","null","","","null","48","NaN","","","","","","","","","","","","","","",""
"","S2","","html-keyboard-response","328","701720","0.0-1.0-436.0","0","0","53033","","null","","","null","48","","NaN","","","","","","","","","","","","","",""
"","response","","html-keyboard-response","329","702030","0.0-1.0-437.0-0.0","0","0","53033","","308","","","75","48","","","2","48","training","adjacent","DE","4","5","M.jpg","N.jpg","1","1","1","",""
"","feedback","","html-keyboard-response","330","703045","0.0-1.0-438.0-0.0","0","0","53033","","null","","","null","48","","","","","","","","","","","","","","","",""
"","ITI","","html-keyboard-response","331","704051","0.0-1.0-441.0","0","0","53033","","null","","","null","48","","","","","","","","","","","","","","","NaN",""
"","S1","","html-keyboard-response","332","704211","0.0-1.0-443.0","0","0","53033","","null","","","null","49","","","","","","","","","","","","","","","",""
"","ISI","","html-keyboard-response","333","706228","0.0-1.0-444.0","0","0","53033","","null","","","null","49","NaN","","","","","","","","","","","","","","",""
"","S2","","html-keyboard-response","334","706383","0.0-1.0-445.0","0","0","53033","","null","","","null","49","","NaN","","","","","","","","","","","","","",""
"","response","","html-keyboard-response","335","706910","0.0-1.0-446.0-0.0","0","0","53033","","525","","","75","49","","","2","49","training","adjacent","FE","6","5","L.jpg","N.jpg","1","0","0","",""
"","feedback","","html-keyboard-response","336","707912","0.0-1.0-447.0-0.0","0","0","53033","","null","","","null","49","","","","","","","","","","","","","","","",""
"","time_out","","html-keyboard-response","337","709913","0.0-1.0-449.0-0.0","0","0","53033","","null","","","null","49","","","","","","","","","","","","","","","",""
"","ITI","","html-keyboard-response","338","710927","0.0-1.0-450.0","0","0","53033","","null","","","null","49","","","","","","","","","","","","","","","NaN",""
"","S1","","html-keyboard-response","339","711083","0.0-1.0-452.0","0","0","53033","","null","","","null","50","","","","","","","","","","","","","","","",""
"","ISI","","html-keyboard-response","340","713099","0.0-1.0-453.0","0","0","53033","","null","","","null","50","NaN","","","","","","","","","","","","","","",""
"","S2","","html-keyboard-response","341","713256","0.0-1.0-454.0","0","0","53033","","null","","","null","50","","NaN","","","","","","","","","","","","","",""
"","response","","html-keyboard-response","342","713517","0.0-1.0-455.0-0.0","0","0","53033","","260","","","68","50","","","2","50","training","adjacent","EF","5","6","N.jpg","L.jpg","0","1","0","",""
"","feedback","","html-keyboard-response","343","714520","0.0-1.0-456.0-0.0","0","0","53033","","null","","","null","50","","","","","","","","","","","","","","","",""
"","time_out","","html-keyboard-response","344","716532","0.0-1.0-458.0-0.0","0","0","53033","","null","","","null","50","","","","","","","","","","","","","","","",""
"","ITI","","html-keyboard-response","345","717536","0.0-1.0-459.0","0","0","53033","","null","","","null","50","","","","","","","","","","","","","","","NaN",""
"","S1","","html-keyboard-response","346","717692","0.0-1.0-461.0","0","0","53033","","null","","","null","51","","","","","","","","","","","","","","","",""
"","ISI","","html-keyboard-response","347","719694","0.0-1.0-462.0","0","0","53033","","null","","","null","51","NaN","","","","","","","","","","","","","","",""
"","S2","","html-keyboard-response","348","719851","0.0-1.0-463.0","0","0","53033","","null","","","null","51","","NaN","","","","","","","","","","","","","",""
"","response","","html-keyboard-response","349","720158","0.0-1.0-464.0-0.0","0","0","53033","","306","","","75","51","","","2","51","training","adjacent","BC","2","3","O.jpg","Q.jpg","1","1","1","",""
"","feedback","","html-keyboard-response","350","721169","0.0-1.0-465.0-0.0","0","0","53033","","null","","","null","51","","","","","","","","","","","","","","","",""
"","ITI","","html-keyboard-response","351","722174","0.0-1.0-468.0","0","0","53033","","null","","","null","51","","","","","","","","","","","","","","","NaN",""
"","S1","","html-keyboard-response","352","722329","0.0-1.0-470.0","0","0","53033","","null","","","null","52","","","","","","","","","","","","","","","",""
"","ISI","","html-keyboard-response","353","724333","0.0-1.0-471.0","0","0","53033","","null","","","null","52","NaN","","","","","","","","","","","","","","",""
"","S2","","html-keyboard-response","354","724487","0.0-1.0-472.0","0","0","53033","","null","","","null","52","","NaN","","","","","","","","","","","","","",""
"","response","","html-keyboard-response","355","724941","0.0-1.0-473.0-0.0","0","0","53033","","453","","","68","52","","","2","52","training","adjacent","CD","3","4","Q.jpg","M.jpg","0","1","0","",""
"","feedback","","html-keyboard-response","356","725951","0.0-1.0-474.0-0.0","0","0","53033","","null","","","null","52","","","","","","","","","","","","","","","",""
"","time_out","","html-keyboard-response","357","727965","0.0-1.0-476.0-0.0","0","0","53033","","null","","","null","52","","","","","","","","","","","","","","","",""
"","ITI","","html-keyboard-response","358","728971","0.0-1.0-477.0","0","0","53033","","null","","","null","52","","","","","","","","","","","","","","","NaN",""
"","S1","","html-keyboard-response","359","729126","0.0-1.0-479.0","0","0","53033","","null","","","null","53","","","","","","","","","","","","","","","",""
"","ISI","","html-keyboard-response","360","731133","0.0-1.0-480.0","0","0","53033","","null","","","null","53","NaN","","","","","","","","","","","","","","",""
"","S2","","html-keyboard-response","361","731290","0.0-1.0-481.0","0","0","53033","","null","","","null","53","","NaN","","","","","","","","","","","","","",""
"","response","","html-keyboard-response","362","731550","0.0-1.0-482.0-0.0","0","0","53033","","258","","","75","53","","","2","53","training","adjacent","GF","7","6","R.jpg","L.jpg","1","0","0","",""
"","feedback","","html-keyboard-response","363","732555","0.0-1.0-483.0-0.0","0","0","53033","","null","","","null","53","","","","","","","","","","","","","","","",""
"","time_out","","html-keyboard-response","364","734566","0.0-1.0-485.0-0.0","0","0","53033","","null","","","null","53","","","","","","","","","","","","","","","",""
"","ITI","","html-keyboard-response","365","735580","0.0-1.0-486.0","0","0","53033","","null","","","null","53","","","","","","","","","","","","","","","NaN",""
"","S1","","html-keyboard-response","366","735737","0.0-1.0-488.0","0","0","53033","","null","","","null","54","","","","","","","","","","","","","","","",""
"","ISI","","html-keyboard-response","367","737753","0.0-1.0-489.0","0","0","53033","","null","","","null","54","NaN","","","","","","","","","","","","","","",""
"","S2","","html-keyboard-response","368","737909","0.0-1.0-490.0","0","0","53033","","null","","","null","54","","NaN","","","","","","","","","","","","","",""
"","response","","html-keyboard-response","369","738132","0.0-1.0-491.0-0.0","0","0","53033","","223","","","68","54","","","2","54","training","adjacent","EF","5","6","N.jpg","L.jpg","0","1","0","",""
"","feedback","","html-keyboard-response","370","739144","0.0-1.0-492.0-0.0","0","0","53033","","null","","","null","54","","","","","","","","","","","","","","","",""
"","time_out","","html-keyboard-response","371","741151","0.0-1.0-494.0-0.0","0","0","53033","","null","","","null","54","","","","","","","","","","","","","","","",""
"","ITI","","html-keyboard-response","372","742166","0.0-1.0-495.0","0","0","53033","","null","","","null","54","","","","","","","","","","","","","","","NaN",""
"","S1","","html-keyboard-response","373","742324","0.0-1.0-497.0","0","0","53033","","null","","","null","55","","","","","","","","","","","","","","","",""
"","ISI","","html-keyboard-response","374","744335","0.0-1.0-498.0","0","0","53033","","null","","","null","55","NaN","","","","","","","","","","","","","","",""
"","S2","","html-keyboard-response","375","744495","0.0-1.0-499.0","0","0","53033","","null","","","null","55","","NaN","","","","","","","","","","","","","",""
"","response","","html-keyboard-response","376","744941","0.0-1.0-500.0-0.0","0","0","53033","","445","","","75","55","","","2","55","training","adjacent","ED","5","4","N.jpg","M.jpg","1","0","0","",""
"","feedback","","html-keyboard-response","377","745943","0.0-1.0-501.0-0.0","0","0","53033","","null","","","null","55","","","","","","","","","","","","","","","",""
"","time_out","","html-keyboard-response","378","747958","0.0-1.0-503.0-0.0","0","0","53033","","null","","","null","55","","","","","","","","","","","","","","","",""
"","ITI","","html-keyboard-response","379","748974","0.0-1.0-504.0","0","0","53033","","null","","","null","55","","","","","","","","","","","","","","","NaN",""
"","S1","","html-keyboard-response","380","749132","0.0-1.0-506.0","0","0","53033","","null","","","null","56","","","","","","","","","","","","","","","",""
"","ISI","","html-keyboard-response","381","751137","0.0-1.0-507.0","0","0","53033","","1176","","","68","56","d","","","","","","","","","","","","","","",""
"","S2","","html-keyboard-response","382","751293","0.0-1.0-508.0","0","0","53033","","null","","","null","56","","NaN","","","","","","","","","","","","","",""
"","response","","html-keyboard-response","383","751469","0.0-1.0-509.0-0.0","0","0","53033","","175","","","68","56","","","2","56","training","adjacent","BA","2","1","O.jpg","P.jpg","0","0","1","",""
"","feedback","","html-keyboard-response","384","752474","0.0-1.0-510.0-0.0","0","0","53033","","null","","","null","56","","","","","","","","","","","","","","","",""
"","ITI","","html-keyboard-response","385","753489","0.0-1.0-513.0","0","0","53033","","null","","","null","56","","","","","","","","","","","","","","","NaN",""
"","S1","","html-keyboard-response","386","753644","0.0-1.0-515.0","0","0","53033","","null","","","null","57","","","","","","","","","","","","","","","",""
"","ISI","","html-keyboard-response","387","755647","0.0-1.0-516.0","0","0","53033","","null","","","null","57","NaN","","","","","","","","","","","","","","",""
"","S2","","html-keyboard-response","388","755804","0.0-1.0-517.0","0","0","53033","","null","","","null","57","","NaN","","","","","","","","","","","","","",""
"","response","","html-keyboard-response","389","756051","0.0-1.0-518.0-0.0","0","0","53033","","247","","","68","57","","","2","57","training","adjacent","DC","4","3","M.jpg","Q.jpg","0","0","1","",""
"","feedback","","html-keyboard-response","390","757069","0.0-1.0-519.0-0.0","0","0","53033","","null","","","null","57","","","","","","","","","","","","","","","",""
"","ITI","","html-keyboard-response","391","758082","0.0-1.0-522.0","0","0","53033","","null","","","null","57","","","","","","","","","","","","","","","NaN",""
"","S1","","html-keyboard-response","392","758238","0.0-1.0-524.0","0","0","53033","","null","","","null","58","","","","","","","","","","","","","","","",""
"","ISI","","html-keyboard-response","393","760242","0.0-1.0-525.0","0","0","53033","","null","","","null","58","NaN","","","","","","","","","","","","","","",""
"","S2","","html-keyboard-response","394","760397","0.0-1.0-526.0","0","0","53033","","null","","","null","58","","NaN","","","","","","","","","","","","","",""
"","response","","html-keyboard-response","395","760860","0.0-1.0-527.0-0.0","0","0","53033","","462","","","75","58","","","2","58","training","adjacent","BC","2","3","O.jpg","Q.jpg","1","1","1","",""
"","feedback","","html-keyboard-response","396","761862","0.0-1.0-528.0-0.0","0","0","53033","","null","","","null","58","","","","","","","","","","","","","","","",""
"","ITI","","html-keyboard-response","397","762877","0.0-1.0-531.0","0","0","53033","","null","","","null","58","","","","","","","","","","","","","","","NaN",""
"","S1","","html-keyboard-response","398","763033","0.0-1.0-533.0","0","0","53033","","null","","","null","59","","","","","","","","","","","","","","","",""
"","ISI","","html-keyboard-response","399","765040","0.0-1.0-534.0","0","0","53033","","null","","","null","59","NaN","","","","","","","","","","","","","","",""
"","S2","","html-keyboard-response","400","765196","0.0-1.0-535.0","0","0","53033","","null","","","null","59","","NaN","","","","","","","","","","","","","",""
"","response","","html-keyboard-response","401","765836","0.0-1.0-536.0-0.0","0","0","53033","","640","","","75","59","","","2","59","training","adjacent","FE","6","5","L.jpg","N.jpg","1","0","0","",""
"","feedback","","html-keyboard-response","402","766842","0.0-1.0-537.0-0.0","0","0","53033","","null","","","null","59","","","","","","","","","","","","","","","",""
"","time_out","","html-keyboard-response","403","768843","0.0-1.0-539.0-0.0","0","0","53033","","null","","","null","59","","","","","","","","","","","","","","","",""
"","ITI","","html-keyboard-response","404","769848","0.0-1.0-540.0","0","0","53033","","null","","","null","59","","","","","","","","","","","","","","","NaN",""
"","S1","","html-keyboard-response","405","770005","0.0-1.0-542.0","0","0","53033","","null","","","null","60","","","","","","","","","","","","","","","",""
"","ISI","","html-keyboard-response","406","772020","0.0-1.0-543.0","0","0","53033","","null","","","null","60","NaN","","","","","","","","","","","","","","",""
"","S2","","html-keyboard-response","407","772180","0.0-1.0-544.0","0","0","53033","","null","","","null","60","","NaN","","","","","","","","","","","","","",""
"","response","","html-keyboard-response","408","772411","0.0-1.0-545.0-0.0","0","0","53033","","231","","","68","60","","","2","60","training","adjacent","CB","3","2","Q.jpg","O.jpg","0","0","1","",""
"","feedback","","html-keyboard-response","409","773425","0.0-1.0-546.0-0.0","0","0","53033","","null","","","null","60","","","","","","","","","","","","","","","",""
"","ITI","","html-keyboard-response","410","774429","0.0-1.0-549.0","0","0","53033","","null","","","null","60","","","","","","","","","","","","","","","NaN",""
"","S1","","html-keyboard-response","411","774587","0.0-1.0-551.0","0","0","53033","","null","","","null","61","","","","","","","","","","","","","","","",""
"","ISI","","html-keyboard-response","412","776600","0.0-1.0-552.0","0","0","53033","","null","","","null","61","NaN","","","","","","","","","","","","","","",""
"","S2","","html-keyboard-response","413","776760","0.0-1.0-553.0","0","0","53033","","null","","","null","61","","NaN","","","","","","","","","","","","","",""
"","response","","html-keyboard-response","414","777124","0.0-1.0-554.0-0.0","0","0","53033","","363","","","68","61","","","2","61","training","adjacent","DC","4","3","M.jpg","Q.jpg","0","0","1","",""
"","feedback","","html-keyboard-response","415","778135","0.0-1.0-555.0-0.0","0","0","53033","","null","","","null","61","","","","","","","","","","","","","","","",""
"","ITI","","html-keyboard-response","416","779147","0.0-1.0-558.0","0","0","53033","","null","","","null","61","","","","","","","","","","","","","","","NaN",""
"","S1","","html-keyboard-response","417","779306","0.0-1.0-560.0","0","0","53033","","null","","","null","62","","","","","","","","","","","","","","","",""
"","ISI","","html-keyboard-response","418","781317","0.0-1.0-561.0","0","0","53033","","null","","","null","62","NaN","","","","","","","","","","","","","","",""
"","S2","","html-keyboard-response","419","781475","0.0-1.0-562.0","0","0","53033","","null","","","null","62","","NaN","","","","","","","","","","","","","",""
"","response","","html-keyboard-response","420","781660","0.0-1.0-563.0-0.0","0","0","53033","","183","","","75","62","","","2","62","training","adjacent","GF","7","6","R.jpg","L.jpg","1","0","0","",""
"","feedback","","html-keyboard-response","421","782668","0.0-1.0-564.0-0.0","0","0","53033","","null","","","null","62","","","","","","","","","","","","","","","",""
"","time_out","","html-keyboard-response","422","784674","0.0-1.0-566.0-0.0","0","0","53033","","null","","","null","62","","","","","","","","","","","","","","","",""
"","ITI","","html-keyboard-response","423","785691","0.0-1.0-567.0","0","0","53033","","null","","","null","62","","","","","","","","","","","","","","","NaN",""
"","S1","","html-keyboard-response","424","785847","0.0-1.0-569.0","0","0","53033","","null","","","null","63","","","","","","","","","","","","","","","",""
"","ISI","","html-keyboard-response","425","787848","0.0-1.0-570.0","0","0","53033","","468","","","68","63","d","","","","","","","","","","","","","","",""
"","S2","","html-keyboard-response","426","788005","0.0-1.0-571.0","0","0","53033","","null","","","null","63","","NaN","","","","","","","","","","","","","",""
"","response","","html-keyboard-response","427","788538","0.0-1.0-572.0-0.0","0","0","53033","","533","","","75","63","","","2","63","training","adjacent","DE","4","5","M.jpg","N.jpg","1","1","1","",""
"","feedback","","html-keyboard-response","428","789541","0.0-1.0-573.0-0.0","0","0","53033","","null","","","null","63","","","","","","","","","","","","","","","",""
"","ITI","","html-keyboard-response","429","790556","0.0-1.0-576.0","0","0","53033","","null","","","null","63","","","","","","","","","","","","","","","NaN",""
"","S1","","html-keyboard-response","430","790710","0.0-1.0-578.0","0","0","53033","","null","","","null","64","","","","","","","","","","","","","","","",""
"","ISI","","html-keyboard-response","431","792723","0.0-1.0-579.0","0","0","53033","","null","","","null","64","NaN","","","","","","","","","","","","","","",""
"","S2","","html-keyboard-response","432","792878","0.0-1.0-580.0","0","0","53033","","null","","","null","64","","NaN","","","","","","","","","","","","","",""
"","response","","html-keyboard-response","433","793435","0.0-1.0-581.0-0.0","0","0","53033","","555","","","68","64","","","2","64","training","adjacent","CB","3","2","Q.jpg","O.jpg","0","0","1","",""
"","feedback","","html-keyboard-response","434","794444","0.0-1.0-582.0-0.0","0","0","53033","","null","","","null","64","","","","","","","","","","","","","","","",""
"","ITI","","html-keyboard-response","435","795457","0.0-1.0-585.0","0","0","53033","","null","","","null","64","","","","","","","","","","","","","","","NaN",""
"","S1","","html-keyboard-response","436","795611","0.0-1.0-587.0","0","0","53033","","null","","","null","65","","","","","","","","","","","","","","","",""
"","ISI","","html-keyboard-response","437","797615","0.0-1.0-588.0","0","0","53033","","null","","","null","65","NaN","","","","","","","","","","","","","","",""
"","S2","","html-keyboard-response","438","797770","0.0-1.0-589.0","0","0","53033","","null","","","null","65","","NaN","","","","","","","","","","","","","",""
"","response","","html-keyboard-response","439","798172","0.0-1.0-590.0-0.0","0","0","53033","","400","","","68","65","","","2","65","training","adjacent","CD","3","4","Q.jpg","M.jpg","0","1","0","",""
"","feedback","","html-keyboard-response","440","799175","0.0-1.0-591.0-0.0","0","0","53033","","null","","","null","65","","","","","","","","","","","","","","","",""
"","time_out","","html-keyboard-response","441","801193","0.0-1.0-593.0-0.0","0","0","53033","","null","","","null","65","","","","","","","","","","","","","","","",""
"","ITI","","html-keyboard-response","442","802198","0.0-1.0-594.0","0","0","53033","","null","","","null","65","","","","","","","","","","","","","","","NaN",""
"","S1","","html-keyboard-response","443","802355","0.0-1.0-596.0","0","0","53033","","null","","","null","66","","","","","","","","","","","","","","","",""
"","ISI","","html-keyboard-response","444","804364","0.0-1.0-597.0","0","0","53033","","null","","","null","66","NaN","","","","","","","","","","","","","","",""
"","S2","","html-keyboard-response","445","804521","0.0-1.0-598.0","0","0","53033","","null","","","null","66","","NaN","","","","","","","","","","","","","",""
"","response","","html-keyboard-response","446","804698","0.0-1.0-599.0-0.0","0","0","53033","","175","","","68","66","","","2","66","training","adjacent","FG","6","7","L.jpg","R.jpg","0","1","0","",""
"","feedback","","html-keyboard-response","447","805710","0.0-1.0-600.0-0.0","0","0","53033","","null","","","null","66","","","","","","","","","","","","","","","",""
"","time_out","","html-keyboard-response","448","807722","0.0-1.0-602.0-0.0","0","0","53033","","null","","","null","66","","","","","","","","","","","","","","","",""
"","ITI","","html-keyboard-response","449","808737","0.0-1.0-603.0","0","0","53033","","null","","","null","66","","","","","","","","","","","","","","","NaN",""
"","S1","","html-keyboard-response","450","808892","0.0-1.0-605.0","0","0","53033","","null","","","null","67","","","","","","","","","","","","","","","",""
"","ISI","","html-keyboard-response","451","810894","0.0-1.0-606.0","0","0","53033","","null","","","null","67","NaN","","","","","","","","","","","","","","",""
"","S2","","html-keyboard-response","452","811049","0.0-1.0-607.0","0","0","53033","","null","","","null","67","","NaN","","","","","","","","","","","","","",""
"","response","","html-keyboard-response","453","811419","0.0-1.0-608.0-0.0","0","0","53033","","368","","","68","67","","","2","67","training","adjacent","DE","4","5","M.jpg","N.jpg","0","1","0","",""
"","feedback","","html-keyboard-response","454","812431","0.0-1.0-609.0-0.0","0","0","53033","","null","","","null","67","","","","","","","","","","","","","","","",""
"","time_out","","html-keyboard-response","455","814442","0.0-1.0-611.0-0.0","0","0","53033","","null","","","null","67","","","","","","","","","","","","","","","",""
"","ITI","","html-keyboard-response","456","815447","0.0-1.0-612.0","0","0","53033","","null","","","null","67","","","","","","","","","","","","","","","NaN",""
"","S1","","html-keyboard-response","457","815603","0.0-1.0-614.0","0","0","53033","","null","","","null","68","","","","","","","","","","","","","","","",""
"","ISI","","html-keyboard-response","458","817608","0.0-1.0-615.0","0","0","53033","","null","","","null","68","NaN","","","","","","","","","","","","","","",""
"","S2","","html-keyboard-response","459","817763","0.0-1.0-616.0","0","0","53033","","null","","","null","68","","NaN","","","","","","","","","","","","","",""
"","response","","html-keyboard-response","460","818194","0.0-1.0-617.0-0.0","0","0","53033","","430","","","68","68","","","2","68","training","adjacent","ED","5","4","N.jpg","M.jpg","0","0","1","",""
"","feedback","","html-keyboard-response","461","819210","0.0-1.0-618.0-0.0","0","0","53033","","null","","","null","68","","","","","","","","","","","","","","","",""
"","ITI","","html-keyboard-response","462","820212","0.0-1.0-621.0","0","0","53033","","null","","","null","68","","","","","","","","","","","","","","","NaN",""
"","S1","","html-keyboard-response","463","820370","0.0-1.0-623.0","0","0","53033","","null","","","null","69","","","","","","","","","","","","","","","",""
"","ISI","","html-keyboard-response","464","822371","0.0-1.0-624.0","0","0","53033","","null","","","null","69","NaN","","","","","","","","","","","","","","",""
"","S2","","html-keyboard-response","465","822526","0.0-1.0-625.0","0","0","53033","","null","","","null","69","","NaN","","","","","","","","","","","","","",""
"","response","","html-keyboard-response","466","822681","0.0-1.0-626.0-0.0","0","0","53033","","154","","","75","69","","","2","69","training","adjacent","GF","7","6","R.jpg","L.jpg","1","0","0","",""
"","feedback","","html-keyboard-response","467","823688","0.0-1.0-627.0-0.0","0","0","53033","","null","","","null","69","","","","","","","","","","","","","","","",""
"","time_out","","html-keyboard-response","468","825694","0.0-1.0-629.0-0.0","0","0","53033","","null","","","null","69","","","","","","","","","","","","","","","",""
"","ITI","","html-keyboard-response","469","826708","0.0-1.0-630.0","0","0","53033","","null","","","null","69","","","","","","","","","","","","","","","NaN",""
"","S1","","html-keyboard-response","470","826865","0.0-1.0-632.0","0","0","53033","","null","","","null","70","","","","","","","","","","","","","","","",""
"","ISI","","html-keyboard-response","471","828866","0.0-1.0-633.0","0","0","53033","","null","","","null","70","NaN","","","","","","","","","","","","","","",""
"","S2","","html-keyboard-response","472","829025","0.0-1.0-634.0","0","0","53033","","null","","","null","70","","NaN","","","","","","","","","","","","","",""
"","response","","html-keyboard-response","473","829274","0.0-1.0-635.0-0.0","0","0","53033","","248","","","75","70","","","2","70","training","adjacent","AB","1","2","P.jpg","O.jpg","1","1","1","",""
"","feedback","","html-keyboard-response","474","830289","0.0-1.0-636.0-0.0","0","0","53033","","null","","","null","70","","","","","","","","","","","","","","","",""
"","ITI","","html-keyboard-response","475","831301","0.0-1.0-639.0","0","0","53033","","null","","","null","70","","","","","","","","","","","","","","","NaN",""
"","S1","","html-keyboard-response","476","831459","0.0-1.0-641.0","0","0","53033","","null","","","null","71","","","","","","","","","","","","","","","",""
"","ISI","","html-keyboard-response","477","833473","0.0-1.0-642.0","0","0","53033","","null","","","null","71","NaN","","","","","","","","","","","","","","",""
"","S2","","html-keyboard-response","478","833627","0.0-1.0-643.0","0","0","53033","","null","","","null","71","","NaN","","","","","","","","","","","","","",""
"","response","","html-keyboard-response","479","833930","0.0-1.0-644.0-0.0","0","0","53033","","301","","","68","71","","","2","71","training","adjacent","EF","5","6","N.jpg","L.jpg","0","1","0","",""
"","feedback","","html-keyboard-response","480","834943","0.0-1.0-645.0-0.0","0","0","53033","","null","","","null","71","","","","","","","","","","","","","","","",""
"","time_out","","html-keyboard-response","481","836957","0.0-1.0-647.0-0.0","0","0","53033","","null","","","null","71","","","","","","","","","","","","","","","",""
"","ITI","","html-keyboard-response","482","837959","0.0-1.0-648.0","0","0","53033","","null","","","null","71","","","","","","","","","","","","","","","NaN",""
"","S1","","html-keyboard-response","483","838115","0.0-1.0-650.0","0","0","53033","","null","","","null","72","","","","","","","","","","","","","","","",""
"","ISI","","html-keyboard-response","484","840120","0.0-1.0-651.0","0","0","53033","","null","","","null","72","NaN","","","","","","","","","","","","","","",""
"","S2","","html-keyboard-response","485","840273","0.0-1.0-652.0","0","0","53033","","null","","","null","72","","NaN","","","","","","","","","","","","","",""
"","response","","html-keyboard-response","486","840545","0.0-1.0-653.0-0.0","0","0","53033","","271","","","75","72","","","2","72","training","adjacent","DC","4","3","M.jpg","Q.jpg","1","0","0","",""
"","feedback","","html-keyboard-response","487","841560","0.0-1.0-654.0-0.0","0","0","53033","","null","","","null","72","","","","","","","","","","","","","","","",""
"","time_out","","html-keyboard-response","488","843570","0.0-1.0-656.0-0.0","0","0","53033","","null","","","null","72","","","","","","","","","","","","","","","",""
"","ITI","","html-keyboard-response","489","844584","0.0-1.0-657.0","0","0","53033","","null","","","null","72","","","","","","","","","","","","","","","NaN",""
"","S1","","html-keyboard-response","490","844742","0.0-1.0-659.0","0","0","53033","","null","","","null","73","","","","","","","","","","","","","","","",""
"","ISI","","html-keyboard-response","491","846755","0.0-1.0-660.0","0","0","53033","","null","","","null","73","NaN","","","","","","","","","","","","","","",""
"","S2","","html-keyboard-response","492","846912","0.0-1.0-661.0","0","0","53033","","null","","","null","73","","NaN","","","","","","","","","","","","","",""
"","response","","html-keyboard-response","493","847625","0.0-1.0-662.0-0.0","0","0","53033","","712","","","75","73","","","2","73","training","adjacent","CB","3","2","Q.jpg","O.jpg","1","0","0","",""
"","feedback","","html-keyboard-response","494","848633","0.0-1.0-663.0-0.0","0","0","53033","","null","","","null","73","","","","","","","","","","","","","","","",""
"","time_out","","html-keyboard-response","495","850646","0.0-1.0-665.0-0.0","0","0","53033","","null","","","null","73","","","","","","","","","","","","","","","",""
"","ITI","","html-keyboard-response","496","851649","0.0-1.0-666.0","0","0","53033","","null","","","null","73","","","","","","","","","","","","","","","NaN",""
"","S1","","html-keyboard-response","497","851805","0.0-1.0-668.0","0","0","53033","","null","","","null","74","","","","","","","","","","","","","","","",""
"","ISI","","html-keyboard-response","498","853814","0.0-1.0-669.0","0","0","53033","","null","","","null","74","NaN","","","","","","","","","","","","","","",""
"","S2","","html-keyboard-response","499","853967","0.0-1.0-670.0","0","0","53033","","null","","","null","74","","NaN","","","","","","","","","","","","","",""
"","response","","html-keyboard-response","500","854569","0.0-1.0-671.0-0.0","0","0","53033","","600","","","68","74","","","2","74","training","adjacent","FG","6","7","L.jpg","R.jpg","0","1","0","",""
"","feedback","","html-keyboard-response","501","855579","0.0-1.0-672.0-0.0","0","0","53033","","null","","","null","74","","","","","","","","","","","","","","","",""
"","time_out","","html-keyboard-response","502","857588","0.0-1.0-674.0-0.0","0","0","53033","","null","","","null","74","","","","","","","","","","","","","","","",""
"","ITI","","html-keyboard-response","503","858601","0.0-1.0-675.0","0","0","53033","","null","","","null","74","","","","","","","","","","","","","","","NaN",""
"","S1","","html-keyboard-response","504","858756","0.0-1.0-677.0","0","0","53033","","null","","","null","75","","","","","","","","","","","","","","","",""
"","ISI","","html-keyboard-response","505","860770","0.0-1.0-678.0","0","0","53033","","null","","","null","75","NaN","","","","","","","","","","","","","","",""
"","S2","","html-keyboard-response","506","860928","0.0-1.0-679.0","0","0","53033","","null","","","null","75","","NaN","","","","","","","","","","","","","",""
"","response","","html-keyboard-response","507","861433","0.0-1.0-680.0-0.0","0","0","53033","","504","","","68","75","","","2","75","training","adjacent","AB","1","2","P.jpg","O.jpg","0","1","0","",""
"","feedback","","html-keyboard-response","508","862442","0.0-1.0-681.0-0.0","0","0","53033","","null","","","null","75","","","","","","","","","","","","","","","",""
"","time_out","","html-keyboard-response","509","864457","0.0-1.0-683.0-0.0","0","0","53033","","null","","","null","75","","","","","","","","","","","","","","","",""
"","ITI","","html-keyboard-response","510","865472","0.0-1.0-684.0","0","0","53033","","null","","","null","75","","","","","","","","","","","","","","","NaN",""
"","S1","","html-keyboard-response","511","865627","0.0-1.0-686.0","0","0","53033","","null","","","null","76","","","","","","","","","","","","","","","",""
"","ISI","","html-keyboard-response","512","867630","0.0-1.0-687.0","0","0","53033","","null","","","null","76","NaN","","","","","","","","","","","","","","",""
"","S2","","html-keyboard-response","513","867785","0.0-1.0-688.0","0","0","53033","","null","","","null","76","","NaN","","","","","","","","","","","","","",""
"","response","","html-keyboard-response","514","868225","0.0-1.0-689.0-0.0","0","0","53033","","439","","","75","76","","","2","76","training","adjacent","ED","5","4","N.jpg","M.jpg","1","0","0","",""
"","feedback","","html-keyboard-response","515","869238","0.0-1.0-690.0-0.0","0","0","53033","","null","","","null","76","","","","","","","","","","","","","","","",""
"","time_out","","html-keyboard-response","516","871253","0.0-1.0-692.0-0.0","0","0","53033","","null","","","null","76","","","","","","","","","","","","","","","",""
"","ITI","","html-keyboard-response","517","872258","0.0-1.0-693.0","0","0","53033","","null","","","null","76","","","","","","","","","","","","","","","NaN",""
"","S1","","html-keyboard-response","518","872414","0.0-1.0-695.0","0","0","53033","","null","","","null","77","","","","","","","","","","","","","","","",""
"","ISI","","html-keyboard-response","519","874430","0.0-1.0-696.0","0","0","53033","","null","","","null","77","NaN","","","","","","","","","","","","","","",""
"","S2","","html-keyboard-response","520","874586","0.0-1.0-697.0","0","0","53033","","null","","","null","77","","NaN","","","","","","","","","","","","","",""
"","response","","html-keyboard-response","521","874976","0.0-1.0-698.0-0.0","0","0","53033","","389","","","75","77","","","2","77","training","adjacent","BC","2","3","O.jpg","Q.jpg","1","1","1","",""
"","feedback","","html-keyboard-response","522","875991","0.0-1.0-699.0-0.0","0","0","53033","","null","","","null","77","","","","","","","","","","","","","","","",""
"","ITI","","html-keyboard-response","523","877008","0.0-1.0-702.0","0","0","53033","","null","","","null","77","","","","","","","","","","","","","","","NaN",""
"","S1","","html-keyboard-response","524","877163","0.0-1.0-704.0","0","0","53033","","null","","","null","78","","","","","","","","","","","","","","","",""
"","ISI","","html-keyboard-response","525","879177","0.0-1.0-705.0","0","0","53033","","null","","","null","78","NaN","","","","","","","","","","","","","","",""
"","S2","","html-keyboard-response","526","879334","0.0-1.0-706.0","0","0","53033","","null","","","null","78","","NaN","","","","","","","","","","","","","",""
"","response","","html-keyboard-response","527","880056","0.0-1.0-707.0-0.0","0","0","53033","","721","","","68","78","","","2","78","training","adjacent","CD","3","4","Q.jpg","M.jpg","0","1","0","",""
"","feedback","","html-keyboard-response","528","881066","0.0-1.0-708.0-0.0","0","0","53033","","null","","","null","78","","","","","","","","","","","","","","","",""
"","time_out","","html-keyboard-response","529","883071","0.0-1.0-710.0-0.0","0","0","53033","","null","","","null","78","","","","","","","","","","","","","","","",""
"","ITI","","html-keyboard-response","530","884082","0.0-1.0-711.0","0","0","53033","","null","","","null","78","","","","","","","","","","","","","","","NaN",""
"","S1","","html-keyboard-response","531","884239","0.0-1.0-713.0","0","0","53033","","null","","","null","79","","","","","","","","","","","","","","","",""
"","ISI","","html-keyboard-response","532","886255","0.0-1.0-714.0","0","0","53033","","null","","","null","79","NaN","","","","","","","","","","","","","","",""
"","S2","","html-keyboard-response","533","886412","0.0-1.0-715.0","0","0","53033","","null","","","null","79","","NaN","","","","","","","","","","","","","",""
"","response","","html-keyboard-response","534","887328","0.0-1.0-716.0-0.0","0","0","53033","","914","","","75","79","","","2","79","training","adjacent","BA","2","1","O.jpg","P.jpg","1","0","0","",""
"","feedback","","html-keyboard-response","535","888338","0.0-1.0-717.0-0.0","0","0","53033","","null","","","null","79","","","","","","","","","","","","","","","",""
"","time_out","","html-keyboard-response","536","890346","0.0-1.0-719.0-0.0","0","0","53033","","null","","","null","79","","","","","","","","","","","","","","","",""
"","ITI","","html-keyboard-response","537","891349","0.0-1.0-720.0","0","0","53033","","null","","","null","79","","","","","","","","","","","","","","","NaN",""
"","S1","","html-keyboard-response","538","891506","0.0-1.0-722.0","0","0","53033","","null","","","null","80","","","","","","","","","","","","","","","",""
"","ISI","","html-keyboard-response","539","893519","0.0-1.0-723.0","0","0","53033","","null","","","null","80","NaN","","","","","","","","","","","","","","",""
"","S2","","html-keyboard-response","540","893677","0.0-1.0-724.0","0","0","53033","","null","","","null","80","","NaN","","","","","","","","","","","","","",""
"","response","","html-keyboard-response","541","894095","0.0-1.0-725.0-0.0","0","0","53033","","417","","","75","80","","","2","80","training","adjacent","DE","4","5","M.jpg","N.jpg","1","1","1","",""
"","feedback","","html-keyboard-response","542","895100","0.0-1.0-726.0-0.0","0","0","53033","","null","","","null","80","","","","","","","","","","","","","","","",""
"","ITI","","html-keyboard-response","543","896115","0.0-1.0-729.0","0","0","53033","","null","","","null","80","","","","","","","","","","","","","","","NaN",""
"","S1","","html-keyboard-response","544","896273","0.0-1.0-731.0","0","0","53033","","null","","","null","81","","","","","","","","","","","","","","","",""
"","ISI","","html-keyboard-response","545","898284","0.0-1.0-732.0","0","0","53033","","766","","","75","81","k","","","","","","","","","","","","","","",""
"","S2","","html-keyboard-response","546","898441","0.0-1.0-733.0","0","0","53033","","null","","","null","81","","NaN","","","","","","","","","","","","","",""
"","response","","html-keyboard-response","547","900302","0.0-1.0-734.0-0.0","0","0","53033","","null","","","null","81","","","2","81","training","adjacent","ED","5","4","N.jpg","M.jpg","NaN","0","0","",""
"","too_slow_prompt","","html-keyboard-response","548","901318","0.0-1.0-736.0-0.0","1","0","53033","","null","","","null","","","","","","","","","","","","","","","","",""
"","time_out","","html-keyboard-response","549","903324","0.0-1.0-737.0-0.0","0","0","53033","","null","","","null","81","","","","","","","","","","","","","","","",""
"","ITI","","html-keyboard-response","550","904325","0.0-1.0-738.0","0","0","53033","","null","","","null","81","","","","","","","","","","","","","","","NaN",""
"","S1","","html-keyboard-response","551","904482","0.0-1.0-740.0","0","0","53033","","null","","","null","82","","","","","","","","","","","","","","","",""
"","ISI","","html-keyboard-response","552","906495","0.0-1.0-741.0","0","0","53033","","null","","","null","82","NaN","","","","","","","","","","","","","","",""
"","S2","","html-keyboard-response","553","906650","0.0-1.0-742.0","0","0","53033","","null","","","null","82","","NaN","","","","","","","","","","","","","",""
"","response","","html-keyboard-response","554","906855","0.0-1.0-743.0-0.0","0","0","53033","","204","","","68","82","","","2","82","training","adjacent","AB","1","2","P.jpg","O.jpg","0","1","0","",""
"","feedback","","html-keyboard-response","555","907871","0.0-1.0-744.0-0.0","0","0","53033","","null","","","null","82","","","","","","","","","","","","","","","",""
"","time_out","","html-keyboard-response","556","909881","0.0-1.0-746.0-0.0","0","0","53033","","null","","","null","82","","","","","","","","","","","","","","","",""
"","ITI","","html-keyboard-response","557","910896","0.0-1.0-747.0","0","0","53033","","null","","","null","82","","","","","","","","","","","","","","","NaN",""
"","S1","","html-keyboard-response","558","911055","0.0-1.0-749.0","0","0","53033","","null","","","null","83","","","","","","","","","","","","","","","",""
"","ISI","","html-keyboard-response","559","913067","0.0-1.0-750.0","0","0","53033","","null","","","null","83","NaN","","","","","","","","","","","","","","",""
"","S2","","html-keyboard-response","560","913222","0.0-1.0-751.0","0","0","53033","","null","","","null","83","","NaN","","","","","","","","","","","","","",""
"","response","","html-keyboard-response","561","913880","0.0-1.0-752.0-0.0","0","0","53033","","655","","","68","83","","","2","83","training","adjacent","CD","3","4","Q.jpg","M.jpg","0","1","0","",""
"","feedback","","html-keyboard-response","562","914884","0.0-1.0-753.0-0.0","0","0","53033","","null","","","null","83","","","","","","","","","","","","","","","",""
"","time_out","","html-keyboard-response","563","916899","0.0-1.0-755.0-0.0","0","0","53033","","null","","","null","83","","","","","","","","","","","","","","","",""
"","ITI","","html-keyboard-response","564","917913","0.0-1.0-756.0","0","0","53033","","null","","","null","83","","","","","","","","","","","","","","","NaN",""
"","S1","","html-keyboard-response","565","918072","0.0-1.0-758.0","0","0","53033","","null","","","null","84","","","","","","","","","","","","","","","",""
"","ISI","","html-keyboard-response","566","920084","0.0-1.0-759.0","0","0","53033","","null","","","null","84","NaN","","","","","","","","","","","","","","",""
"","S2","","html-keyboard-response","567","920242","0.0-1.0-760.0","0","0","53033","","null","","","null","84","","NaN","","","","","","","","","","","","","",""
"","response","","html-keyboard-response","568","920614","0.0-1.0-761.0-0.0","0","0","53033","","370","","","68","84","","","2","84","training","adjacent","BC","2","3","O.jpg","Q.jpg","0","1","0","",""
"","feedback","","html-keyboard-response","569","921617","0.0-1.0-762.0-0.0","0","0","53033","","null","","","null","84","","","","","","","","","","","","","","","",""
"","time_out","","html-keyboard-response","570","923629","0.0-1.0-764.0-0.0","0","0","53033","","null","","","null","84","","","","","","","","","","","","","","","",""
"","ITI","","html-keyboard-response","571","924637","0.0-1.0-765.0","0","0","53033","","null","","","null","84","","","","","","","","","","","","","","","NaN",""
"","S1","","html-keyboard-response","572","924796","0.0-1.0-767.0","0","0","53033","","null","","","null","85","","","","","","","","","","","","","","","",""
"","ISI","","html-keyboard-response","573","926801","0.0-1.0-768.0","0","0","53033","","null","","","null","85","NaN","","","","","","","","","","","","","","",""
"","S2","","html-keyboard-response","574","926958","0.0-1.0-769.0","0","0","53033","","null","","","null","85","","NaN","","","","","","","","","","","","","",""
"","response","","html-keyboard-response","575","927800","0.0-1.0-770.0-0.0","0","0","53033","","840","","","75","85","","","2","85","training","adjacent","BA","2","1","O.jpg","P.jpg","1","0","0","",""
"","feedback","","html-keyboard-response","576","928803","0.0-1.0-771.0-0.0","0","0","53033","","null","","","null","85","","","","","","","","","","","","","","","",""
"","time_out","","html-keyboard-response","577","930818","0.0-1.0-773.0-0.0","0","0","53033","","null","","","null","85","","","","","","","","","","","","","","","",""
"","ITI","","html-keyboard-response","578","931821","0.0-1.0-774.0","0","0","53033","","null","","","null","85","","","","","","","","","","","","","","","NaN",""
"","S1","","html-keyboard-response","579","931979","0.0-1.0-776.0","0","0","53033","","null","","","null","86","","","","","","","","","","","","","","","",""
"","ISI","","html-keyboard-response","580","933994","0.0-1.0-777.0","0","0","53033","","null","","","null","86","NaN","","","","","","","","","","","","","","",""
