"success","ttype","start_time","trial_type","trial_index","time_elapsed","internal_node_id","warning","missed_checkup","PID","view_history","rt","responses","repeat_instructions","key_press","index","keypress_isi","keypress_S2","block","trial_num","phase","group_type","pair_type","S1_stim","S2_stim","S1_img","S2_img","S1_chosen","S1_higher","accuracy","keypress_iti","total_bonus_tally"
"true","full_screen","d04132023hr1525","fullscreen","0","12954","0.0-0.0","0","0","88387","","","","","","","","","","","","","","","","","","","","","",""
"","instructions","","instructions","1","68051","0.0-1.0-0.0-0.0","0","0","88387","[{""page_index"":0,""viewing_time"":5660},{""page_index"":1,""viewing_time"":32757},{""page_index"":2,""viewing_time"":14229},{""page_index"":3,""viewing_time"":2449}]","55096","","","","","","","","","","","","","","","","","","","",""
"","comprehension_check","","survey-multi-choice","2","89541","0.0-1.0-0.0-1.0","0","0","88387","","21487","{""Q0"":""True"",""Q1"":""K"",""Q2"":""Only when the screen 'MAKE A CHOICE' is shown"",""Q3"":""Green mark"",""Q4"":""either D or K""}","1","","","","","","","","","","","","","","","","","",""
"","missed_instruction_checkup","","html-keyboard-response","3","91868","0.0-1.0-0.0-2.0-0.0","0","1","88387","","2326","","","32","","","","","","","","","","","","","","","","",""
"","instructions","","instructions","4","100469","0.0-1.0-0.1-0.1","0","0","88387","[{""page_index"":0,""viewing_time"":1596},{""page_index"":1,""viewing_time"":4767},{""page_index"":2,""viewing_time"":1078},{""page_index"":3,""viewing_time"":1158}]","8599","","","","","","","","","","","","","","","","","","","",""
"","comprehension_check","","survey-multi-choice","5","111149","0.0-1.0-0.1-1.1","0","0","88387","","10678","{""Q0"":""True"",""Q1"":""K"",""Q2"":""Once the second image appears and while the screen 'MAKE A CHOICE' is shown"",""Q3"":""Green mark"",""Q4"":""either D or K""}","0","","","","","","","","","","","","","","","","","",""
"","start_exp","","html-keyboard-response","6","112858","0.0-1.0-1.0","0","0","88387","","1707","","","32","","","","","","","","","","","","","","","","",""
"","S1","","html-keyboard-response","7","113111","0.0-1.0-2.0","0","0","88387","","null","","","null","0","","","","","","","","","","","","","","","",""
"","ISI","","html-keyboard-response","8","114113","0.0-1.0-3.0","0","0","88387","","null","","","null","0","NaN","","","","","","","","","","","","","","",""
"","S2","","html-keyboard-response","9","114364","0.0-1.0-4.0","0","0","88387","","null","","","null","0","","NaN","","","","","","","","","","","","","",""
"","response","","html-keyboard-response","10","116116","0.0-1.0-5.0-0.0","0","0","88387","","null","","","null","0","","","1","0","training","adjacent","ED","5","4","R.jpg","L.jpg","NaN","0","0","",""
"","too_slow_prompt","","html-keyboard-response","11","117118","0.0-1.0-7.0-0.0","1","0","88387","","null","","","null","","","","","","","","","","","","","","","","",""
"","time_out","","html-keyboard-response","12","119120","0.0-1.0-8.0-0.0","0","0","88387","","null","","","null","0","","","","","","","","","","","","","","","",""
"","ITI","","html-keyboard-response","13","120122","0.0-1.0-9.0","0","0","88387","","null","","","null","0","","","","","","","","","","","","","","","NaN",""
"","S1","","html-keyboard-response","14","120374","0.0-1.0-11.0","0","0","88387","","null","","","null","1","","","","","","","","","","","","","","","",""
"","ISI","","html-keyboard-response","15","121376","0.0-1.0-12.0","0","0","88387","","null","","","null","1","NaN","","","","","","","","","","","","","","",""
"","S2","","html-keyboard-response","16","121628","0.0-1.0-13.0","0","0","88387","","null","","","null","1","","NaN","","","","","","","","","","","","","",""
"","response","","html-keyboard-response","17","122531","0.0-1.0-14.0-0.0","0","0","88387","","902","","","75","1","","","1","1","training","adjacent","CD","3","4","Q.jpg","L.jpg","1","1","1","",""
"","feedback","","html-keyboard-response","18","123533","0.0-1.0-15.0-0.0","0","0","88387","","null","","","null","1","","","","","","","","","","","","","","","",""
"","ITI","","html-keyboard-response","19","124536","0.0-1.0-18.0","0","0","88387","","null","","","null","1","","","","","","","","","","","","","","","NaN",""
"","S1","","html-keyboard-response","20","124788","0.0-1.0-20.0","0","0","88387","","null","","","null","2","","","","","","","","","","","","","","","",""
"","ISI","","html-keyboard-response","21","125790","0.0-1.0-21.0","0","0","88387","","null","","","null","2","NaN","","","","","","","","","","","","","","",""
"","S2","","html-keyboard-response","22","126042","0.0-1.0-22.0","0","0","88387","","null","","","null","2","","NaN","","","","","","","","","","","","","",""
"","response","","html-keyboard-response","23","127090","0.0-1.0-23.0-0.0","0","0","88387","","1047","","","75","2","","","1","2","training","adjacent","CB","3","2","Q.jpg","O.jpg","1","0","0","",""
"","feedback","","html-keyboard-response","24","128091","0.0-1.0-24.0-0.0","0","0","88387","","null","","","null","2","","","","","","","","","","","","","","","",""
"","time_out","","html-keyboard-response","25","130093","0.0-1.0-26.0-0.0","0","0","88387","","null","","","null","2","","","","","","","","","","","","","","","",""
"","ITI","","html-keyboard-response","26","131094","0.0-1.0-27.0","0","0","88387","","null","","","null","2","","","","","","","","","","","","","","","NaN",""
"","S1","","html-keyboard-response","27","131346","0.0-1.0-29.0","0","0","88387","","null","","","null","3","","","","","","","","","","","","","","","",""
"","ISI","","html-keyboard-response","28","132348","0.0-1.0-30.0","0","0","88387","","null","","","null","3","NaN","","","","","","","","","","","","","","",""
"","S2","","html-keyboard-response","29","132600","0.0-1.0-31.0","0","0","88387","","null","","","null","3","","NaN","","","","","","","","","","","","","",""
"","response","","html-keyboard-response","30","133371","0.0-1.0-32.0-0.0","0","0","88387","","769","","","75","3","","","1","3","training","adjacent","ED","5","4","R.jpg","L.jpg","1","0","0","",""
"","feedback","","html-keyboard-response","31","134373","0.0-1.0-33.0-0.0","0","0","88387","","null","","","null","3","","","","","","","","","","","","","","","",""
"","time_out","","html-keyboard-response","32","136374","0.0-1.0-35.0-0.0","0","0","88387","","null","","","null","3","","","","","","","","","","","","","","","",""
"","ITI","","html-keyboard-response","33","137376","0.0-1.0-36.0","0","0","88387","","null","","","null","3","","","","","","","","","","","","","","","NaN",""
"","S1","","html-keyboard-response","34","137628","0.0-1.0-38.0","0","0","88387","","null","","","null","4","","","","","","","","","","","","","","","",""
"","ISI","","html-keyboard-response","35","138629","0.0-1.0-39.0","0","0","88387","","null","","","null","4","NaN","","","","","","","","","","","","","","",""
"","S2","","html-keyboard-response","36","138881","0.0-1.0-40.0","0","0","88387","","null","","","null","4","","NaN","","","","","","","","","","","","","",""
"","response","","html-keyboard-response","37","140632","0.0-1.0-41.0-0.0","0","0","88387","","null","","","null","4","","","1","4","training","adjacent","FE","6","5","N.jpg","R.jpg","NaN","0","0","",""
"","too_slow_prompt","","html-keyboard-response","38","141633","0.0-1.0-43.0-0.0","1","0","88387","","null","","","null","","","","","","","","","","","","","","","","",""
"","time_out","","html-keyboard-response","39","143635","0.0-1.0-44.0-0.0","0","0","88387","","null","","","null","4","","","","","","","","","","","","","","","",""
"","ITI","","html-keyboard-response","40","144637","0.0-1.0-45.0","0","0","88387","","null","","","null","4","","","","","","","","","","","","","","","NaN",""
"","S1","","html-keyboard-response","41","144889","0.0-1.0-47.0","0","0","88387","","null","","","null","5","","","","","","","","","","","","","","","",""
"","ISI","","html-keyboard-response","42","145891","0.0-1.0-48.0","0","0","88387","","null","","","null","5","NaN","","","","","","","","","","","","","","",""
"","S2","","html-keyboard-response","43","146143","0.0-1.0-49.0","0","0","88387","","null","","","null","5","","NaN","","","","","","","","","","","","","",""
"","response","","html-keyboard-response","44","146883","0.0-1.0-50.0-0.0","0","0","88387","","738","","","68","5","","","1","5","training","adjacent","GF","7","6","M.jpg","N.jpg","0","0","1","",""
"","feedback","","html-keyboard-response","45","147885","0.0-1.0-51.0-0.0","0","0","88387","","null","","","null","5","","","","","","","","","","","","","","","",""
"","ITI","","html-keyboard-response","46","148887","0.0-1.0-54.0","0","0","88387","","null","","","null","5","","","","","","","","","","","","","","","NaN",""
"","S1","","html-keyboard-response","47","149138","0.0-1.0-56.0","0","0","88387","","null","","","null","6","","","","","","","","","","","","","","","",""
"","ISI","","html-keyboard-response","48","150140","0.0-1.0-57.0","0","0","88387","","null","","","null","6","NaN","","","","","","","","","","","","","","",""
"","S2","","html-keyboard-response","49","150392","0.0-1.0-58.0","0","0","88387","","null","","","null","6","","NaN","","","","","","","","","","","","","",""
"","response","","html-keyboard-response","50","151448","0.0-1.0-59.0-0.0","0","0","88387","","1056","","","75","6","","","1","6","training","adjacent","AB","1","2","P.jpg","O.jpg","1","1","1","",""
"","feedback","","html-keyboard-response","51","152450","0.0-1.0-60.0-0.0","0","0","88387","","null","","","null","6","","","","","","","","","","","","","","","",""
"","ITI","","html-keyboard-response","52","153452","0.0-1.0-63.0","0","0","88387","","null","","","null","6","","","","","","","","","","","","","","","NaN",""
"","S1","","html-keyboard-response","53","153704","0.0-1.0-65.0","0","0","88387","","null","","","null","7","","","","","","","","","","","","","","","",""
"","ISI","","html-keyboard-response","54","154705","0.0-1.0-66.0","0","0","88387","","null","","","null","7","NaN","","","","","","","","","","","","","","",""
"","S2","","html-keyboard-response","55","154957","0.0-1.0-67.0","0","0","88387","","null","","","null","7","","NaN","","","","","","","","","","","","","",""
"","response","","html-keyboard-response","56","156217","0.0-1.0-68.0-0.0","0","0","88387","","1259","","","75","7","","","1","7","training","adjacent","EF","5","6","R.jpg","N.jpg","1","1","1","",""
"","feedback","","html-keyboard-response","57","157219","0.0-1.0-69.0-0.0","0","0","88387","","null","","","null","7","","","","","","","","","","","","","","","",""
"","ITI","","html-keyboard-response","58","158220","0.0-1.0-72.0","0","0","88387","","null","","","null","7","","","","","","","","","","","","","","","NaN",""
"","S1","","html-keyboard-response","59","158472","0.0-1.0-74.0","0","0","88387","","null","","","null","8","","","","","","","","","","","","","","","",""
"","ISI","","html-keyboard-response","60","159474","0.0-1.0-75.0","0","0","88387","","null","","","null","8","NaN","","","","","","","","","","","","","","",""
"","S2","","html-keyboard-response","61","159725","0.0-1.0-76.0","0","0","88387","","null","","","null","8","","NaN","","","","","","","","","","","","","",""
"","response","","html-keyboard-response","62","160436","0.0-1.0-77.0-0.0","0","0","88387","","709","","","68","8","","","1","8","training","adjacent","BC","2","3","O.jpg","Q.jpg","0","1","0","",""
"","feedback","","html-keyboard-response","63","161438","0.0-1.0-78.0-0.0","0","0","88387","","null","","","null","8","","","","","","","","","","","","","","","",""
"","time_out","","html-keyboard-response","64","163439","0.0-1.0-80.0-0.0","0","0","88387","","null","","","null","8","","","","","","","","","","","","","","","",""
"","ITI","","html-keyboard-response","65","164440","0.0-1.0-81.0","0","0","88387","","null","","","null","8","","","","","","","","","","","","","","","NaN",""
"","S1","","html-keyboard-response","66","164692","0.0-1.0-83.0","0","0","88387","","null","","","null","9","","","","","","","","","","","","","","","",""
"","ISI","","html-keyboard-response","67","165694","0.0-1.0-84.0","0","0","88387","","null","","","null","9","NaN","","","","","","","","","","","","","","",""
"","S2","","html-keyboard-response","68","165946","0.0-1.0-85.0","0","0","88387","","null","","","null","9","","NaN","","","","","","","","","","","","","",""
"","response","","html-keyboard-response","69","166694","0.0-1.0-86.0-0.0","0","0","88387","","747","","","68","9","","","1","9","training","adjacent","FG","6","7","N.jpg","M.jpg","0","1","0","",""
"","feedback","","html-keyboard-response","70","167695","0.0-1.0-87.0-0.0","0","0","88387","","null","","","null","9","","","","","","","","","","","","","","","",""
"","time_out","","html-keyboard-response","71","169697","0.0-1.0-89.0-0.0","0","0","88387","","null","","","null","9","","","","","","","","","","","","","","","",""
"","ITI","","html-keyboard-response","72","170699","0.0-1.0-90.0","0","0","88387","","null","","","null","9","","","","","","","","","","","","","","","NaN",""
"","S1","","html-keyboard-response","73","170951","0.0-1.0-92.0","0","0","88387","","null","","","null","10","","","","","","","","","","","","","","","",""
"","ISI","","html-keyboard-response","74","171953","0.0-1.0-93.0","0","0","88387","","null","","","null","10","NaN","","","","","","","","","","","","","","",""
"","S2","","html-keyboard-response","75","172206","0.0-1.0-94.0","0","0","88387","","null","","","null","10","","NaN","","","","","","","","","","","","","",""
"","response","","html-keyboard-response","76","173674","0.0-1.0-95.0-0.0","0","0","88387","","1468","","","68","10","","","1","10","training","adjacent","CD","3","4","Q.jpg","L.jpg","0","1","0","",""
"","feedback","","html-keyboard-response","77","174677","0.0-1.0-96.0-0.0","0","0","88387","","null","","","null","10","","","","","","","","","","","","","","","",""
"","time_out","","html-keyboard-response","78","176678","0.0-1.0-98.0-0.0","0","0","88387","","null","","","null","10","","","","","","","","","","","","","","","",""
"","ITI","","html-keyboard-response","79","177680","0.0-1.0-99.0","0","0","88387","","null","","","null","10","","","","","","","","","","","","","","","NaN",""
"","S1","","html-keyboard-response","80","177933","0.0-1.0-101.0","0","0","88387","","null","","","null","11","","","","","","","","","","","","","","","",""
"","ISI","","html-keyboard-response","81","178935","0.0-1.0-102.0","0","0","88387","","null","","","null","11","NaN","","","","","","","","","","","","","","",""
"","S2","","html-keyboard-response","82","179187","0.0-1.0-103.0","0","0","88387","","null","","","null","11","","NaN","","","","","","","","","","","","","",""
"","response","","html-keyboard-response","83","179903","0.0-1.0-104.0-0.0","0","0","88387","","716","","","68","11","","","1","11","training","adjacent","CD","3","4","Q.jpg","L.jpg","0","1","0","",""
"","feedback","","html-keyboard-response","84","180905","0.0-1.0-105.0-0.0","0","0","88387","","null","","","null","11","","","","","","","","","","","","","","","",""
"","time_out","","html-keyboard-response","85","182907","0.0-1.0-107.0-0.0","0","0","88387","","null","","","null","11","","","","","","","","","","","","","","","",""
"","ITI","","html-keyboard-response","86","183909","0.0-1.0-108.0","0","0","88387","","null","","","null","11","","","","","","","","","","","","","","","NaN",""
"","S1","","html-keyboard-response","87","184161","0.0-1.0-110.0","0","0","88387","","null","","","null","12","","","","","","","","","","","","","","","",""
"","ISI","","html-keyboard-response","88","185162","0.0-1.0-111.0","0","0","88387","","null","","","null","12","NaN","","","","","","","","","","","","","","",""
"","S2","","html-keyboard-response","89","185416","0.0-1.0-112.0","0","0","88387","","null","","","null","12","","NaN","","","","","","","","","","","","","",""
"","response","","html-keyboard-response","90","186102","0.0-1.0-113.0-0.0","0","0","88387","","685","","","75","12","","","1","12","training","adjacent","EF","5","6","R.jpg","N.jpg","1","1","1","",""
"","feedback","","html-keyboard-response","91","187104","0.0-1.0-114.0-0.0","0","0","88387","","null","","","null","12","","","","","","","","","","","","","","","",""
"","ITI","","html-keyboard-response","92","188106","0.0-1.0-117.0","0","0","88387","","null","","","null","12","","","","","","","","","","","","","","","NaN",""
"","S1","","html-keyboard-response","93","188358","0.0-1.0-119.0","0","0","88387","","null","","","null","13","","","","","","","","","","","","","","","",""
"","ISI","","html-keyboard-response","94","189360","0.0-1.0-120.0","0","0","88387","","null","","","null","13","NaN","","","","","","","","","","","","","","",""
"","S2","","html-keyboard-response","95","189613","0.0-1.0-121.0","0","0","88387","","null","","","null","13","","NaN","","","","","","","","","","","","","",""
"","response","","html-keyboard-response","96","190239","0.0-1.0-122.0-0.0","0","0","88387","","626","","","75","13","","","1","13","training","adjacent","DE","4","5","L.jpg","R.jpg","1","1","1","",""
"","feedback","","html-keyboard-response","97","191240","0.0-1.0-123.0-0.0","0","0","88387","","null","","","null","13","","","","","","","","","","","","","","","",""
"","ITI","","html-keyboard-response","98","192242","0.0-1.0-126.0","0","0","88387","","null","","","null","13","","","","","","","","","","","","","","","NaN",""
"","S1","","html-keyboard-response","99","192494","0.0-1.0-128.0","0","0","88387","","null","","","null","14","","","","","","","","","","","","","","","",""
"","ISI","","html-keyboard-response","100","193496","0.0-1.0-129.0","0","0","88387","","null","","","null","14","NaN","","","","","","","","","","","","","","",""
"","S2","","html-keyboard-response","101","193748","0.0-1.0-130.0","0","0","88387","","null","","","null","14","","NaN","","","","","","","","","","","","","",""
"","response","","html-keyboard-response","102","194268","0.0-1.0-131.0-0.0","0","0","88387","","520","","","75","14","","","1","14","training","adjacent","DE","4","5","L.jpg","R.jpg","1","1","1","",""
"","feedback","","html-keyboard-response","103","195270","0.0-1.0-132.0-0.0","0","0","88387","","null","","","null","14","","","","","","","","","","","","","","","",""
"","ITI","","html-keyboard-response","104","196272","0.0-1.0-135.0","0","0","88387","","null","","","null","14","","","","","","","","","","","","","","","NaN",""
"","S1","","html-keyboard-response","105","196524","0.0-1.0-137.0","0","0","88387","","null","","","null","15","","","","","","","","","","","","","","","",""
"","ISI","","html-keyboard-response","106","197526","0.0-1.0-138.0","0","0","88387","","null","","","null","15","NaN","","","","","","","","","","","","","","",""
"","S2","","html-keyboard-response","107","197778","0.0-1.0-139.0","0","0","88387","","null","","","null","15","","NaN","","","","","","","","","","","","","",""
"","response","","html-keyboard-response","108","198509","0.0-1.0-140.0-0.0","0","0","88387","","729","","","68","15","","","1","15","training","adjacent","GF","7","6","M.jpg","N.jpg","0","0","1","",""
"","feedback","","html-keyboard-response","109","199511","0.0-1.0-141.0-0.0","0","0","88387","","null","","","null","15","","","","","","","","","","","","","","","",""
"","ITI","","html-keyboard-response","110","200512","0.0-1.0-144.0","0","0","88387","","null","","","null","15","","","","","","","","","","","","","","","NaN",""
"","S1","","html-keyboard-response","111","200764","0.0-1.0-146.0","0","0","88387","","null","","","null","16","","","","","","","","","","","","","","","",""
"","ISI","","html-keyboard-response","112","201766","0.0-1.0-147.0","0","0","88387","","null","","","null","16","NaN","","","","","","","","","","","","","","",""
"","S2","","html-keyboard-response","113","202018","0.0-1.0-148.0","0","0","88387","","null","","","null","16","","NaN","","","","","","","","","","","","","",""
"","response","","html-keyboard-response","114","202544","0.0-1.0-149.0-0.0","0","0","88387","","525","","","75","16","","","1","16","training","adjacent","EF","5","6","R.jpg","N.jpg","1","1","1","",""
"","feedback","","html-keyboard-response","115","203546","0.0-1.0-150.0-0.0","0","0","88387","","null","","","null","16","","","","","","","","","","","","","","","",""
"","ITI","","html-keyboard-response","116","204548","0.0-1.0-153.0","0","0","88387","","null","","","null","16","","","","","","","","","","","","","","","NaN",""
"","S1","","html-keyboard-response","117","204801","0.0-1.0-155.0","0","0","88387","","null","","","null","17","","","","","","","","","","","","","","","",""
"","ISI","","html-keyboard-response","118","205802","0.0-1.0-156.0","0","0","88387","","null","","","null","17","NaN","","","","","","","","","","","","","","",""
"","S2","","html-keyboard-response","119","206055","0.0-1.0-157.0","0","0","88387","","null","","","null","17","","NaN","","","","","","","","","","","","","",""
"","response","","html-keyboard-response","120","207176","0.0-1.0-158.0-0.0","0","0","88387","","1120","","","68","17","","","1","17","training","adjacent","FG","6","7","N.jpg","M.jpg","0","1","0","",""
"","feedback","","html-keyboard-response","121","208178","0.0-1.0-159.0-0.0","0","0","88387","","null","","","null","17","","","","","","","","","","","","","","","",""
"","time_out","","html-keyboard-response","122","210179","0.0-1.0-161.0-0.0","0","0","88387","","null","","","null","17","","","","","","","","","","","","","","","",""
"","ITI","","html-keyboard-response","123","211181","0.0-1.0-162.0","0","0","88387","","null","","","null","17","","","","","","","","","","","","","","","NaN",""
"","S1","","html-keyboard-response","124","211433","0.0-1.0-164.0","0","0","88387","","null","","","null","18","","","","","","","","","","","","","","","",""
"","ISI","","html-keyboard-response","125","212435","0.0-1.0-165.0","0","0","88387","","null","","","null","18","NaN","","","","","","","","","","","","","","",""
"","S2","","html-keyboard-response","126","212687","0.0-1.0-166.0","0","0","88387","","null","","","null","18","","NaN","","","","","","","","","","","","","",""
"","response","","html-keyboard-response","127","213177","0.0-1.0-167.0-0.0","0","0","88387","","489","","","68","18","","","1","18","training","adjacent","CD","3","4","Q.jpg","L.jpg","0","1","0","",""
"","feedback","","html-keyboard-response","128","214179","0.0-1.0-168.0-0.0","0","0","88387","","null","","","null","18","","","","","","","","","","","","","","","",""
"","time_out","","html-keyboard-response","129","216181","0.0-1.0-170.0-0.0","0","0","88387","","null","","","null","18","","","","","","","","","","","","","","","",""
"","ITI","","html-keyboard-response","130","217182","0.0-1.0-171.0","0","0","88387","","null","","","null","18","","","","","","","","","","","","","","","NaN",""
"","S1","","html-keyboard-response","131","217435","0.0-1.0-173.0","0","0","88387","","null","","","null","19","","","","","","","","","","","","","","","",""
"","ISI","","html-keyboard-response","132","218437","0.0-1.0-174.0","0","0","88387","","null","","","null","19","NaN","","","","","","","","","","","","","","",""
"","S2","","html-keyboard-response","133","218689","0.0-1.0-175.0","0","0","88387","","null","","","null","19","","NaN","","","","","","","","","","","","","",""
"","response","","html-keyboard-response","134","219158","0.0-1.0-176.0-0.0","0","0","88387","","468","","","75","19","","","1","19","training","adjacent","BC","2","3","O.jpg","Q.jpg","1","1","1","",""
"","feedback","","html-keyboard-response","135","220159","0.0-1.0-177.0-0.0","0","0","88387","","null","","","null","19","","","","","","","","","","","","","","","",""
"","ITI","","html-keyboard-response","136","221161","0.0-1.0-180.0","0","0","88387","","null","","","null","19","","","","","","","","","","","","","","","NaN",""
"","S1","","html-keyboard-response","137","221414","0.0-1.0-182.0","0","0","88387","","null","","","null","20","","","","","","","","","","","","","","","",""
"","ISI","","html-keyboard-response","138","222416","0.0-1.0-183.0","0","0","88387","","null","","","null","20","NaN","","","","","","","","","","","","","","",""
"","S2","","html-keyboard-response","139","222668","0.0-1.0-184.0","0","0","88387","","null","","","null","20","","NaN","","","","","","","","","","","","","",""
"","response","","html-keyboard-response","140","223578","0.0-1.0-185.0-0.0","0","0","88387","","908","","","68","20","","","1","20","training","adjacent","ED","5","4","R.jpg","L.jpg","0","0","1","",""
"","feedback","","html-keyboard-response","141","224581","0.0-1.0-186.0-0.0","0","0","88387","","null","","","null","20","","","","","","","","","","","","","","","",""
"","ITI","","html-keyboard-response","142","225582","0.0-1.0-189.0","0","0","88387","","null","","","null","20","","","","","","","","","","","","","","","NaN",""
"","S1","","html-keyboard-response","143","225834","0.0-1.0-191.0","0","0","88387","","null","","","null","21","","","","","","","","","","","","","","","",""
"","ISI","","html-keyboard-response","144","226836","0.0-1.0-192.0","0","0","88387","","null","","","null","21","NaN","","","","","","","","","","","","","","",""
"","S2","","html-keyboard-response","145","227089","0.0-1.0-193.0","0","0","88387","","null","","","null","21","","NaN","","","","","","","","","","","","","",""
"","response","","html-keyboard-response","146","227483","0.0-1.0-194.0-0.0","0","0","88387","","393","","","68","21","","","1","21","training","adjacent","GF","7","6","M.jpg","N.jpg","0","0","1","",""
"","feedback","","html-keyboard-response","147","228485","0.0-1.0-195.0-0.0","0","0","88387","","null","","","null","21","","","","","","","","","","","","","","","",""
"","ITI","","html-keyboard-response","148","229487","0.0-1.0-198.0","0","0","88387","","null","","","null","21","","","","","","","","","","","","","","","NaN",""
"","S1","","html-keyboard-response","149","229739","0.0-1.0-200.0","0","0","88387","","null","","","null","22","","","","","","","","","","","","","","","",""
"","ISI","","html-keyboard-response","150","230740","0.0-1.0-201.0","0","0","88387","","null","","","null","22","NaN","","","","","","","","","","","","","","",""
"","S2","","html-keyboard-response","151","230992","0.0-1.0-202.0","0","0","88387","","null","","","null","22","","NaN","","","","","","","","","","","","","",""
"","response","","html-keyboard-response","152","231369","0.0-1.0-203.0-0.0","0","0","88387","","376","","","75","22","","","1","22","training","adjacent","FE","6","5","N.jpg","R.jpg","1","0","0","",""
"","feedback","","html-keyboard-response","153","232372","0.0-1.0-204.0-0.0","0","0","88387","","null","","","null","22","","","","","","","","","","","","","","","",""
"","time_out","","html-keyboard-response","154","234374","0.0-1.0-206.0-0.0","0","0","88387","","null","","","null","22","","","","","","","","","","","","","","","",""
"","ITI","","html-keyboard-response","155","235375","0.0-1.0-207.0","0","0","88387","","null","","","null","22","","","","","","","","","","","","","","","NaN",""
"","S1","","html-keyboard-response","156","235627","0.0-1.0-209.0","0","0","88387","","null","","","null","23","","","","","","","","","","","","","","","",""
"","ISI","","html-keyboard-response","157","236629","0.0-1.0-210.0","0","0","88387","","null","","","null","23","NaN","","","","","","","","","","","","","","",""
"","S2","","html-keyboard-response","158","236882","0.0-1.0-211.0","0","0","88387","","null","","","null","23","","NaN","","","","","","","","","","","","","",""
"","response","","html-keyboard-response","159","237171","0.0-1.0-212.0-0.0","0","0","88387","","288","","","75","23","","","1","23","training","adjacent","AB","1","2","P.jpg","O.jpg","1","1","1","",""
"","feedback","","html-keyboard-response","160","238173","0.0-1.0-213.0-0.0","0","0","88387","","null","","","null","23","","","","","","","","","","","","","","","",""
"","ITI","","html-keyboard-response","161","239175","0.0-1.0-216.0","0","0","88387","","null","","","null","23","","","","","","","","","","","","","","","NaN",""
"","S1","","html-keyboard-response","162","239427","0.0-1.0-218.0","0","0","88387","","null","","","null","24","","","","","","","","","","","","","","","",""
"","ISI","","html-keyboard-response","163","240428","0.0-1.0-219.0","0","0","88387","","null","","","null","24","NaN","","","","","","","","","","","","","","",""
"","S2","","html-keyboard-response","164","240681","0.0-1.0-220.0","0","0","88387","","null","","","null","24","","NaN","","","","","","","","","","","","","",""
"","response","","html-keyboard-response","165","241342","0.0-1.0-221.0-0.0","0","0","88387","","660","","","75","24","","","1","24","training","adjacent","BC","2","3","O.jpg","Q.jpg","1","1","1","",""
"","feedback","","html-keyboard-response","166","242344","0.0-1.0-222.0-0.0","0","0","88387","","null","","","null","24","","","","","","","","","","","","","","","",""
"","ITI","","html-keyboard-response","167","243346","0.0-1.0-225.0","0","0","88387","","null","","","null","24","","","","","","","","","","","","","","","NaN",""
"","S1","","html-keyboard-response","168","243598","0.0-1.0-227.0","0","0","88387","","null","","","null","25","","","","","","","","","","","","","","","",""
"","ISI","","html-keyboard-response","169","244599","0.0-1.0-228.0","0","0","88387","","null","","","null","25","NaN","","","","","","","","","","","","","","",""
"","S2","","html-keyboard-response","170","244852","0.0-1.0-229.0","0","0","88387","","null","","","null","25","","NaN","","","","","","","","","","","","","",""
"","response","","html-keyboard-response","171","245060","0.0-1.0-230.0-0.0","0","0","88387","","207","","","75","25","","","1","25","training","adjacent","BA","2","1","O.jpg","P.jpg","1","0","0","",""
"","feedback","","html-keyboard-response","172","246061","0.0-1.0-231.0-0.0","0","0","88387","","null","","","null","25","","","","","","","","","","","","","","","",""
"","time_out","","html-keyboard-response","173","248063","0.0-1.0-233.0-0.0","0","0","88387","","null","","","null","25","","","","","","","","","","","","","","","",""
"","ITI","","html-keyboard-response","174","249065","0.0-1.0-234.0","0","0","88387","","null","","","null","25","","","","","","","","","","","","","","","NaN",""
"","S1","","html-keyboard-response","175","249316","0.0-1.0-236.0","0","0","88387","","null","","","null","26","","","","","","","","","","","","","","","",""
"","ISI","","html-keyboard-response","176","250318","0.0-1.0-237.0","0","0","88387","","null","","","null","26","NaN","","","","","","","","","","","","","","",""
"","S2","","html-keyboard-response","177","250570","0.0-1.0-238.0","0","0","88387","","null","","","null","26","","NaN","","","","","","","","","","","","","",""
"","response","","html-keyboard-response","178","250946","0.0-1.0-239.0-0.0","0","0","88387","","376","","","75","26","","","1","26","training","adjacent","FG","6","7","N.jpg","M.jpg","1","1","1","",""
"","feedback","","html-keyboard-response","179","251948","0.0-1.0-240.0-0.0","0","0","88387","","null","","","null","26","","","","","","","","","","","","","","","",""
"","ITI","","html-keyboard-response","180","252949","0.0-1.0-243.0","0","0","88387","","null","","","null","26","","","","","","","","","","","","","","","NaN",""
"","S1","","html-keyboard-response","181","253201","0.0-1.0-245.0","0","0","88387","","null","","","null","27","","","","","","","","","","","","","","","",""
"","ISI","","html-keyboard-response","182","254203","0.0-1.0-246.0","0","0","88387","","null","","","null","27","NaN","","","","","","","","","","","","","","",""
"","S2","","html-keyboard-response","183","254456","0.0-1.0-247.0","0","0","88387","","null","","","null","27","","NaN","","","","","","","","","","","","","",""
"","response","","html-keyboard-response","184","254780","0.0-1.0-248.0-0.0","0","0","88387","","323","","","68","27","","","1","27","training","adjacent","CB","3","2","Q.jpg","O.jpg","0","0","1","",""
"","feedback","","html-keyboard-response","185","255781","0.0-1.0-249.0-0.0","0","0","88387","","null","","","null","27","","","","","","","","","","","","","","","",""
"","ITI","","html-keyboard-response","186","256783","0.0-1.0-252.0","0","0","88387","","null","","","null","27","","","","","","","","","","","","","","","NaN",""
"","S1","","html-keyboard-response","187","257036","0.0-1.0-254.0","0","0","88387","","null","","","null","28","","","","","","","","","","","","","","","",""
"","ISI","","html-keyboard-response","188","258038","0.0-1.0-255.0","0","0","88387","","null","","","null","28","NaN","","","","","","","","","","","","","","",""
"","S2","","html-keyboard-response","189","258290","0.0-1.0-256.0","0","0","88387","","null","","","null","28","","NaN","","","","","","","","","","","","","",""
"","response","","html-keyboard-response","190","259078","0.0-1.0-257.0-0.0","0","0","88387","","787","","","68","28","","","1","28","training","adjacent","FG","6","7","N.jpg","M.jpg","0","1","0","",""
"","feedback","","html-keyboard-response","191","260080","0.0-1.0-258.0-0.0","0","0","88387","","null","","","null","28","","","","","","","","","","","","","","","",""
"","time_out","","html-keyboard-response","192","262081","0.0-1.0-260.0-0.0","0","0","88387","","null","","","null","28","","","","","","","","","","","","","","","",""
"","ITI","","html-keyboard-response","193","263083","0.0-1.0-261.0","0","0","88387","","null","","","null","28","","","","","","","","","","","","","","","NaN",""
"","S1","","html-keyboard-response","194","263335","0.0-1.0-263.0","0","0","88387","","null","","","null","29","","","","","","","","","","","","","","","",""
"","ISI","","html-keyboard-response","195","264338","0.0-1.0-264.0","0","0","88387","","null","","","null","29","NaN","","","","","","","","","","","","","","",""
"","S2","","html-keyboard-response","196","264590","0.0-1.0-265.0","0","0","88387","","null","","","null","29","","NaN","","","","","","","","","","","","","",""
"","response","","html-keyboard-response","197","264635","0.0-1.0-266.0-0.0","0","0","88387","","44","","","75","29","","","1","29","training","adjacent","DE","4","5","L.jpg","R.jpg","1","1","1","",""
"","feedback","","html-keyboard-response","198","265637","0.0-1.0-267.0-0.0","0","0","88387","","null","","","null","29","","","","","","","","","","","","","","","",""
"","ITI","","html-keyboard-response","199","266638","0.0-1.0-270.0","0","0","88387","","null","","","null","29","","","","","","","","","","","","","","","NaN",""
"","S1","","html-keyboard-response","200","266890","0.0-1.0-272.0","0","0","88387","","null","","","null","30","","","","","","","","","","","","","","","",""
"","ISI","","html-keyboard-response","201","267904","0.0-1.0-273.0","0","0","88387","","null","","","null","30","NaN","","","","","","","","","","","","","","",""
"","S2","","html-keyboard-response","202","268156","0.0-1.0-274.0","0","0","88387","","null","","","null","30","","NaN","","","","","","","","","","","","","",""
"","response","","html-keyboard-response","203","268278","0.0-1.0-275.0-0.0","0","0","88387","","120","","","75","30","","","1","30","training","adjacent","GF","7","6","M.jpg","N.jpg","1","0","0","",""
"","feedback","","html-keyboard-response","204","269280","0.0-1.0-276.0-0.0","0","0","88387","","null","","","null","30","","","","","","","","","","","","","","","",""
"","time_out","","html-keyboard-response","205","271283","0.0-1.0-278.0-0.0","0","0","88387","","null","","","null","30","","","","","","","","","","","","","","","",""
"","ITI","","html-keyboard-response","206","272284","0.0-1.0-279.0","0","0","88387","","null","","","null","30","","","","","","","","","","","","","","","NaN",""
"","S1","","html-keyboard-response","207","272536","0.0-1.0-281.0","0","0","88387","","null","","","null","31","","","","","","","","","","","","","","","",""
"","ISI","","html-keyboard-response","208","273538","0.0-1.0-282.0","0","0","88387","","null","","","null","31","NaN","","","","","","","","","","","","","","",""
"","S2","","html-keyboard-response","209","273789","0.0-1.0-283.0","0","0","88387","","null","","","null","31","","NaN","","","","","","","","","","","","","",""
"","response","","html-keyboard-response","210","274246","0.0-1.0-284.0-0.0","0","0","88387","","456","","","68","31","","","1","31","training","adjacent","CB","3","2","Q.jpg","O.jpg","0","0","1","",""
"","feedback","","html-keyboard-response","211","275248","0.0-1.0-285.0-0.0","0","0","88387","","null","","","null","31","","","","","","","","","","","","","","","",""
"","ITI","","html-keyboard-response","212","276250","0.0-1.0-288.0","0","0","88387","","null","","","null","31","","","","","","","","","","","","","","","NaN",""
"","S1","","html-keyboard-response","213","276501","0.0-1.0-290.0","0","0","88387","","null","","","null","32","","","","","","","","","","","","","","","",""
"","ISI","","html-keyboard-response","214","277503","0.0-1.0-291.0","0","0","88387","","null","","","null","32","NaN","","","","","","","","","","","","","","",""
"","S2","","html-keyboard-response","215","277755","0.0-1.0-292.0","0","0","88387","","null","","","null","32","","NaN","","","","","","","","","","","","","",""
"","response","","html-keyboard-response","216","277962","0.0-1.0-293.0-0.0","0","0","88387","","206","","","68","32","","","1","32","training","adjacent","CB","3","2","Q.jpg","O.jpg","0","0","1","",""
"","feedback","","html-keyboard-response","217","278965","0.0-1.0-294.0-0.0","0","0","88387","","null","","","null","32","","","","","","","","","","","","","","","",""
"","ITI","","html-keyboard-response","218","279966","0.0-1.0-297.0","0","0","88387","","null","","","null","32","","","","","","","","","","","","","","","NaN",""
"","S1","","html-keyboard-response","219","280219","0.0-1.0-299.0","0","0","88387","","null","","","null","33","","","","","","","","","","","","","","","",""
"","ISI","","html-keyboard-response","220","281221","0.0-1.0-300.0","0","0","88387","","null","","","null","33","NaN","","","","","","","","","","","","","","",""
"","S2","","html-keyboard-response","221","281473","0.0-1.0-301.0","0","0","88387","","null","","","null","33","","NaN","","","","","","","","","","","","","",""
"","response","","html-keyboard-response","222","281575","0.0-1.0-302.0-0.0","0","0","88387","","100","","","75","33","","","1","33","training","adjacent","BC","2","3","O.jpg","Q.jpg","1","1","1","",""
"","feedback","","html-keyboard-response","223","282577","0.0-1.0-303.0-0.0","0","0","88387","","null","","","null","33","","","","","","","","","","","","","","","",""
"","ITI","","html-keyboard-response","224","283579","0.0-1.0-306.0","0","0","88387","","null","","","null","33","","","","","","","","","","","","","","","NaN",""
"","S1","","html-keyboard-response","225","283830","0.0-1.0-308.0","0","0","88387","","null","","","null","34","","","","","","","","","","","","","","","",""
"","ISI","","html-keyboard-response","226","284832","0.0-1.0-309.0","0","0","88387","","null","","","null","34","NaN","","","","","","","","","","","","","","",""
"","S2","","html-keyboard-response","227","285084","0.0-1.0-310.0","0","0","88387","","null","","","null","34","","NaN","","","","","","","","","","","","","",""
"","response","","html-keyboard-response","228","285639","0.0-1.0-311.0-0.0","0","0","88387","","554","","","68","34","","","1","34","training","adjacent","BA","2","1","O.jpg","P.jpg","0","0","1","",""
"","feedback","","html-keyboard-response","229","286641","0.0-1.0-312.0-0.0","0","0","88387","","null","","","null","34","","","","","","","","","","","","","","","",""
"","ITI","","html-keyboard-response","230","287643","0.0-1.0-315.0","0","0","88387","","null","","","null","34","","","","","","","","","","","","","","","NaN",""
"","S1","","html-keyboard-response","231","287896","0.0-1.0-317.0","0","0","88387","","null","","","null","35","","","","","","","","","","","","","","","",""
"","ISI","","html-keyboard-response","232","288898","0.0-1.0-318.0","0","0","88387","","null","","","null","35","NaN","","","","","","","","","","","","","","",""
"","S2","","html-keyboard-response","233","289149","0.0-1.0-319.0","0","0","88387","","null","","","null","35","","NaN","","","","","","","","","","","","","",""
"","response","","html-keyboard-response","234","289472","0.0-1.0-320.0-0.0","0","0","88387","","322","","","68","35","","","1","35","training","adjacent","AB","1","2","P.jpg","O.jpg","0","1","0","",""
"","feedback","","html-keyboard-response","235","290474","0.0-1.0-321.0-0.0","0","0","88387","","null","","","null","35","","","","","","","","","","","","","","","",""
"","time_out","","html-keyboard-response","236","292476","0.0-1.0-323.0-0.0","0","0","88387","","null","","","null","35","","","","","","","","","","","","","","","",""
"","ITI","","html-keyboard-response","237","293478","0.0-1.0-324.0","0","0","88387","","null","","","null","35","","","","","","","","","","","","","","","NaN",""
"","S1","","html-keyboard-response","238","293729","0.0-1.0-326.0","0","0","88387","","null","","","null","36","","","","","","","","","","","","","","","",""
"","ISI","","html-keyboard-response","239","294731","0.0-1.0-327.0","0","0","88387","","null","","","null","36","NaN","","","","","","","","","","","","","","",""
"","S2","","html-keyboard-response","240","294983","0.0-1.0-328.0","0","0","88387","","null","","","null","36","","NaN","","","","","","","","","","","","","",""
"","response","","html-keyboard-response","241","295278","0.0-1.0-329.0-0.0","0","0","88387","","294","","","75","36","","","1","36","training","adjacent","DC","4","3","L.jpg","Q.jpg","1","0","0","",""
"","feedback","","html-keyboard-response","242","296280","0.0-1.0-330.0-0.0","0","0","88387","","null","","","null","36","","","","","","","","","","","","","","","",""
"","time_out","","html-keyboard-response","243","298282","0.0-1.0-332.0-0.0","0","0","88387","","null","","","null","36","","","","","","","","","","","","","","","",""
"","ITI","","html-keyboard-response","244","299283","0.0-1.0-333.0","0","0","88387","","null","","","null","36","","","","","","","","","","","","","","","NaN",""
"","S1","","html-keyboard-response","245","299534","0.0-1.0-335.0","0","0","88387","","null","","","null","37","","","","","","","","","","","","","","","",""
"","ISI","","html-keyboard-response","246","300537","0.0-1.0-336.0","0","0","88387","","null","","","null","37","NaN","","","","","","","","","","","","","","",""
"","S2","","html-keyboard-response","247","300788","0.0-1.0-337.0","0","0","88387","","null","","","null","37","","NaN","","","","","","","","","","","","","",""
"","response","","html-keyboard-response","248","301401","0.0-1.0-338.0-0.0","0","0","88387","","612","","","75","37","","","1","37","training","adjacent","FE","6","5","N.jpg","R.jpg","1","0","0","",""
"","feedback","","html-keyboard-response","249","302403","0.0-1.0-339.0-0.0","0","0","88387","","null","","","null","37","","","","","","","","","","","","","","","",""
"","time_out","","html-keyboard-response","250","304405","0.0-1.0-341.0-0.0","0","0","88387","","null","","","null","37","","","","","","","","","","","","","","","",""
"","ITI","","html-keyboard-response","251","305407","0.0-1.0-342.0","0","0","88387","","null","","","null","37","","","","","","","","","","","","","","","NaN",""
"","S1","","html-keyboard-response","252","305659","0.0-1.0-344.0","0","0","88387","","null","","","null","38","","","","","","","","","","","","","","","",""
"","ISI","","html-keyboard-response","253","306660","0.0-1.0-345.0","0","0","88387","","null","","","null","38","NaN","","","","","","","","","","","","","","",""
"","S2","","html-keyboard-response","254","306912","0.0-1.0-346.0","0","0","88387","","null","","","null","38","","NaN","","","","","","","","","","","","","",""
"","response","","html-keyboard-response","255","307183","0.0-1.0-347.0-0.0","0","0","88387","","270","","","68","38","","","1","38","training","adjacent","EF","5","6","R.jpg","N.jpg","0","1","0","",""
"","feedback","","html-keyboard-response","256","308185","0.0-1.0-348.0-0.0","0","0","88387","","null","","","null","38","","","","","","","","","","","","","","","",""
"","time_out","","html-keyboard-response","257","310187","0.0-1.0-350.0-0.0","0","0","88387","","null","","","null","38","","","","","","","","","","","","","","","",""
"","ITI","","html-keyboard-response","258","311189","0.0-1.0-351.0","0","0","88387","","null","","","null","38","","","","","","","","","","","","","","","NaN",""
"","S1","","html-keyboard-response","259","311441","0.0-1.0-353.0","0","0","88387","","null","","","null","39","","","","","","","","","","","","","","","",""
"","ISI","","html-keyboard-response","260","312443","0.0-1.0-354.0","0","0","88387","","null","","","null","39","NaN","","","","","","","","","","","","","","",""
"","S2","","html-keyboard-response","261","312695","0.0-1.0-355.0","0","0","88387","","null","","","null","39","","NaN","","","","","","","","","","","","","",""
"","response","","html-keyboard-response","262","312872","0.0-1.0-356.0-0.0","0","0","88387","","176","","","75","39","","","1","39","training","adjacent","BA","2","1","O.jpg","P.jpg","1","0","0","",""
"","feedback","","html-keyboard-response","263","313874","0.0-1.0-357.0-0.0","0","0","88387","","null","","","null","39","","","","","","","","","","","","","","","",""
"","time_out","","html-keyboard-response","264","315876","0.0-1.0-359.0-0.0","0","0","88387","","null","","","null","39","","","","","","","","","","","","","","","",""
"","ITI","","html-keyboard-response","265","316878","0.0-1.0-360.0","0","0","88387","","null","","","null","39","","","","","","","","","","","","","","","NaN",""
"","S1","","html-keyboard-response","266","317130","0.0-1.0-362.0","0","0","88387","","null","","","null","40","","","","","","","","","","","","","","","",""
"","ISI","","html-keyboard-response","267","318131","0.0-1.0-363.0","0","0","88387","","null","","","null","40","NaN","","","","","","","","","","","","","","",""
"","S2","","html-keyboard-response","268","318383","0.0-1.0-364.0","0","0","88387","","null","","","null","40","","NaN","","","","","","","","","","","","","",""
"","response","","html-keyboard-response","269","318482","0.0-1.0-365.0-0.0","0","0","88387","","98","","","75","40","","","1","40","training","adjacent","DC","4","3","L.jpg","Q.jpg","1","0","0","",""
"","feedback","","html-keyboard-response","270","319484","0.0-1.0-366.0-0.0","0","0","88387","","null","","","null","40","","","","","","","","","","","","","","","",""
"","time_out","","html-keyboard-response","271","321486","0.0-1.0-368.0-0.0","0","0","88387","","null","","","null","40","","","","","","","","","","","","","","","",""
"","ITI","","html-keyboard-response","272","322488","0.0-1.0-369.0","0","0","88387","","null","","","null","40","","","","","","","","","","","","","","","NaN",""
"","S1","","html-keyboard-response","273","322740","0.0-1.0-371.0","0","0","88387","","null","","","null","41","","","","","","","","","","","","","","","",""
"","ISI","","html-keyboard-response","274","323741","0.0-1.0-372.0","0","0","88387","","null","","","null","41","NaN","","","","","","","","","","","","","","",""
"","S2","","html-keyboard-response","275","323992","0.0-1.0-373.0","0","0","88387","","null","","","null","41","","NaN","","","","","","","","","","","","","",""
"","response","","html-keyboard-response","276","324359","0.0-1.0-374.0-0.0","0","0","88387","","365","","","68","41","","","1","41","training","adjacent","DC","4","3","L.jpg","Q.jpg","0","0","1","",""
"","feedback","","html-keyboard-response","277","325360","0.0-1.0-375.0-0.0","0","0","88387","","null","","","null","41","","","","","","","","","","","","","","","",""
"","ITI","","html-keyboard-response","278","326362","0.0-1.0-378.0","0","0","88387","","null","","","null","41","","","","","","","","","","","","","","","NaN",""
"","S1","","html-keyboard-response","279","326613","0.0-1.0-380.0","0","0","88387","","null","","","null","42","","","","","","","","","","","","","","","",""
"","ISI","","html-keyboard-response","280","327615","0.0-1.0-381.0","0","0","88387","","null","","","null","42","NaN","","","","","","","","","","","","","","",""
"","S2","","html-keyboard-response","281","327878","0.0-1.0-382.0","0","0","88387","","null","","","null","42","","NaN","","","","","","","","","","","","","",""
"","response","","html-keyboard-response","282","328457","0.0-1.0-383.0-0.0","0","0","88387","","578","","","75","42","","","1","42","training","adjacent","FE","6","5","N.jpg","R.jpg","1","0","0","",""
"","feedback","","html-keyboard-response","283","329459","0.0-1.0-384.0-0.0","0","0","88387","","null","","","null","42","","","","","","","","","","","","","","","",""
"","time_out","","html-keyboard-response","284","331461","0.0-1.0-386.0-0.0","0","0","88387","","null","","","null","42","","","","","","","","","","","","","","","",""
"","ITI","","html-keyboard-response","285","332463","0.0-1.0-387.0","0","0","88387","","null","","","null","42","","","","","","","","","","","","","","","NaN",""
"","S1","","html-keyboard-response","286","332714","0.0-1.0-389.0","0","0","88387","","null","","","null","43","","","","","","","","","","","","","","","",""
"","ISI","","html-keyboard-response","287","333716","0.0-1.0-390.0","0","0","88387","","null","","","null","43","NaN","","","","","","","","","","","","","","",""
"","S2","","html-keyboard-response","288","333968","0.0-1.0-391.0","0","0","88387","","null","","","null","43","","NaN","","","","","","","","","","","","","",""
"","response","","html-keyboard-response","289","334098","0.0-1.0-392.0-0.0","0","0","88387","","128","","","68","43","","","1","43","training","adjacent","DC","4","3","L.jpg","Q.jpg","0","0","1","",""
"","feedback","","html-keyboard-response","290","335100","0.0-1.0-393.0-0.0","0","0","88387","","null","","","null","43","","","","","","","","","","","","","","","",""
"","ITI","","html-keyboard-response","291","336101","0.0-1.0-396.0","0","0","88387","","null","","","null","43","","","","","","","","","","","","","","","NaN",""
"","S1","","html-keyboard-response","292","336353","0.0-1.0-398.0","0","0","88387","","null","","","null","44","","","","","","","","","","","","","","","",""
"","ISI","","html-keyboard-response","293","337354","0.0-1.0-399.0","0","0","88387","","null","","","null","44","NaN","","","","","","","","","","","","","","",""
"","S2","","html-keyboard-response","294","337606","0.0-1.0-400.0","0","0","88387","","null","","","null","44","","NaN","","","","","","","","","","","","","",""
"","response","","html-keyboard-response","295","338270","0.0-1.0-401.0-0.0","0","0","88387","","662","","","68","44","","","1","44","training","adjacent","BA","2","1","O.jpg","P.jpg","0","0","1","",""
"","feedback","","html-keyboard-response","296","339272","0.0-1.0-402.0-0.0","0","0","88387","","null","","","null","44","","","","","","","","","","","","","","","",""
"","ITI","","html-keyboard-response","297","340274","0.0-1.0-405.0","0","0","88387","","null","","","null","44","","","","","","","","","","","","","","","NaN",""
"","S1","","html-keyboard-response","298","340526","0.0-1.0-407.0","0","0","88387","","null","","","null","45","","","","","","","","","","","","","","","",""
"","ISI","","html-keyboard-response","299","341528","0.0-1.0-408.0","0","0","88387","","null","","","null","45","NaN","","","","","","","","","","","","","","",""
"","S2","","html-keyboard-response","300","341780","0.0-1.0-409.0","0","0","88387","","null","","","null","45","","NaN","","","","","","","","","","","","","",""
"","response","","html-keyboard-response","301","342196","0.0-1.0-410.0-0.0","0","0","88387","","415","","","68","45","","","1","45","training","adjacent","DE","4","5","L.jpg","R.jpg","0","1","0","",""
"","feedback","","html-keyboard-response","302","343198","0.0-1.0-411.0-0.0","0","0","88387","","null","","","null","45","","","","","","","","","","","","","","","",""
"","time_out","","html-keyboard-response","303","345199","0.0-1.0-413.0-0.0","0","0","88387","","null","","","null","45","","","","","","","","","","","","","","","",""
"","ITI","","html-keyboard-response","304","346201","0.0-1.0-414.0","0","0","88387","","null","","","null","45","","","","","","","","","","","","","","","NaN",""
"","S1","","html-keyboard-response","305","346453","0.0-1.0-416.0","0","0","88387","","null","","","null","46","","","","","","","","","","","","","","","",""
"","ISI","","html-keyboard-response","306","347455","0.0-1.0-417.0","0","0","88387","","null","","","null","46","NaN","","","","","","","","","","","","","","",""
"","S2","","html-keyboard-response","307","347706","0.0-1.0-418.0","0","0","88387","","null","","","null","46","","NaN","","","","","","","","","","","","","",""
"","response","","html-keyboard-response","308","347967","0.0-1.0-419.0-0.0","0","0","88387","","259","","","68","46","","","1","46","training","adjacent","ED","5","4","R.jpg","L.jpg","0","0","1","",""
"","feedback","","html-keyboard-response","309","348969","0.0-1.0-420.0-0.0","0","0","88387","","null","","","null","46","","","","","","","","","","","","","","","",""
"","ITI","","html-keyboard-response","310","349971","0.0-1.0-423.0","0","0","88387","","null","","","null","46","","","","","","","","","","","","","","","NaN",""
"","S1","","html-keyboard-response","311","350223","0.0-1.0-425.0","0","0","88387","","null","","","null","47","","","","","","","","","","","","","","","",""
"","ISI","","html-keyboard-response","312","351224","0.0-1.0-426.0","0","0","88387","","null","","","null","47","NaN","","","","","","","","","","","","","","",""
"","S2","","html-keyboard-response","313","351476","0.0-1.0-427.0","0","0","88387","","null","","","null","47","","NaN","","","","","","","","","","","","","",""
"","response","","html-keyboard-response","314","351485","0.0-1.0-428.0-0.0","0","0","88387","","8","","","68","47","","","1","47","training","adjacent","AB","1","2","P.jpg","O.jpg","0","1","0","",""
"","feedback","","html-keyboard-response","315","352487","0.0-1.0-429.0-0.0","0","0","88387","","null","","","null","47","","","","","","","","","","","","","","","",""
"","time_out","","html-keyboard-response","316","354490","0.0-1.0-431.0-0.0","0","0","88387","","null","","","null","47","","","","","","","","","","","","","","","",""
"","ITI","","html-keyboard-response","317","355492","0.0-1.0-432.0","0","0","88387","","null","","","null","47","","","","","","","","","","","","","","","NaN",""
"","block_over","","html-keyboard-response","318","361513","0.0-1.0-433.0-0.0","0","0","88387","","6020","","","32","47","","","","","","","","","","","","","","","",""
"","S1","","html-keyboard-response","319","361765","0.0-1.0-434.0","0","0","88387","","null","","","null","48","","","","","","","","","","","","","","","",""
"","ISI","","html-keyboard-response","320","362766","0.0-1.0-435.0","0","0","88387","","null","","","null","48","NaN","","","","","","","","","","","","","","",""
"","S2","","html-keyboard-response","321","363018","0.0-1.0-436.0","0","0","88387","","null","","","null","48","","NaN","","","","","","","","","","","","","",""
"","response","","html-keyboard-response","322","363611","0.0-1.0-437.0-0.0","0","0","88387","","591","","","68","48","","","2","48","training","adjacent","DC","4","3","L.jpg","Q.jpg","0","0","1","",""
"","feedback","","html-keyboard-response","323","364624","0.0-1.0-438.0-0.0","0","0","88387","","null","","","null","48","","","","","","","","","","","","","","","",""
"","ITI","","html-keyboard-response","324","365626","0.0-1.0-441.0","0","0","88387","","null","","","null","48","","","","","","","","","","","","","","","NaN",""
"","S1","","html-keyboard-response","325","365879","0.0-1.0-443.0","0","0","88387","","null","","","null","49","","","","","","","","","","","","","","","",""
"","ISI","","html-keyboard-response","326","366880","0.0-1.0-444.0","0","0","88387","","null","","","null","49","NaN","","","","","","","","","","","","","","",""
"","S2","","html-keyboard-response","327","367132","0.0-1.0-445.0","0","0","88387","","null","","","null","49","","NaN","","","","","","","","","","","","","",""
"","response","","html-keyboard-response","328","367692","0.0-1.0-446.0-0.0","0","0","88387","","558","","","68","49","","","2","49","training","adjacent","BC","2","3","O.jpg","Q.jpg","0","1","0","",""
"","feedback","","html-keyboard-response","329","368694","0.0-1.0-447.0-0.0","0","0","88387","","null","","","null","49","","","","","","","","","","","","","","","",""
"","time_out","","html-keyboard-response","330","370696","0.0-1.0-449.0-0.0","0","0","88387","","null","","","null","49","","","","","","","","","","","","","","","",""
"","ITI","","html-keyboard-response","331","371698","0.0-1.0-450.0","0","0","88387","","null","","","null","49","","","","","","","","","","","","","","","NaN",""
"","S1","","html-keyboard-response","332","371950","0.0-1.0-452.0","0","0","88387","","null","","","null","50","","","","","","","","","","","","","","","",""
"","ISI","","html-keyboard-response","333","372951","0.0-1.0-453.0","0","0","88387","","null","","","null","50","NaN","","","","","","","","","","","","","","",""
"","S2","","html-keyboard-response","334","373204","0.0-1.0-454.0","0","0","88387","","null","","","null","50","","NaN","","","","","","","","","","","","","",""
"","response","","html-keyboard-response","335","373796","0.0-1.0-455.0-0.0","0","0","88387","","591","","","75","50","","","2","50","training","adjacent","DC","4","3","L.jpg","Q.jpg","1","0","0","",""
"","feedback","","html-keyboard-response","336","374799","0.0-1.0-456.0-0.0","0","0","88387","","null","","","null","50","","","","","","","","","","","","","","","",""
"","time_out","","html-keyboard-response","337","376801","0.0-1.0-458.0-0.0","0","0","88387","","null","","","null","50","","","","","","","","","","","","","","","",""
"","ITI","","html-keyboard-response","338","377802","0.0-1.0-459.0","0","0","88387","","null","","","null","50","","","","","","","","","","","","","","","NaN",""
"","S1","","html-keyboard-response","339","378055","0.0-1.0-461.0","0","0","88387","","null","","","null","51","","","","","","","","","","","","","","","",""
"","ISI","","html-keyboard-response","340","379056","0.0-1.0-462.0","0","0","88387","","null","","","null","51","NaN","","","","","","","","","","","","","","",""
"","S2","","html-keyboard-response","341","379308","0.0-1.0-463.0","0","0","88387","","null","","","null","51","","NaN","","","","","","","","","","","","","",""
"","response","","html-keyboard-response","342","379532","0.0-1.0-464.0-0.0","0","0","88387","","223","","","75","51","","","2","51","training","adjacent","GF","7","6","M.jpg","N.jpg","1","0","0","",""
"","feedback","","html-keyboard-response","343","380534","0.0-1.0-465.0-0.0","0","0","88387","","null","","","null","51","","","","","","","","","","","","","","","",""
"","time_out","","html-keyboard-response","344","382536","0.0-1.0-467.0-0.0","0","0","88387","","null","","","null","51","","","","","","","","","","","","","","","",""
"","ITI","","html-keyboard-response","345","383538","0.0-1.0-468.0","0","0","88387","","null","","","null","51","","","","","","","","","","","","","","","NaN",""
"","S1","","html-keyboard-response","346","383789","0.0-1.0-470.0","0","0","88387","","null","","","null","52","","","","","","","","","","","","","","","",""
"","ISI","","html-keyboard-response","347","384791","0.0-1.0-471.0","0","0","88387","","null","","","null","52","NaN","","","","","","","","","","","","","","",""
"","S2","","html-keyboard-response","348","385043","0.0-1.0-472.0","0","0","88387","","null","","","null","52","","NaN","","","","","","","","","","","","","",""
"","response","","html-keyboard-response","349","385971","0.0-1.0-473.0-0.0","0","0","88387","","928","","","68","52","","","2","52","training","adjacent","DE","4","5","L.jpg","R.jpg","0","1","0","",""
"","feedback","","html-keyboard-response","350","386973","0.0-1.0-474.0-0.0","0","0","88387","","null","","","null","52","","","","","","","","","","","","","","","",""
"","time_out","","html-keyboard-response","351","388974","0.0-1.0-476.0-0.0","0","0","88387","","null","","","null","52","","","","","","","","","","","","","","","",""
"","ITI","","html-keyboard-response","352","389976","0.0-1.0-477.0","0","0","88387","","null","","","null","52","","","","","","","","","","","","","","","NaN",""
"","S1","","html-keyboard-response","353","390227","0.0-1.0-479.0","0","0","88387","","null","","","null","53","","","","","","","","","","","","","","","",""
"","ISI","","html-keyboard-response","354","391229","0.0-1.0-480.0","0","0","88387","","null","","","null","53","NaN","","","","","","","","","","","","","","",""
"","S2","","html-keyboard-response","355","391481","0.0-1.0-481.0","0","0","88387","","null","","","null","53","","NaN","","","","","","","","","","","","","",""
"","response","","html-keyboard-response","356","391507","0.0-1.0-482.0-0.0","0","0","88387","","25","","","75","53","","","2","53","training","adjacent","CB","3","2","Q.jpg","O.jpg","1","0","0","",""
"","feedback","","html-keyboard-response","357","392525","0.0-1.0-483.0-0.0","0","0","88387","","null","","","null","53","","","","","","","","","","","","","","","",""
"","time_out","","html-keyboard-response","358","394527","0.0-1.0-485.0-0.0","0","0","88387","","null","","","null","53","","","","","","","","","","","","","","","",""
"","ITI","","html-keyboard-response","359","395528","0.0-1.0-486.0","0","0","88387","","null","","","null","53","","","","","","","","","","","","","","","NaN",""
"","S1","","html-keyboard-response","360","395781","0.0-1.0-488.0","0","0","88387","","null","","","null","54","","","","","","","","","","","","","","","",""
"","ISI","","html-keyboard-response","361","396782","0.0-1.0-489.0","0","0","88387","","null","","","null","54","NaN","","","","","","","","","","","","","","",""
"","S2","","html-keyboard-response","362","397033","0.0-1.0-490.0","0","0","88387","","null","","","null","54","","NaN","","","","","","","","","","","","","",""
"","response","","html-keyboard-response","363","398160","0.0-1.0-491.0-0.0","0","0","88387","","1125","","","68","54","","","2","54","training","adjacent","CB","3","2","Q.jpg","O.jpg","0","0","1","",""
"","feedback","","html-keyboard-response","364","399163","0.0-1.0-492.0-0.0","0","0","88387","","null","","","null","54","","","","","","","","","","","","","","","",""
"","ITI","","html-keyboard-response","365","400164","0.0-1.0-495.0","0","0","88387","","null","","","null","54","","","","","","","","","","","","","","","NaN",""
"","S1","","html-keyboard-response","366","400416","0.0-1.0-497.0","0","0","88387","","null","","","null","55","","","","","","","","","","","","","","","",""
"","ISI","","html-keyboard-response","367","401418","0.0-1.0-498.0","0","0","88387","","null","","","null","55","NaN","","","","","","","","","","","","","","",""
"","S2","","html-keyboard-response","368","401669","0.0-1.0-499.0","0","0","88387","","null","","","null","55","","NaN","","","","","","","","","","","","","",""
"","response","","html-keyboard-response","369","402030","0.0-1.0-500.0-0.0","0","0","88387","","359","","","75","55","","","2","55","training","adjacent","FE","6","5","N.jpg","R.jpg","1","0","0","",""
"","feedback","","html-keyboard-response","370","403032","0.0-1.0-501.0-0.0","0","0","88387","","null","","","null","55","","","","","","","","","","","","","","","",""
"","time_out","","html-keyboard-response","371","405034","0.0-1.0-503.0-0.0","0","0","88387","","null","","","null","55","","","","","","","","","","","","","","","",""
"","ITI","","html-keyboard-response","372","406036","0.0-1.0-504.0","0","0","88387","","null","","","null","55","","","","","","","","","","","","","","","NaN",""
"","S1","","html-keyboard-response","373","406288","0.0-1.0-506.0","0","0","88387","","null","","","null","56","","","","","","","","","","","","","","","",""
"","ISI","","html-keyboard-response","374","407290","0.0-1.0-507.0","0","0","88387","","null","","","null","56","NaN","","","","","","","","","","","","","","",""
"","S2","","html-keyboard-response","375","407542","0.0-1.0-508.0","0","0","88387","","null","","","null","56","","NaN","","","","","","","","","","","","","",""
"","response","","html-keyboard-response","376","407579","0.0-1.0-509.0-0.0","0","0","88387","","36","","","75","56","","","2","56","training","adjacent","FG","6","7","N.jpg","M.jpg","1","1","1","",""
"","feedback","","html-keyboard-response","377","408580","0.0-1.0-510.0-0.0","0","0","88387","","null","","","null","56","","","","","","","","","","","","","","","",""
"","ITI","","html-keyboard-response","378","409582","0.0-1.0-513.0","0","0","88387","","null","","","null","56","","","","","","","","","","","","","","","NaN",""
"","S1","","html-keyboard-response","379","409835","0.0-1.0-515.0","0","0","88387","","null","","","null","57","","","","","","","","","","","","","","","",""
"","ISI","","html-keyboard-response","380","410836","0.0-1.0-516.0","0","0","88387","","null","","","null","57","NaN","","","","","","","","","","","","","","",""
"","S2","","html-keyboard-response","381","411088","0.0-1.0-517.0","0","0","88387","","null","","","null","57","","NaN","","","","","","","","","","","","","",""
"","response","","html-keyboard-response","382","411194","0.0-1.0-518.0-0.0","0","0","88387","","104","","","75","57","","","2","57","training","adjacent","CD","3","4","Q.jpg","L.jpg","1","1","1","",""
"","feedback","","html-keyboard-response","383","412196","0.0-1.0-519.0-0.0","0","0","88387","","null","","","null","57","","","","","","","","","","","","","","","",""
"","ITI","","html-keyboard-response","384","413198","0.0-1.0-522.0","0","0","88387","","null","","","null","57","","","","","","","","","","","","","","","NaN",""
"","S1","","html-keyboard-response","385","413450","0.0-1.0-524.0","0","0","88387","","null","","","null","58","","","","","","","","","","","","","","","",""
"","ISI","","html-keyboard-response","386","414451","0.0-1.0-525.0","0","0","88387","","null","","","null","58","NaN","","","","","","","","","","","","","","",""
"","S2","","html-keyboard-response","387","414696","0.0-1.0-526.0","0","0","88387","","243","","","75","58","","k","2","58","training","adjacent","FE","6","5","N.jpg","R.jpg","1","0","0","",""
"","feedback","","html-keyboard-response","388","415698","0.0-1.0-528.0-0.0","0","0","88387","","null","","","null","58","","","","","","","","","","","","","","","",""
"","time_out","","html-keyboard-response","389","417700","0.0-1.0-530.0-0.0","0","0","88387","","null","","","null","58","","","","","","","","","","","","","","","",""
"","ITI","","html-keyboard-response","390","418701","0.0-1.0-531.0","0","0","88387","","null","","","null","58","","","","","","","","","","","","","","","NaN",""
"","S1","","html-keyboard-response","391","418953","0.0-1.0-533.0","0","0","88387","","null","","","null","59","","","","","","","","","","","","","","","",""
"","ISI","","html-keyboard-response","392","419955","0.0-1.0-534.0","0","0","88387","","null","","","null","59","NaN","","","","","","","","","","","","","","",""
"","S2","","html-keyboard-response","393","420207","0.0-1.0-535.0","0","0","88387","","null","","","null","59","","NaN","","","","","","","","","","","","","",""
"","response","","html-keyboard-response","394","420239","0.0-1.0-536.0-0.0","0","0","88387","","31","","","68","59","","","2","59","training","adjacent","FE","6","5","N.jpg","R.jpg","0","0","1","",""
"","feedback","","html-keyboard-response","395","421241","0.0-1.0-537.0-0.0","0","0","88387","","null","","","null","59","","","","","","","","","","","","","","","",""
"","ITI","","html-keyboard-response","396","422243","0.0-1.0-540.0","0","0","88387","","null","","","null","59","","","","","","","","","","","","","","","NaN",""
"","S1","","html-keyboard-response","397","422496","0.0-1.0-542.0","0","0","88387","","null","","","null","60","","","","","","","","","","","","","","","",""
"","ISI","","html-keyboard-response","398","423497","0.0-1.0-543.0","0","0","88387","","null","","","null","60","NaN","","","","","","","","","","","","","","",""
"","S2","","html-keyboard-response","399","423726","0.0-1.0-544.0","0","0","88387","","227","","","68","60","","d","2","60","training","adjacent","CB","3","2","Q.jpg","O.jpg","0","0","1","",""
"","feedback","","html-keyboard-response","400","424728","0.0-1.0-546.0-0.0","0","0","88387","","null","","","null","60","","","","","","","","","","","","","","","",""
"","ITI","","html-keyboard-response","401","425730","0.0-1.0-549.0","0","0","88387","","null","","","null","60","","","","","","","","","","","","","","","NaN",""
"","S1","","html-keyboard-response","402","425983","0.0-1.0-551.0","0","0","88387","","null","","","null","61","","","","","","","","","","","","","","","",""
"","ISI","","html-keyboard-response","403","426985","0.0-1.0-552.0","0","0","88387","","null","","","null","61","NaN","","","","","","","","","","","","","","",""
"","S2","","html-keyboard-response","404","427237","0.0-1.0-553.0","0","0","88387","","null","","","null","61","","NaN","","","","","","","","","","","","","",""
"","response","","html-keyboard-response","405","427269","0.0-1.0-554.0-0.0","0","0","88387","","30","","","68","61","","","2","61","training","adjacent","GF","7","6","M.jpg","N.jpg","0","0","1","",""
"","feedback","","html-keyboard-response","406","428270","0.0-1.0-555.0-0.0","0","0","88387","","null","","","null","61","","","","","","","","","","","","","","","",""
"","ITI","","html-keyboard-response","407","429272","0.0-1.0-558.0","0","0","88387","","null","","","null","61","","","","","","","","","","","","","","","NaN",""
"","S1","","html-keyboard-response","408","429524","0.0-1.0-560.0","0","0","88387","","null","","","null","62","","","","","","","","","","","","","","","",""
"","ISI","","html-keyboard-response","409","430526","0.0-1.0-561.0","0","0","88387","","null","","","null","62","NaN","","","","","","","","","","","","","","",""
"","S2","","html-keyboard-response","410","430768","0.0-1.0-562.0","0","0","88387","","240","","","75","62","","k","2","62","training","adjacent","BA","2","1","O.jpg","P.jpg","1","0","0","",""
"","feedback","","html-keyboard-response","411","431770","0.0-1.0-564.0-0.0","0","0","88387","","null","","","null","62","","","","","","","","","","","","","","","",""
"","time_out","","html-keyboard-response","412","433773","0.0-1.0-566.0-0.0","0","0","88387","","null","","","null","62","","","","","","","","","","","","","","","",""
"","ITI","","html-keyboard-response","413","434775","0.0-1.0-567.0","0","0","88387","","null","","","null","62","","","","","","","","","","","","","","","NaN",""
"","S1","","html-keyboard-response","414","435026","0.0-1.0-569.0","0","0","88387","","null","","","null","63","","","","","","","","","","","","","","","",""
"","ISI","","html-keyboard-response","415","436029","0.0-1.0-570.0","0","0","88387","","null","","","null","63","NaN","","","","","","","","","","","","","","",""
"","S2","","html-keyboard-response","416","436280","0.0-1.0-571.0","0","0","88387","","null","","","null","63","","NaN","","","","","","","","","","","","","",""
"","response","","html-keyboard-response","417","436885","0.0-1.0-572.0-0.0","0","0","88387","","605","","","68","63","","","2","63","training","adjacent","BA","2","1","O.jpg","P.jpg","0","0","1","",""
"","feedback","","html-keyboard-response","418","437888","0.0-1.0-573.0-0.0","0","0","88387","","null","","","null","63","","","","","","","","","","","","","","","",""
"","ITI","","html-keyboard-response","419","438890","0.0-1.0-576.0","0","0","88387","","null","","","null","63","","","","","","","","","","","","","","","NaN",""
"","S1","","html-keyboard-response","420","439142","0.0-1.0-578.0","0","0","88387","","null","","","null","64","","","","","","","","","","","","","","","",""
"","ISI","","html-keyboard-response","421","440143","0.0-1.0-579.0","0","0","88387","","null","","","null","64","NaN","","","","","","","","","","","","","","",""
"","S2","","html-keyboard-response","422","440396","0.0-1.0-580.0","0","0","88387","","null","","","null","64","","NaN","","","","","","","","","","","","","",""
"","response","","html-keyboard-response","423","440442","0.0-1.0-581.0-0.0","0","0","88387","","44","","","68","64","","","2","64","training","adjacent","BC","2","3","O.jpg","Q.jpg","0","1","0","",""
"","feedback","","html-keyboard-response","424","441444","0.0-1.0-582.0-0.0","0","0","88387","","null","","","null","64","","","","","","","","","","","","","","","",""
"","time_out","","html-keyboard-response","425","443445","0.0-1.0-584.0-0.0","0","0","88387","","null","","","null","64","","","","","","","","","","","","","","","",""
"","ITI","","html-keyboard-response","426","444448","0.0-1.0-585.0","0","0","88387","","null","","","null","64","","","","","","","","","","","","","","","NaN",""
"","S1","","html-keyboard-response","427","444700","0.0-1.0-587.0","0","0","88387","","null","","","null","65","","","","","","","","","","","","","","","",""
"","ISI","","html-keyboard-response","428","445701","0.0-1.0-588.0","0","0","88387","","null","","","null","65","NaN","","","","","","","","","","","","","","",""
"","S2","","html-keyboard-response","429","445953","0.0-1.0-589.0","0","0","88387","","null","","","null","65","","NaN","","","","","","","","","","","","","",""
"","response","","html-keyboard-response","430","445965","0.0-1.0-590.0-0.0","0","0","88387","","11","","","75","65","","","2","65","training","adjacent","DC","4","3","L.jpg","Q.jpg","1","0","0","",""
"","feedback","","html-keyboard-response","431","446966","0.0-1.0-591.0-0.0","0","0","88387","","null","","","null","65","","","","","","","","","","","","","","","",""
"","time_out","","html-keyboard-response","432","448969","0.0-1.0-593.0-0.0","0","0","88387","","null","","","null","65","","","","","","","","","","","","","","","",""
"","ITI","","html-keyboard-response","433","449970","0.0-1.0-594.0","0","0","88387","","null","","","null","65","","","","","","","","","","","","","","","NaN",""
"","S1","","html-keyboard-response","434","450222","0.0-1.0-596.0","0","0","88387","","null","","","null","66","","","","","","","","","","","","","","","",""
"","ISI","","html-keyboard-response","435","451224","0.0-1.0-597.0","0","0","88387","","null","","","null","66","NaN","","","","","","","","","","","","","","",""
"","S2","","html-keyboard-response","436","451476","0.0-1.0-598.0","0","0","88387","","null","","","null","66","","NaN","","","","","","","","","","","","","",""
"","response","","html-keyboard-response","437","451491","0.0-1.0-599.0-0.0","0","0","88387","","13","","","68","66","","","2","66","training","adjacent","CB","3","2","Q.jpg","O.jpg","0","0","1","",""
"","feedback","","html-keyboard-response","438","452493","0.0-1.0-600.0-0.0","0","0","88387","","null","","","null","66","","","","","","","","","","","","","","","",""
"","ITI","","html-keyboard-response","439","453494","0.0-1.0-603.0","0","0","88387","","null","","","null","66","","","","","","","","","","","","","","","NaN",""
"","S1","","html-keyboard-response","440","453747","0.0-1.0-605.0","0","0","88387","","null","","","null","67","","","","","","","","","","","","","","","",""
"","ISI","","html-keyboard-response","441","454749","0.0-1.0-606.0","0","0","88387","","null","","","null","67","NaN","","","","","","","","","","","","","","",""
"","S2","","html-keyboard-response","442","455001","0.0-1.0-607.0","0","0","88387","","null","","","null","67","","NaN","","","","","","","","","","","","","",""
"","response","","html-keyboard-response","443","455110","0.0-1.0-608.0-0.0","0","0","88387","","107","","","68","67","","","2","67","training","adjacent","GF","7","6","M.jpg","N.jpg","0","0","1","",""
"","feedback","","html-keyboard-response","444","456112","0.0-1.0-609.0-0.0","0","0","88387","","null","","","null","67","","","","","","","","","","","","","","","",""
"","ITI","","html-keyboard-response","445","457114","0.0-1.0-612.0","0","0","88387","","null","","","null","67","","","","","","","","","","","","","","","NaN",""
"","S1","","html-keyboard-response","446","457366","0.0-1.0-614.0","0","0","88387","","null","","","null","68","","","","","","","","","","","","","","","",""
"","ISI","","html-keyboard-response","447","458369","0.0-1.0-615.0","0","0","88387","","null","","","null","68","NaN","","","","","","","","","","","","","","",""
"","S2","","html-keyboard-response","448","458621","0.0-1.0-616.0","0","0","88387","","null","","","null","68","","NaN","","","","","","","","","","","","","",""
"","response","","html-keyboard-response","449","458721","0.0-1.0-617.0-0.0","0","0","88387","","99","","","68","68","","","2","68","training","adjacent","EF","5","6","R.jpg","N.jpg","0","1","0","",""
"","feedback","","html-keyboard-response","450","459722","0.0-1.0-618.0-0.0","0","0","88387","","null","","","null","68","","","","","","","","","","","","","","","",""
"","time_out","","html-keyboard-response","451","461723","0.0-1.0-620.0-0.0","0","0","88387","","null","","","null","68","","","","","","","","","","","","","","","",""
"","ITI","","html-keyboard-response","452","462725","0.0-1.0-621.0","0","0","88387","","null","","","null","68","","","","","","","","","","","","","","","NaN",""
"","S1","","html-keyboard-response","453","462976","0.0-1.0-623.0","0","0","88387","","null","","","null","69","","","","","","","","","","","","","","","",""
"","ISI","","html-keyboard-response","454","463978","0.0-1.0-624.0","0","0","88387","","null","","","null","69","NaN","","","","","","","","","","","","","","",""
"","S2","","html-keyboard-response","455","464230","0.0-1.0-625.0","0","0","88387","","null","","","null","69","","NaN","","","","","","","","","","","","","",""
"","response","","html-keyboard-response","456","464268","0.0-1.0-626.0-0.0","0","0","88387","","37","","","75","69","","","2","69","training","adjacent","FG","6","7","N.jpg","M.jpg","1","1","1","",""
"","feedback","","html-keyboard-response","457","465271","0.0-1.0-627.0-0.0","0","0","88387","","null","","","null","69","","","","","","","","","","","","","","","",""
"","ITI","","html-keyboard-response","458","466273","0.0-1.0-630.0","0","0","88387","","null","","","null","69","","","","","","","","","","","","","","","NaN",""
"","S1","","html-keyboard-response","459","466525","0.0-1.0-632.0","0","0","88387","","null","","","null","70","","","","","","","","","","","","","","","",""
"","ISI","","html-keyboard-response","460","467526","0.0-1.0-633.0","0","0","88387","","null","","","null","70","NaN","","","","","","","","","","","","","","",""
"","S2","","html-keyboard-response","461","467742","0.0-1.0-634.0","0","0","88387","","215","","","68","70","","d","2","70","training","adjacent","ED","5","4","R.jpg","L.jpg","0","0","1","",""
"","feedback","","html-keyboard-response","462","468744","0.0-1.0-636.0-0.0","0","0","88387","","null","","","null","70","","","","","","","","","","","","","","","",""
"","ITI","","html-keyboard-response","463","469746","0.0-1.0-639.0","0","0","88387","","null","","","null","70","","","","","","","","","","","","","","","NaN",""
"","S1","","html-keyboard-response","464","469998","0.0-1.0-641.0","0","0","88387","","null","","","null","71","","","","","","","","","","","","","","","",""
"","ISI","","html-keyboard-response","465","470999","0.0-1.0-642.0","0","0","88387","","null","","","null","71","NaN","","","","","","","","","","","","","","",""
"","S2","","html-keyboard-response","466","471251","0.0-1.0-643.0","0","0","88387","","null","","","null","71","","NaN","","","","","","","","","","","","","",""
"","response","","html-keyboard-response","467","471306","0.0-1.0-644.0-0.0","0","0","88387","","53","","","68","71","","","2","71","training","adjacent","FE","6","5","N.jpg","R.jpg","0","0","1","",""
"","feedback","","html-keyboard-response","468","472308","0.0-1.0-645.0-0.0","0","0","88387","","null","","","null","71","","","","","","","","","","","","","","","",""
"","ITI","","html-keyboard-response","469","473310","0.0-1.0-648.0","0","0","88387","","null","","","null","71","","","","","","","","","","","","","","","NaN",""
"","S1","","html-keyboard-response","470","473562","0.0-1.0-650.0","0","0","88387","","null","","","null","72","","","","","","","","","","","","","","","",""
"","ISI","","html-keyboard-response","471","474563","0.0-1.0-651.0","0","0","88387","","null","","","null","72","NaN","","","","","","","","","","","","","","",""
"","S2","","html-keyboard-response","472","474814","0.0-1.0-652.0","0","0","88387","","null","","","null","72","","NaN","","","","","","","","","","","","","",""
"","response","","html-keyboard-response","473","474883","0.0-1.0-653.0-0.0","0","0","88387","","68","","","68","72","","","2","72","training","adjacent","EF","5","6","R.jpg","N.jpg","0","1","0","",""
"","feedback","","html-keyboard-response","474","475886","0.0-1.0-654.0-0.0","0","0","88387","","null","","","null","72","","","","","","","","","","","","","","","",""
"","time_out","","html-keyboard-response","475","477888","0.0-1.0-656.0-0.0","0","0","88387","","null","","","null","72","","","","","","","","","","","","","","","",""
"","ITI","","html-keyboard-response","476","478890","0.0-1.0-657.0","0","0","88387","","null","","","null","72","","","","","","","","","","","","","","","NaN",""
"","S1","","html-keyboard-response","477","479142","0.0-1.0-659.0","0","0","88387","","null","","","null","73","","","","","","","","","","","","","","","",""
"","ISI","","html-keyboard-response","478","480144","0.0-1.0-660.0","0","0","88387","","null","","","null","73","NaN","","","","","","","","","","","","","","",""
"","S2","","html-keyboard-response","479","480365","0.0-1.0-661.0","0","0","88387","","219","","","75","73","","k","2","73","training","adjacent","CD","3","4","Q.jpg","L.jpg","1","1","1","",""
"","feedback","","html-keyboard-response","480","481367","0.0-1.0-663.0-0.0","0","0","88387","","null","","","null","73","","","","","","","","","","","","","","","",""
"","ITI","","html-keyboard-response","481","482369","0.0-1.0-666.0","0","0","88387","","null","","","null","73","","","","","","","","","","","","","","","NaN",""
"","S1","","html-keyboard-response","482","482621","0.0-1.0-668.0","0","0","88387","","null","","","null","74","","","","","","","","","","","","","","","",""
"","ISI","","html-keyboard-response","483","483623","0.0-1.0-669.0","0","0","88387","","null","","","null","74","NaN","","","","","","","","","","","","","","",""
"","S2","","html-keyboard-response","484","483844","0.0-1.0-670.0","0","0","88387","","220","","","75","74","","k","2","74","training","adjacent","ED","5","4","R.jpg","L.jpg","1","0","0","",""
"","feedback","","html-keyboard-response","485","484846","0.0-1.0-672.0-0.0","0","0","88387","","null","","","null","74","","","","","","","","","","","","","","","",""
"","time_out","","html-keyboard-response","486","486848","0.0-1.0-674.0-0.0","0","0","88387","","null","","","null","74","","","","","","","","","","","","","","","",""
"","ITI","","html-keyboard-response","487","487849","0.0-1.0-675.0","0","0","88387","","null","","","null","74","","","","","","","","","","","","","","","NaN",""
"","S1","","html-keyboard-response","488","488101","0.0-1.0-677.0","0","0","88387","","null","","","null","75","","","","","","","","","","","","","","","",""
"","ISI","","html-keyboard-response","489","489103","0.0-1.0-678.0","0","0","88387","","null","","","null","75","NaN","","","","","","","","","","","","","","",""
"","S2","","html-keyboard-response","490","489343","0.0-1.0-679.0","0","0","88387","","239","","","68","75","","d","2","75","training","adjacent","GF","7","6","M.jpg","N.jpg","0","0","1","",""
"","feedback","","html-keyboard-response","491","490345","0.0-1.0-681.0-0.0","0","0","88387","","null","","","null","75","","","","","","","","","","","","","","","",""
"","ITI","","html-keyboard-response","492","491347","0.0-1.0-684.0","0","0","88387","","null","","","null","75","","","","","","","","","","","","","","","NaN",""
"","S1","","html-keyboard-response","493","491598","0.0-1.0-686.0","0","0","88387","","null","","","null","76","","","","","","","","","","","","","","","",""
"","ISI","","html-keyboard-response","494","492600","0.0-1.0-687.0","0","0","88387","","null","","","null","76","NaN","","","","","","","","","","","","","","",""
"","S2","","html-keyboard-response","495","492852","0.0-1.0-688.0","0","0","88387","","null","","","null","76","","NaN","","","","","","","","","","","","","",""
"","response","","html-keyboard-response","496","492873","0.0-1.0-689.0-0.0","0","0","88387","","21","","","75","76","","","2","76","training","adjacent","BA","2","1","O.jpg","P.jpg","1","0","0","",""
"","feedback","","html-keyboard-response","497","493875","0.0-1.0-690.0-0.0","0","0","88387","","null","","","null","76","","","","","","","","","","","","","","","",""
"","time_out","","html-keyboard-response","498","495876","0.0-1.0-692.0-0.0","0","0","88387","","null","","","null","76","","","","","","","","","","","","","","","",""
"","ITI","","html-keyboard-response","499","496878","0.0-1.0-693.0","0","0","88387","","null","","","null","76","","","","","","","","","","","","","","","NaN",""
"","S1","","html-keyboard-response","500","497130","0.0-1.0-695.0","0","0","88387","","null","","","null","77","","","","","","","","","","","","","","","",""
"","ISI","","html-keyboard-response","501","498132","0.0-1.0-696.0","0","0","88387","","null","","","null","77","NaN","","","","","","","","","","","","","","",""
"","S2","","html-keyboard-response","502","498375","0.0-1.0-697.0","0","0","88387","","241","","","68","77","","d","2","77","training","adjacent","DE","4","5","L.jpg","R.jpg","0","1","0","",""
"","feedback","","html-keyboard-response","503","499378","0.0-1.0-699.0-0.0","0","0","88387","","null","","","null","77","","","","","","","","","","","","","","","",""
"","time_out","","html-keyboard-response","504","501380","0.0-1.0-701.0-0.0","0","0","88387","","null","","","null","77","","","","","","","","","","","","","","","",""
"","ITI","","html-keyboard-response","505","502382","0.0-1.0-702.0","0","0","88387","","null","","","null","77","","","","","","","","","","","","","","","NaN",""
"","S1","","html-keyboard-response","506","502634","0.0-1.0-704.0","0","0","88387","","null","","","null","78","","","","","","","","","","","","","","","",""
"","ISI","","html-keyboard-response","507","503636","0.0-1.0-705.0","0","0","88387","","null","","","null","78","NaN","","","","","","","","","","","","","","",""
"","S2","","html-keyboard-response","508","503883","0.0-1.0-706.0","0","0","88387","","246","","","75","78","","k","2","78","training","adjacent","CD","3","4","Q.jpg","L.jpg","1","1","1","",""
"","feedback","","html-keyboard-response","509","504885","0.0-1.0-708.0-0.0","0","0","88387","","null","","","null","78","","","","","","","","","","","","","","","",""
"","ITI","","html-keyboard-response","510","505888","0.0-1.0-711.0","0","0","88387","","null","","","null","78","","","","","","","","","","","","","","","NaN",""
"","S1","","html-keyboard-response","511","506140","0.0-1.0-713.0","0","0","88387","","null","","","null","79","","","","","","","","","","","","","","","",""
"","ISI","","html-keyboard-response","512","507142","0.0-1.0-714.0","0","0","88387","","null","","","null","79","NaN","","","","","","","","","","","","","","",""
"","S2","","html-keyboard-response","513","507383","0.0-1.0-715.0","0","0","88387","","240","","","75","79","","k","2","79","training","adjacent","BC","2","3","O.jpg","Q.jpg","1","1","1","",""
"","feedback","","html-keyboard-response","514","508385","0.0-1.0-717.0-0.0","0","0","88387","","null","","","null","79","","","","","","","","","","","","","","","",""
"","ITI","","html-keyboard-response","515","509387","0.0-1.0-720.0","0","0","88387","","null","","","null","79","","","","","","","","","","","","","","","NaN",""
"","S1","","html-keyboard-response","516","509638","0.0-1.0-722.0","0","0","88387","","null","","","null","80","","","","","","","","","","","","","","","",""
"","ISI","","html-keyboard-response","517","510640","0.0-1.0-723.0","0","0","88387","","null","","","null","80","NaN","","","","","","","","","","","","","","",""
"","S2","","html-keyboard-response","518","510892","0.0-1.0-724.0","0","0","88387","","null","","","null","80","","NaN","","","","","","","","","","","","","",""
"","response","","html-keyboard-response","519","510941","0.0-1.0-725.0-0.0","0","0","88387","","49","","","75","80","","","2","80","training","adjacent","ED","5","4","R.jpg","L.jpg","1","0","0","",""
"","feedback","","html-keyboard-response","520","511943","0.0-1.0-726.0-0.0","0","0","88387","","null","","","null","80","","","","","","","","","","","","","","","",""
"","time_out","","html-keyboard-response","521","513945","0.0-1.0-728.0-0.0","0","0","88387","","null","","","null","80","","","","","","","","","","","","","","","",""
"","ITI","","html-keyboard-response","522","514947","0.0-1.0-729.0","0","0","88387","","null","","","null","80","","","","","","","","","","","","","","","NaN",""
"","S1","","html-keyboard-response","523","515199","0.0-1.0-731.0","0","0","88387","","null","","","null","81","","","","","","","","","","","","","","","",""
"","ISI","","html-keyboard-response","524","516201","0.0-1.0-732.0","0","0","88387","","null","","","null","81","NaN","","","","","","","","","","","","","","",""
"","S2","","html-keyboard-response","525","516412","0.0-1.0-733.0","0","0","88387","","211","","","75","81","","k","2","81","training","adjacent","CD","3","4","Q.jpg","L.jpg","1","1","1","",""
"","feedback","","html-keyboard-response","526","517415","0.0-1.0-735.0-0.0","0","0","88387","","null","","","null","81","","","","","","","","","","","","","","","",""
"","ITI","","html-keyboard-response","527","518416","0.0-1.0-738.0","0","0","88387","","null","","","null","81","","","","","","","","","","","","","","","NaN",""
"","S1","","html-keyboard-response","528","518668","0.0-1.0-740.0","0","0","88387","","null","","","null","82","","","","","","","","","","","","","","","",""
"","ISI","","html-keyboard-response","529","519670","0.0-1.0-741.0","0","0","88387","","null","","","null","82","NaN","","","","","","","","","","","","","","",""
"","S2","","html-keyboard-response","530","519908","0.0-1.0-742.0","0","0","88387","","236","","","68","82","","d","2","82","training","adjacent","EF","5","6","R.jpg","N.jpg","0","1","0","",""
"","feedback","","html-keyboard-response","531","520910","0.0-1.0-744.0-0.0","0","0","88387","","null","","","null","82","","","","","","","","","","","","","","","",""
"","time_out","","html-keyboard-response","532","522912","0.0-1.0-746.0-0.0","0","0","88387","","null","","","null","82","","","","","","","","","","","","","","","",""
"","ITI","","html-keyboard-response","533","523914","0.0-1.0-747.0","0","0","88387","","null","","","null","82","","","","","","","","","","","","","","","NaN",""
"","S1","","html-keyboard-response","534","524166","0.0-1.0-749.0","0","0","88387","","null","","","null","83","","","","","","","","","","","","","","","",""
"","ISI","","html-keyboard-response","535","525178","0.0-1.0-750.0","0","0","88387","","null","","","null","83","NaN","","","","","","","","","","","","","","",""
"","S2","","html-keyboard-response","536","525398","0.0-1.0-751.0","0","0","88387","","218","","","75","83","","k","2","83","training","adjacent","FG","6","7","N.jpg","M.jpg","1","1","1","",""
"","feedback","","html-keyboard-response","537","526401","0.0-1.0-753.0-0.0","0","0","88387","","null","","","null","83","","","","","","","","","","","","","","","",""
"","ITI","","html-keyboard-response","538","527402","0.0-1.0-756.0","0","0","88387","","null","","","null","83","","","","","","","","","","","","","","","NaN",""
"","S1","","html-keyboard-response","539","527654","0.0-1.0-758.0","0","0","88387","","null","","","null","84","","","","","","","","","","","","","","","",""
"","ISI","","html-keyboard-response","540","528657","0.0-1.0-759.0","0","0","88387","","null","","","null","84","NaN","","","","","","","","","","","","","","",""
"","S2","","html-keyboard-response","541","528909","0.0-1.0-760.0","0","0","88387","","null","","","null","84","","NaN","","","","","","","","","","","","","",""
"","response","","html-keyboard-response","542","528915","0.0-1.0-761.0-0.0","0","0","88387","","5","","","68","84","","","2","84","training","adjacent","AB","1","2","P.jpg","O.jpg","0","1","0","",""
"","feedback","","html-keyboard-response","543","529917","0.0-1.0-762.0-0.0","0","0","88387","","null","","","null","84","","","","","","","","","","","","","","","",""
"","time_out","","html-keyboard-response","544","531919","0.0-1.0-764.0-0.0","0","0","88387","","null","","","null","84","","","","","","","","","","","","","","","",""
"","ITI","","html-keyboard-response","545","532920","0.0-1.0-765.0","0","0","88387","","null","","","null","84","","","","","","","","","","","","","","","NaN",""
"","S1","","html-keyboard-response","546","533172","0.0-1.0-767.0","0","0","88387","","null","","","null","85","","","","","","","","","","","","","","","",""
"","ISI","","html-keyboard-response","547","534174","0.0-1.0-768.0","0","0","88387","","null","","","null","85","NaN","","","","","","","","","","","","","","",""
"","S2","","html-keyboard-response","548","534411","0.0-1.0-769.0","0","0","88387","","237","","","75","85","","k","2","85","training","adjacent","AB","1","2","P.jpg","O.jpg","1","1","1","",""
"","feedback","","html-keyboard-response","549","535413","0.0-1.0-771.0-0.0","0","0","88387","","null","","","null","85","","","","","","","","","","","","","","","",""
"","ITI","","html-keyboard-response","550","536415","0.0-1.0-774.0","0","0","88387","","null","","","null","85","","","","","","","","","","","","","","","NaN",""
"","S1","","html-keyboard-response","551","536668","0.0-1.0-776.0","0","0","88387","","null","","","null","86","","","","","","","","","","","","","","","",""
"","ISI","","html-keyboard-response","552","537670","0.0-1.0-777.0","0","0","88387","","null","","","null","86","NaN","","","","","","","","","","","","","","",""
"","S2","","html-keyboard-response","553","537922","0.0-1.0-778.0","0","0","88387","","null","","","null","86","","NaN","","","","","","","","","","","","","",""
"","response","","html-keyboard-response","554","537947","0.0-1.0-779.0-0.0","0","0","88387","","25","","","75","86","","","2","86","training","adjacent","BC","2","3","O.jpg","Q.jpg","1","1","1","",""
"","feedback","","html-keyboard-response","555","538950","0.0-1.0-780.0-0.0","0","0","88387","","null","","","null","86","","","","","","","","","","","","","","","",""
"","ITI","","html-keyboard-response","556","539951","0.0-1.0-783.0","0","0","88387","","null","","","null","86","","","","","","","","","","","","","","","NaN",""
"","S1","","html-keyboard-response","557","540204","0.0-1.0-785.0","0","0","88387","","null","","","null","87","","","","","","","","","","","","","","","",""
"","ISI","","html-keyboard-response","558","541205","0.0-1.0-786.0","0","0","88387","","null","","","null","87","NaN","","","","","","","","","","","","","","",""
"","S2","","html-keyboard-response","559","541458","0.0-1.0-787.0","0","0","88387","","null","","","null","87","","NaN","","","","","","","","","","","","","",""
"","response","","html-keyboard-response","560","541494","0.0-1.0-788.0-0.0","0","0","88387","","36","","","75","87","","","2","87","training","adjacent","DE","4","5","L.jpg","R.jpg","1","1","1","",""
"","feedback","","html-keyboard-response","561","542496","0.0-1.0-789.0-0.0","0","0","88387","","null","","","null","87","","","","","","","","","","","","","","","",""
"","ITI","","html-keyboard-response","562","543499","0.0-1.0-792.0","0","0","88387","","null","","","null","87","","","","","","","","","","","","","","","NaN",""
"","S1","","html-keyboard-response","563","543751","0.0-1.0-794.0","0","0","88387","","null","","","null","88","","","","","","","","","","","","","","","",""
"","ISI","","html-keyboard-response","564","544753","0.0-1.0-795.0","0","0","88387","","null","","","null","88","NaN","","","","","","","","","","","","","","",""
"","S2","","html-keyboard-response","565","545004","0.0-1.0-796.0","0","0","88387","","null","","","null","88","","NaN","","","","","","","","","","","","","",""
"","response","","html-keyboard-response","566","545040","0.0-1.0-797.0-0.0","0","0","88387","","35","","","68","88","","","2","88","training","adjacent","AB","1","2","P.jpg","O.jpg","0","1","0","",""
"","feedback","","html-keyboard-response","567","546043","0.0-1.0-798.0-0.0","0","0","88387","","null","","","null","88","","","","","","","","","","","","","","","",""
"","time_out","","html-keyboard-response","568","548045","0.0-1.0-800.0-0.0","0","0","88387","","null","","","null","88","","","","","","","","","","","","","","","",""
"","ITI","","html-keyboard-response","569","549046","0.0-1.0-801.0","0","0","88387","","null","","","null","88","","","","","","","","","","","","","","","NaN",""
"","S1","","html-keyboard-response","570","549298","0.0-1.0-803.0","0","0","88387","","null","","","null","89","","","","","","","","","","","","","","","",""
"","ISI","","html-keyboard-response","571","550299","0.0-1.0-804.0","0","0","88387","","19","","","75","89","k","","","","","","","","","","","","","","",""
"","S2","","html-keyboard-response","572","550531","0.0-1.0-805.0","0","0","88387","","231","","","75","89","","k","2","89","training","adjacent","DE","4","5","L.jpg","R.jpg","1","1","1","",""
"","feedback","","html-keyboard-response","573","551533","0.0-1.0-807.0-0.0","0","0","88387","","null","","","null","89","","","","","","","","","","","","","","","",""
"","ITI","","html-keyboard-response","574","552535","0.0-1.0-810.0","0","0","88387","","null","","","null","89","","","","","","","","","","","","","","","NaN",""
"","S1","","html-keyboard-response","575","552786","0.0-1.0-812.0","0","0","88387","","null","","","null","90","","","","","","","","","","","","","","","",""
"","ISI","","html-keyboard-response","576","553789","0.0-1.0-813.0","0","0","88387","","null","","","null","90","NaN","","","","","","","","","","","","","","",""
"","S2","","html-keyboard-response","577","554026","0.0-1.0-814.0","0","0","88387","","236","","","75","90","","k","2","90","training","adjacent","EF","5","6","R.jpg","N.jpg","1","1","1","",""
"","feedback","","html-keyboard-response","578","555028","0.0-1.0-816.0-0.0","0","0","88387","","null","","","null","90","","","","","","","","","","","","","","","",""
"","ITI","","html-keyboard-response","579","556032","0.0-1.0-819.0","0","0","88387","","null","","","null","90","","","","","","","","","","","","","","","NaN",""
"","S1","","html-keyboard-response","580","556283","0.0-1.0-821.0","0","0","88387","","null","","","null","91","","","","","","","","","","","","","","","",""
"","ISI","","html-keyboard-response","581","557285","0.0-1.0-822.0","0","0","88387","","null","","","null","91","NaN","","","","","","","","","","","","","","",""
