"success","ttype","start_time","trial_type","trial_index","time_elapsed","internal_node_id","warning","missed_checkup","PID","view_history","rt","responses","repeat_instructions","key_press","index","keypress_isi","keypress_S2","block","trial_num","phase","group_type","pair_type","S1_stim","S2_stim","S1_img","S2_img","S1_chosen","S1_higher","accuracy","keypress_iti","total_bonus_tally"
"true","full_screen","d03082023hr1941","fullscreen","0","3298","0.0-0.0","0","0","13556","","","","","","","","","","","","","","","","","","","","","",""
"","instructions","","instructions","1","46549","0.0-1.0-0.0-0.0","0","0","13556","[{""page_index"":0,""viewing_time"":5355},{""page_index"":1,""viewing_time"":23520},{""page_index"":2,""viewing_time"":12457},{""page_index"":3,""viewing_time"":1917}]","43250","","","","","","","","","","","","","","","","","","","",""
"","comprehension_check","","survey-multi-choice","2","67226","0.0-1.0-0.0-1.0","0","0","13556","","20674","{""Q0"":""True"",""Q1"":""D"",""Q2"":""Only when the screen 'MAKE A CHOICE' is shown"",""Q3"":""Green mark"",""Q4"":""either D or K""}","1","","","","","","","","","","","","","","","","","",""
"","missed_instruction_checkup","","html-keyboard-response","3","69837","0.0-1.0-0.0-2.0-0.0","0","1","13556","","2609","","","32","","","","","","","","","","","","","","","","",""
"","instructions","","instructions","4","102521","0.0-1.0-0.1-0.1","0","0","13556","[{""page_index"":0,""viewing_time"":3284},{""page_index"":1,""viewing_time"":19851},{""page_index"":2,""viewing_time"":8462},{""page_index"":3,""viewing_time"":1086}]","32683","","","","","","","","","","","","","","","","","","","",""
"","comprehension_check","","survey-multi-choice","5","118045","0.0-1.0-0.1-1.1","0","0","13556","","15520","{""Q0"":""True"",""Q1"":""D"",""Q2"":""Once the second image appears and while the screen 'MAKE A CHOICE' is shown"",""Q3"":""Green mark"",""Q4"":""either D or K""}","0","","","","","","","","","","","","","","","","","",""
"","start_exp","","html-keyboard-response","6","199393","0.0-1.0-1.0","0","0","13556","","81347","","","32","","","","","","","","","","","","","","","","",""
"","S1","","html-keyboard-response","7","199646","0.0-1.0-2.0","0","0","13556","","null","","","null","0","","","","","","","","","","","","","","","",""
"","ISI","","html-keyboard-response","8","199798","0.0-1.0-3.0","0","0","13556","","null","","","null","0","NaN","","","","","","","","","","","","","","",""
"","S2","","html-keyboard-response","9","200051","0.0-1.0-4.0","0","0","13556","","null","","","null","0","","NaN","","","","","","","","","","","","","",""
"","response","","html-keyboard-response","10","201804","0.0-1.0-5.0-0.0","0","0","13556","","null","","","null","0","","","1","0","training","adjacent","BC","2","3","N.jpg","R.jpg","NaN","1","0","",""
"","too_slow_prompt","","html-keyboard-response","11","202806","0.0-1.0-7.0-0.0","1","0","13556","","null","","","null","","","","","","","","","","","","","","","","",""
"","time_out","","html-keyboard-response","12","204808","0.0-1.0-8.0-0.0","0","0","13556","","null","","","null","0","","","","","","","","","","","","","","","",""
"","ITI","","html-keyboard-response","13","205810","0.0-1.0-9.0","0","0","13556","","null","","","null","0","","","","","","","","","","","","","","","NaN",""
"","S1","","html-keyboard-response","14","206062","0.0-1.0-11.0","0","0","13556","","null","","","null","1","","","","","","","","","","","","","","","",""
"","ISI","","html-keyboard-response","15","206215","0.0-1.0-12.0","0","0","13556","","null","","","null","1","NaN","","","","","","","","","","","","","","",""
"","S2","","html-keyboard-response","16","206467","0.0-1.0-13.0","0","0","13556","","null","","","null","1","","NaN","","","","","","","","","","","","","",""
"","response","","html-keyboard-response","17","207003","0.0-1.0-14.0-0.0","0","0","13556","","535","","","68","1","","","1","1","training","adjacent","BA","2","1","N.jpg","O.jpg","1","0","0","",""
"","feedback","","html-keyboard-response","18","208006","0.0-1.0-15.0-0.0","0","0","13556","","null","","","null","1","","","","","","","","","","","","","","","",""
"","time_out","","html-keyboard-response","19","210008","0.0-1.0-17.0-0.0","0","0","13556","","null","","","null","1","","","","","","","","","","","","","","","",""
"","ITI","","html-keyboard-response","20","211009","0.0-1.0-18.0","0","0","13556","","null","","","null","1","","","","","","","","","","","","","","","NaN",""
"","S1","","html-keyboard-response","21","211261","0.0-1.0-20.0","0","0","13556","","null","","","null","2","","","","","","","","","","","","","","","",""
"","ISI","","html-keyboard-response","22","211413","0.0-1.0-21.0","0","0","13556","","null","","","null","2","NaN","","","","","","","","","","","","","","",""
"","S2","","html-keyboard-response","23","211665","0.0-1.0-22.0","0","0","13556","","null","","","null","2","","NaN","","","","","","","","","","","","","",""
"","response","","html-keyboard-response","24","212546","0.0-1.0-23.0-0.0","0","0","13556","","880","","","75","2","","","1","2","training","adjacent","GF","7","6","M.jpg","P.jpg","0","0","1","",""
"","feedback","","html-keyboard-response","25","213548","0.0-1.0-24.0-0.0","0","0","13556","","null","","","null","2","","","","","","","","","","","","","","","",""
"","ITI","","html-keyboard-response","26","214550","0.0-1.0-27.0","0","0","13556","","null","","","null","2","","","","","","","","","","","","","","","NaN",""
"","S1","","html-keyboard-response","27","214802","0.0-1.0-29.0","0","0","13556","","null","","","null","3","","","","","","","","","","","","","","","",""
"","ISI","","html-keyboard-response","28","214954","0.0-1.0-30.0","0","0","13556","","null","","","null","3","NaN","","","","","","","","","","","","","","",""
"","S2","","html-keyboard-response","29","215206","0.0-1.0-31.0","0","0","13556","","null","","","null","3","","NaN","","","","","","","","","","","","","",""
"","response","","html-keyboard-response","30","215755","0.0-1.0-32.0-0.0","0","0","13556","","547","","","68","3","","","1","3","training","adjacent","DC","4","3","L.jpg","R.jpg","1","0","0","",""
"","feedback","","html-keyboard-response","31","216756","0.0-1.0-33.0-0.0","0","0","13556","","null","","","null","3","","","","","","","","","","","","","","","",""
"","time_out","","html-keyboard-response","32","218758","0.0-1.0-35.0-0.0","0","0","13556","","null","","","null","3","","","","","","","","","","","","","","","",""
"","ITI","","html-keyboard-response","33","219760","0.0-1.0-36.0","0","0","13556","","null","","","null","3","","","","","","","","","","","","","","","NaN",""
"","S1","","html-keyboard-response","34","220012","0.0-1.0-38.0","0","0","13556","","null","","","null","4","","","","","","","","","","","","","","","",""
"","ISI","","html-keyboard-response","35","220163","0.0-1.0-39.0","0","0","13556","","null","","","null","4","NaN","","","","","","","","","","","","","","",""
"","S2","","html-keyboard-response","36","220416","0.0-1.0-40.0","0","0","13556","","null","","","null","4","","NaN","","","","","","","","","","","","","",""
"","response","","html-keyboard-response","37","221134","0.0-1.0-41.0-0.0","0","0","13556","","717","","","68","4","","","1","4","training","adjacent","FE","6","5","P.jpg","Q.jpg","1","0","0","",""
"","feedback","","html-keyboard-response","38","222136","0.0-1.0-42.0-0.0","0","0","13556","","null","","","null","4","","","","","","","","","","","","","","","",""
"","time_out","","html-keyboard-response","39","224138","0.0-1.0-44.0-0.0","0","0","13556","","null","","","null","4","","","","","","","","","","","","","","","",""
"","ITI","","html-keyboard-response","40","225140","0.0-1.0-45.0","0","0","13556","","null","","","null","4","","","","","","","","","","","","","","","NaN",""
"","S1","","html-keyboard-response","41","225392","0.0-1.0-47.0","0","0","13556","","null","","","null","5","","","","","","","","","","","","","","","",""
"","ISI","","html-keyboard-response","42","225544","0.0-1.0-48.0","0","0","13556","","null","","","null","5","NaN","","","","","","","","","","","","","","",""
"","S2","","html-keyboard-response","43","225796","0.0-1.0-49.0","0","0","13556","","null","","","null","5","","NaN","","","","","","","","","","","","","",""
"","response","","html-keyboard-response","44","226197","0.0-1.0-50.0-0.0","0","0","13556","","400","","","75","5","","","1","5","training","adjacent","DC","4","3","L.jpg","R.jpg","0","0","1","",""
"","feedback","","html-keyboard-response","45","227199","0.0-1.0-51.0-0.0","0","0","13556","","null","","","null","5","","","","","","","","","","","","","","","",""
"","ITI","","html-keyboard-response","46","228201","0.0-1.0-54.0","0","0","13556","","null","","","null","5","","","","","","","","","","","","","","","NaN",""
"","S1","","html-keyboard-response","47","228453","0.0-1.0-56.0","0","0","13556","","null","","","null","6","","","","","","","","","","","","","","","",""
"","ISI","","html-keyboard-response","48","228605","0.0-1.0-57.0","0","0","13556","","null","","","null","6","NaN","","","","","","","","","","","","","","",""
"","S2","","html-keyboard-response","49","228857","0.0-1.0-58.0","0","0","13556","","null","","","null","6","","NaN","","","","","","","","","","","","","",""
"","response","","html-keyboard-response","50","229638","0.0-1.0-59.0-0.0","0","0","13556","","780","","","68","6","","","1","6","training","adjacent","FG","6","7","P.jpg","M.jpg","1","1","1","",""
"","feedback","","html-keyboard-response","51","230641","0.0-1.0-60.0-0.0","0","0","13556","","null","","","null","6","","","","","","","","","","","","","","","",""
"","ITI","","html-keyboard-response","52","231644","0.0-1.0-63.0","0","0","13556","","null","","","null","6","","","","","","","","","","","","","","","NaN",""
"","S1","","html-keyboard-response","53","231895","0.0-1.0-65.0","0","0","13556","","null","","","null","7","","","","","","","","","","","","","","","",""
"","ISI","","html-keyboard-response","54","232047","0.0-1.0-66.0","0","0","13556","","null","","","null","7","NaN","","","","","","","","","","","","","","",""
"","S2","","html-keyboard-response","55","232300","0.0-1.0-67.0","0","0","13556","","null","","","null","7","","NaN","","","","","","","","","","","","","",""
"","response","","html-keyboard-response","56","232985","0.0-1.0-68.0-0.0","0","0","13556","","682","","","68","7","","","1","7","training","adjacent","FG","6","7","P.jpg","M.jpg","1","1","1","",""
"","feedback","","html-keyboard-response","57","233988","0.0-1.0-69.0-0.0","0","0","13556","","null","","","null","7","","","","","","","","","","","","","","","",""
"","ITI","","html-keyboard-response","58","234990","0.0-1.0-72.0","0","0","13556","","null","","","null","7","","","","","","","","","","","","","","","NaN",""
"","S1","","html-keyboard-response","59","235242","0.0-1.0-74.0","0","0","13556","","null","","","null","8","","","","","","","","","","","","","","","",""
"","ISI","","html-keyboard-response","60","235393","0.0-1.0-75.0","0","0","13556","","null","","","null","8","NaN","","","","","","","","","","","","","","",""
"","S2","","html-keyboard-response","61","235646","0.0-1.0-76.0","0","0","13556","","null","","","null","8","","NaN","","","","","","","","","","","","","",""
"","response","","html-keyboard-response","62","236259","0.0-1.0-77.0-0.0","0","0","13556","","612","","","68","8","","","1","8","training","adjacent","CB","3","2","R.jpg","N.jpg","1","0","0","",""
"","feedback","","html-keyboard-response","63","237262","0.0-1.0-78.0-0.0","0","0","13556","","null","","","null","8","","","","","","","","","","","","","","","",""
"","time_out","","html-keyboard-response","64","239263","0.0-1.0-80.0-0.0","0","0","13556","","null","","","null","8","","","","","","","","","","","","","","","",""
"","ITI","","html-keyboard-response","65","240265","0.0-1.0-81.0","0","0","13556","","null","","","null","8","","","","","","","","","","","","","","","NaN",""
"","S1","","html-keyboard-response","66","240516","0.0-1.0-83.0","0","0","13556","","null","","","null","9","","","","","","","","","","","","","","","",""
"","ISI","","html-keyboard-response","67","240669","0.0-1.0-84.0","0","0","13556","","null","","","null","9","NaN","","","","","","","","","","","","","","",""
"","S2","","html-keyboard-response","68","240921","0.0-1.0-85.0","0","0","13556","","null","","","null","9","","NaN","","","","","","","","","","","","","",""
"","response","","html-keyboard-response","69","241805","0.0-1.0-86.0-0.0","0","0","13556","","882","","","75","9","","","1","9","training","adjacent","DE","4","5","L.jpg","Q.jpg","0","1","0","",""
"","feedback","","html-keyboard-response","70","242807","0.0-1.0-87.0-0.0","0","0","13556","","null","","","null","9","","","","","","","","","","","","","","","",""
"","time_out","","html-keyboard-response","71","244809","0.0-1.0-89.0-0.0","0","0","13556","","null","","","null","9","","","","","","","","","","","","","","","",""
"","ITI","","html-keyboard-response","72","245811","0.0-1.0-90.0","0","0","13556","","null","","","null","9","","","","","","","","","","","","","","","NaN",""
"","S1","","html-keyboard-response","73","246064","0.0-1.0-92.0","0","0","13556","","null","","","null","10","","","","","","","","","","","","","","","",""
"","ISI","","html-keyboard-response","74","246216","0.0-1.0-93.0","0","0","13556","","null","","","null","10","NaN","","","","","","","","","","","","","","",""
"","S2","","html-keyboard-response","75","246468","0.0-1.0-94.0","0","0","13556","","null","","","null","10","","NaN","","","","","","","","","","","","","",""
"","response","","html-keyboard-response","76","246935","0.0-1.0-95.0-0.0","0","0","13556","","466","","","75","10","","","1","10","training","adjacent","DC","4","3","L.jpg","R.jpg","0","0","1","",""
"","feedback","","html-keyboard-response","77","247937","0.0-1.0-96.0-0.0","0","0","13556","","null","","","null","10","","","","","","","","","","","","","","","",""
"","ITI","","html-keyboard-response","78","248938","0.0-1.0-99.0","0","0","13556","","null","","","null","10","","","","","","","","","","","","","","","NaN",""
"","S1","","html-keyboard-response","79","249191","0.0-1.0-101.0","0","0","13556","","null","","","null","11","","","","","","","","","","","","","","","",""
"","ISI","","html-keyboard-response","80","249343","0.0-1.0-102.0","0","0","13556","","null","","","null","11","NaN","","","","","","","","","","","","","","",""
"","S2","","html-keyboard-response","81","249595","0.0-1.0-103.0","0","0","13556","","null","","","null","11","","NaN","","","","","","","","","","","","","",""
"","response","","html-keyboard-response","82","250254","0.0-1.0-104.0-0.0","0","0","13556","","658","","","68","11","","","1","11","training","adjacent","EF","5","6","Q.jpg","P.jpg","1","1","1","",""
"","feedback","","html-keyboard-response","83","251256","0.0-1.0-105.0-0.0","0","0","13556","","null","","","null","11","","","","","","","","","","","","","","","",""
"","ITI","","html-keyboard-response","84","252258","0.0-1.0-108.0","0","0","13556","","null","","","null","11","","","","","","","","","","","","","","","NaN",""
"","S1","","html-keyboard-response","85","252510","0.0-1.0-110.0","0","0","13556","","null","","","null","12","","","","","","","","","","","","","","","",""
"","ISI","","html-keyboard-response","86","252662","0.0-1.0-111.0","0","0","13556","","null","","","null","12","NaN","","","","","","","","","","","","","","",""
"","S2","","html-keyboard-response","87","252915","0.0-1.0-112.0","0","0","13556","","null","","","null","12","","NaN","","","","","","","","","","","","","",""
"","response","","html-keyboard-response","88","253499","0.0-1.0-113.0-0.0","0","0","13556","","581","","","68","12","","","1","12","training","adjacent","ED","5","4","Q.jpg","L.jpg","1","0","0","",""
"","feedback","","html-keyboard-response","89","254501","0.0-1.0-114.0-0.0","0","0","13556","","null","","","null","12","","","","","","","","","","","","","","","",""
"","time_out","","html-keyboard-response","90","256503","0.0-1.0-116.0-0.0","0","0","13556","","null","","","null","12","","","","","","","","","","","","","","","",""
"","ITI","","html-keyboard-response","91","257505","0.0-1.0-117.0","0","0","13556","","null","","","null","12","","","","","","","","","","","","","","","NaN",""
"","S1","","html-keyboard-response","92","257757","0.0-1.0-119.0","0","0","13556","","null","","","null","13","","","","","","","","","","","","","","","",""
"","ISI","","html-keyboard-response","93","257909","0.0-1.0-120.0","0","0","13556","","null","","","null","13","NaN","","","","","","","","","","","","","","",""
"","S2","","html-keyboard-response","94","258162","0.0-1.0-121.0","0","0","13556","","null","","","null","13","","NaN","","","","","","","","","","","","","",""
"","response","","html-keyboard-response","95","258739","0.0-1.0-122.0-0.0","0","0","13556","","576","","","75","13","","","1","13","training","adjacent","BC","2","3","N.jpg","R.jpg","0","1","0","",""
"","feedback","","html-keyboard-response","96","259742","0.0-1.0-123.0-0.0","0","0","13556","","null","","","null","13","","","","","","","","","","","","","","","",""
"","time_out","","html-keyboard-response","97","261743","0.0-1.0-125.0-0.0","0","0","13556","","null","","","null","13","","","","","","","","","","","","","","","",""
"","ITI","","html-keyboard-response","98","262745","0.0-1.0-126.0","0","0","13556","","null","","","null","13","","","","","","","","","","","","","","","NaN",""
"","S1","","html-keyboard-response","99","262997","0.0-1.0-128.0","0","0","13556","","null","","","null","14","","","","","","","","","","","","","","","",""
"","ISI","","html-keyboard-response","100","263149","0.0-1.0-129.0","0","0","13556","","null","","","null","14","NaN","","","","","","","","","","","","","","",""
"","S2","","html-keyboard-response","101","263401","0.0-1.0-130.0","0","0","13556","","null","","","null","14","","NaN","","","","","","","","","","","","","",""
"","response","","html-keyboard-response","102","263757","0.0-1.0-131.0-0.0","0","0","13556","","355","","","75","14","","","1","14","training","adjacent","AB","1","2","O.jpg","N.jpg","0","1","0","",""
"","feedback","","html-keyboard-response","103","264758","0.0-1.0-132.0-0.0","0","0","13556","","null","","","null","14","","","","","","","","","","","","","","","",""
"","time_out","","html-keyboard-response","104","266761","0.0-1.0-134.0-0.0","0","0","13556","","null","","","null","14","","","","","","","","","","","","","","","",""
"","ITI","","html-keyboard-response","105","267762","0.0-1.0-135.0","0","0","13556","","null","","","null","14","","","","","","","","","","","","","","","NaN",""
"","S1","","html-keyboard-response","106","268014","0.0-1.0-137.0","0","0","13556","","null","","","null","15","","","","","","","","","","","","","","","",""
"","ISI","","html-keyboard-response","107","268166","0.0-1.0-138.0","0","0","13556","","null","","","null","15","NaN","","","","","","","","","","","","","","",""
"","S2","","html-keyboard-response","108","268418","0.0-1.0-139.0","0","0","13556","","null","","","null","15","","NaN","","","","","","","","","","","","","",""
"","response","","html-keyboard-response","109","268928","0.0-1.0-140.0-0.0","0","0","13556","","509","","","75","15","","","1","15","training","adjacent","DC","4","3","L.jpg","R.jpg","0","0","1","",""
"","feedback","","html-keyboard-response","110","269932","0.0-1.0-141.0-0.0","0","0","13556","","null","","","null","15","","","","","","","","","","","","","","","",""
"","ITI","","html-keyboard-response","111","270934","0.0-1.0-144.0","0","0","13556","","null","","","null","15","","","","","","","","","","","","","","","NaN",""
"","S1","","html-keyboard-response","112","271185","0.0-1.0-146.0","0","0","13556","","null","","","null","16","","","","","","","","","","","","","","","",""
"","ISI","","html-keyboard-response","113","271337","0.0-1.0-147.0","0","0","13556","","null","","","null","16","NaN","","","","","","","","","","","","","","",""
"","S2","","html-keyboard-response","114","271590","0.0-1.0-148.0","0","0","13556","","null","","","null","16","","NaN","","","","","","","","","","","","","",""
"","response","","html-keyboard-response","115","272325","0.0-1.0-149.0-0.0","0","0","13556","","734","","","68","16","","","1","16","training","adjacent","FE","6","5","P.jpg","Q.jpg","1","0","0","",""
"","feedback","","html-keyboard-response","116","273327","0.0-1.0-150.0-0.0","0","0","13556","","null","","","null","16","","","","","","","","","","","","","","","",""
"","time_out","","html-keyboard-response","117","275329","0.0-1.0-152.0-0.0","0","0","13556","","null","","","null","16","","","","","","","","","","","","","","","",""
"","ITI","","html-keyboard-response","118","276331","0.0-1.0-153.0","0","0","13556","","null","","","null","16","","","","","","","","","","","","","","","NaN",""
"","S1","","html-keyboard-response","119","276583","0.0-1.0-155.0","0","0","13556","","null","","","null","17","","","","","","","","","","","","","","","",""
"","ISI","","html-keyboard-response","120","276735","0.0-1.0-156.0","0","0","13556","","null","","","null","17","NaN","","","","","","","","","","","","","","",""
"","S2","","html-keyboard-response","121","276986","0.0-1.0-157.0","0","0","13556","","null","","","null","17","","NaN","","","","","","","","","","","","","",""
"","response","","html-keyboard-response","122","277600","0.0-1.0-158.0-0.0","0","0","13556","","612","","","68","17","","","1","17","training","adjacent","CD","3","4","R.jpg","L.jpg","1","1","1","",""
"","feedback","","html-keyboard-response","123","278602","0.0-1.0-159.0-0.0","0","0","13556","","null","","","null","17","","","","","","","","","","","","","","","",""
"","ITI","","html-keyboard-response","124","279604","0.0-1.0-162.0","0","0","13556","","null","","","null","17","","","","","","","","","","","","","","","NaN",""
"","S1","","html-keyboard-response","125","279856","0.0-1.0-164.0","0","0","13556","","null","","","null","18","","","","","","","","","","","","","","","",""
"","ISI","","html-keyboard-response","126","280008","0.0-1.0-165.0","0","0","13556","","null","","","null","18","NaN","","","","","","","","","","","","","","",""
"","S2","","html-keyboard-response","127","280260","0.0-1.0-166.0","0","0","13556","","null","","","null","18","","NaN","","","","","","","","","","","","","",""
"","response","","html-keyboard-response","128","282011","0.0-1.0-167.0-0.0","0","0","13556","","null","","","null","18","","","1","18","training","adjacent","BA","2","1","N.jpg","O.jpg","NaN","0","0","",""
"","too_slow_prompt","","html-keyboard-response","129","283013","0.0-1.0-169.0-0.0","1","0","13556","","null","","","null","","","","","","","","","","","","","","","","",""
"","time_out","","html-keyboard-response","130","285014","0.0-1.0-170.0-0.0","0","0","13556","","null","","","null","18","","","","","","","","","","","","","","","",""
"","ITI","","html-keyboard-response","131","286017","0.0-1.0-171.0","0","0","13556","","null","","","null","18","","","","","","","","","","","","","","","NaN",""
"","S1","","html-keyboard-response","132","286269","0.0-1.0-173.0","0","0","13556","","null","","","null","19","","","","","","","","","","","","","","","",""
"","ISI","","html-keyboard-response","133","286421","0.0-1.0-174.0","0","0","13556","","null","","","null","19","NaN","","","","","","","","","","","","","","",""
"","S2","","html-keyboard-response","134","286672","0.0-1.0-175.0","0","0","13556","","null","","","null","19","","NaN","","","","","","","","","","","","","",""
"","response","","html-keyboard-response","135","287747","0.0-1.0-176.0-0.0","0","0","13556","","1073","","","75","19","","","1","19","training","adjacent","DE","4","5","L.jpg","Q.jpg","0","1","0","",""
"","feedback","","html-keyboard-response","136","288749","0.0-1.0-177.0-0.0","0","0","13556","","null","","","null","19","","","","","","","","","","","","","","","",""
"","time_out","","html-keyboard-response","137","290751","0.0-1.0-179.0-0.0","0","0","13556","","null","","","null","19","","","","","","","","","","","","","","","",""
"","ITI","","html-keyboard-response","138","291754","0.0-1.0-180.0","0","0","13556","","null","","","null","19","","","","","","","","","","","","","","","NaN",""
"","S1","","html-keyboard-response","139","292006","0.0-1.0-182.0","0","0","13556","","null","","","null","20","","","","","","","","","","","","","","","",""
"","ISI","","html-keyboard-response","140","292158","0.0-1.0-183.0","0","0","13556","","null","","","null","20","NaN","","","","","","","","","","","","","","",""
"","S2","","html-keyboard-response","141","292411","0.0-1.0-184.0","0","0","13556","","null","","","null","20","","NaN","","","","","","","","","","","","","",""
"","response","","html-keyboard-response","142","293277","0.0-1.0-185.0-0.0","0","0","13556","","865","","","75","20","","","1","20","training","adjacent","DE","4","5","L.jpg","Q.jpg","0","1","0","",""
"","feedback","","html-keyboard-response","143","294279","0.0-1.0-186.0-0.0","0","0","13556","","null","","","null","20","","","","","","","","","","","","","","","",""
"","time_out","","html-keyboard-response","144","296282","0.0-1.0-188.0-0.0","0","0","13556","","null","","","null","20","","","","","","","","","","","","","","","",""
"","ITI","","html-keyboard-response","145","297283","0.0-1.0-189.0","0","0","13556","","null","","","null","20","","","","","","","","","","","","","","","NaN",""
"","S1","","html-keyboard-response","146","297535","0.0-1.0-191.0","0","0","13556","","null","","","null","21","","","","","","","","","","","","","","","",""
"","ISI","","html-keyboard-response","147","297687","0.0-1.0-192.0","0","0","13556","","null","","","null","21","NaN","","","","","","","","","","","","","","",""
"","S2","","html-keyboard-response","148","297939","0.0-1.0-193.0","0","0","13556","","null","","","null","21","","NaN","","","","","","","","","","","","","",""
"","response","","html-keyboard-response","149","298316","0.0-1.0-194.0-0.0","0","0","13556","","376","","","75","21","","","1","21","training","adjacent","AB","1","2","O.jpg","N.jpg","0","1","0","",""
"","feedback","","html-keyboard-response","150","299318","0.0-1.0-195.0-0.0","0","0","13556","","null","","","null","21","","","","","","","","","","","","","","","",""
"","time_out","","html-keyboard-response","151","301319","0.0-1.0-197.0-0.0","0","0","13556","","null","","","null","21","","","","","","","","","","","","","","","",""
"","ITI","","html-keyboard-response","152","302321","0.0-1.0-198.0","0","0","13556","","null","","","null","21","","","","","","","","","","","","","","","NaN",""
"","S1","","html-keyboard-response","153","302574","0.0-1.0-200.0","0","0","13556","","null","","","null","22","","","","","","","","","","","","","","","",""
"","ISI","","html-keyboard-response","154","302725","0.0-1.0-201.0","0","0","13556","","null","","","null","22","NaN","","","","","","","","","","","","","","",""
"","S2","","html-keyboard-response","155","302977","0.0-1.0-202.0","0","0","13556","","null","","","null","22","","NaN","","","","","","","","","","","","","",""
"","response","","html-keyboard-response","156","303477","0.0-1.0-203.0-0.0","0","0","13556","","499","","","68","22","","","1","22","training","adjacent","CD","3","4","R.jpg","L.jpg","1","1","1","",""
"","feedback","","html-keyboard-response","157","304479","0.0-1.0-204.0-0.0","0","0","13556","","null","","","null","22","","","","","","","","","","","","","","","",""
"","ITI","","html-keyboard-response","158","305480","0.0-1.0-207.0","0","0","13556","","null","","","null","22","","","","","","","","","","","","","","","NaN",""
"","S1","","html-keyboard-response","159","305732","0.0-1.0-209.0","0","0","13556","","null","","","null","23","","","","","","","","","","","","","","","",""
"","ISI","","html-keyboard-response","160","305884","0.0-1.0-210.0","0","0","13556","","null","","","null","23","NaN","","","","","","","","","","","","","","",""
"","S2","","html-keyboard-response","161","306137","0.0-1.0-211.0","0","0","13556","","null","","","null","23","","NaN","","","","","","","","","","","","","",""
"","response","","html-keyboard-response","162","306646","0.0-1.0-212.0-0.0","0","0","13556","","507","","","68","23","","","1","23","training","adjacent","EF","5","6","Q.jpg","P.jpg","1","1","1","",""
"","feedback","","html-keyboard-response","163","307647","0.0-1.0-213.0-0.0","0","0","13556","","null","","","null","23","","","","","","","","","","","","","","","",""
"","ITI","","html-keyboard-response","164","308649","0.0-1.0-216.0","0","0","13556","","null","","","null","23","","","","","","","","","","","","","","","NaN",""
"","S1","","html-keyboard-response","165","308901","0.0-1.0-218.0","0","0","13556","","null","","","null","24","","","","","","","","","","","","","","","",""
"","ISI","","html-keyboard-response","166","309053","0.0-1.0-219.0","0","0","13556","","null","","","null","24","NaN","","","","","","","","","","","","","","",""
"","S2","","html-keyboard-response","167","309305","0.0-1.0-220.0","0","0","13556","","null","","","null","24","","NaN","","","","","","","","","","","","","",""
"","response","","html-keyboard-response","168","310122","0.0-1.0-221.0-0.0","0","0","13556","","816","","","75","24","","","1","24","training","adjacent","GF","7","6","M.jpg","P.jpg","0","0","1","",""
"","feedback","","html-keyboard-response","169","311125","0.0-1.0-222.0-0.0","0","0","13556","","null","","","null","24","","","","","","","","","","","","","","","",""
"","ITI","","html-keyboard-response","170","312128","0.0-1.0-225.0","0","0","13556","","null","","","null","24","","","","","","","","","","","","","","","NaN",""
"","S1","","html-keyboard-response","171","312379","0.0-1.0-227.0","0","0","13556","","null","","","null","25","","","","","","","","","","","","","","","",""
"","ISI","","html-keyboard-response","172","312532","0.0-1.0-228.0","0","0","13556","","null","","","null","25","NaN","","","","","","","","","","","","","","",""
"","S2","","html-keyboard-response","173","312784","0.0-1.0-229.0","0","0","13556","","null","","","null","25","","NaN","","","","","","","","","","","","","",""
"","response","","html-keyboard-response","174","313292","0.0-1.0-230.0-0.0","0","0","13556","","507","","","75","25","","","1","25","training","adjacent","CD","3","4","R.jpg","L.jpg","0","1","0","",""
"","feedback","","html-keyboard-response","175","314294","0.0-1.0-231.0-0.0","0","0","13556","","null","","","null","25","","","","","","","","","","","","","","","",""
"","time_out","","html-keyboard-response","176","316296","0.0-1.0-233.0-0.0","0","0","13556","","null","","","null","25","","","","","","","","","","","","","","","",""
"","ITI","","html-keyboard-response","177","317298","0.0-1.0-234.0","0","0","13556","","null","","","null","25","","","","","","","","","","","","","","","NaN",""
"","S1","","html-keyboard-response","178","317551","0.0-1.0-236.0","0","0","13556","","null","","","null","26","","","","","","","","","","","","","","","",""
"","ISI","","html-keyboard-response","179","317703","0.0-1.0-237.0","0","0","13556","","null","","","null","26","NaN","","","","","","","","","","","","","","",""
"","S2","","html-keyboard-response","180","317955","0.0-1.0-238.0","0","0","13556","","null","","","null","26","","NaN","","","","","","","","","","","","","",""
"","response","","html-keyboard-response","181","318051","0.0-1.0-239.0-0.0","0","0","13556","","94","","","68","26","","","1","26","training","adjacent","EF","5","6","Q.jpg","P.jpg","1","1","1","",""
"","feedback","","html-keyboard-response","182","319053","0.0-1.0-240.0-0.0","0","0","13556","","null","","","null","26","","","","","","","","","","","","","","","",""
"","ITI","","html-keyboard-response","183","320055","0.0-1.0-243.0","0","0","13556","","null","","","null","26","","","","","","","","","","","","","","","NaN",""
"","S1","","html-keyboard-response","184","320307","0.0-1.0-245.0","0","0","13556","","null","","","null","27","","","","","","","","","","","","","","","",""
"","ISI","","html-keyboard-response","185","320459","0.0-1.0-246.0","0","0","13556","","null","","","null","27","NaN","","","","","","","","","","","","","","",""
"","S2","","html-keyboard-response","186","320712","0.0-1.0-247.0","0","0","13556","","null","","","null","27","","NaN","","","","","","","","","","","","","",""
"","response","","html-keyboard-response","187","320748","0.0-1.0-248.0-0.0","0","0","13556","","35","","","68","27","","","1","27","training","adjacent","CD","3","4","R.jpg","L.jpg","1","1","1","",""
"","feedback","","html-keyboard-response","188","321751","0.0-1.0-249.0-0.0","0","0","13556","","null","","","null","27","","","","","","","","","","","","","","","",""
"","ITI","","html-keyboard-response","189","322753","0.0-1.0-252.0","0","0","13556","","null","","","null","27","","","","","","","","","","","","","","","NaN",""
"","S1","","html-keyboard-response","190","323005","0.0-1.0-254.0","0","0","13556","","null","","","null","28","","","","","","","","","","","","","","","",""
"","ISI","","html-keyboard-response","191","323157","0.0-1.0-255.0","0","0","13556","","null","","","null","28","NaN","","","","","","","","","","","","","","",""
"","S2","","html-keyboard-response","192","323409","0.0-1.0-256.0","0","0","13556","","null","","","null","28","","NaN","","","","","","","","","","","","","",""
"","response","","html-keyboard-response","193","323571","0.0-1.0-257.0-0.0","0","0","13556","","162","","","75","28","","","1","28","training","adjacent","GF","7","6","M.jpg","P.jpg","0","0","1","",""
"","feedback","","html-keyboard-response","194","324574","0.0-1.0-258.0-0.0","0","0","13556","","null","","","null","28","","","","","","","","","","","","","","","",""
"","ITI","","html-keyboard-response","195","325575","0.0-1.0-261.0","0","0","13556","","null","","","null","28","","","","","","","","","","","","","","","NaN",""
"","S1","","html-keyboard-response","196","325827","0.0-1.0-263.0","0","0","13556","","null","","","null","29","","","","","","","","","","","","","","","",""
"","ISI","","html-keyboard-response","197","325979","0.0-1.0-264.0","0","0","13556","","null","","","null","29","NaN","","","","","","","","","","","","","","",""
"","S2","","html-keyboard-response","198","326231","0.0-1.0-265.0","0","0","13556","","null","","","null","29","","NaN","","","","","","","","","","","","","",""
"","response","","html-keyboard-response","199","326274","0.0-1.0-266.0-0.0","0","0","13556","","42","","","75","29","","","1","29","training","adjacent","ED","5","4","Q.jpg","L.jpg","0","0","1","",""
"","feedback","","html-keyboard-response","200","327276","0.0-1.0-267.0-0.0","0","0","13556","","null","","","null","29","","","","","","","","","","","","","","","",""
"","ITI","","html-keyboard-response","201","328278","0.0-1.0-270.0","0","0","13556","","null","","","null","29","","","","","","","","","","","","","","","NaN",""
"","S1","","html-keyboard-response","202","328545","0.0-1.0-272.0","0","0","13556","","null","","","null","30","","","","","","","","","","","","","","","",""
"","ISI","","html-keyboard-response","203","328697","0.0-1.0-273.0","0","0","13556","","null","","","null","30","NaN","","","","","","","","","","","","","","",""
"","S2","","html-keyboard-response","204","328949","0.0-1.0-274.0","0","0","13556","","null","","","null","30","","NaN","","","","","","","","","","","","","",""
"","response","","html-keyboard-response","205","329011","0.0-1.0-275.0-0.0","0","0","13556","","61","","","68","30","","","1","30","training","adjacent","FE","6","5","P.jpg","Q.jpg","1","0","0","",""
"","feedback","","html-keyboard-response","206","330013","0.0-1.0-276.0-0.0","0","0","13556","","null","","","null","30","","","","","","","","","","","","","","","",""
"","time_out","","html-keyboard-response","207","332015","0.0-1.0-278.0-0.0","0","0","13556","","null","","","null","30","","","","","","","","","","","","","","","",""
"","ITI","","html-keyboard-response","208","333016","0.0-1.0-279.0","0","0","13556","","null","","","null","30","","","","","","","","","","","","","","","NaN",""
"","S1","","html-keyboard-response","209","333269","0.0-1.0-281.0","0","0","13556","","null","","","null","31","","","","","","","","","","","","","","","",""
"","ISI","","html-keyboard-response","210","333430","0.0-1.0-282.0","0","0","13556","","null","","","null","31","NaN","","","","","","","","","","","","","","",""
"","S2","","html-keyboard-response","211","333606","0.0-1.0-283.0","0","0","13556","","174","","","75","31","","k","1","31","training","adjacent","FG","6","7","P.jpg","M.jpg","0","1","0","",""
"","feedback","","html-keyboard-response","212","334609","0.0-1.0-285.0-0.0","0","0","13556","","null","","","null","31","","","","","","","","","","","","","","","",""
"","time_out","","html-keyboard-response","213","336611","0.0-1.0-287.0-0.0","0","0","13556","","null","","","null","31","","","","","","","","","","","","","","","",""
"","ITI","","html-keyboard-response","214","337613","0.0-1.0-288.0","0","0","13556","","null","","","null","31","","","","","","","","","","","","","","","NaN",""
"","S1","","html-keyboard-response","215","337865","0.0-1.0-290.0","0","0","13556","","null","","","null","32","","","","","","","","","","","","","","","",""
"","ISI","","html-keyboard-response","216","338017","0.0-1.0-291.0","0","0","13556","","null","","","null","32","NaN","","","","","","","","","","","","","","",""
"","S2","","html-keyboard-response","217","338270","0.0-1.0-292.0","0","0","13556","","null","","","null","32","","NaN","","","","","","","","","","","","","",""
"","response","","html-keyboard-response","218","338340","0.0-1.0-293.0-0.0","0","0","13556","","69","","","68","32","","","1","32","training","adjacent","ED","5","4","Q.jpg","L.jpg","1","0","0","",""
"","feedback","","html-keyboard-response","219","339344","0.0-1.0-294.0-0.0","0","0","13556","","null","","","null","32","","","","","","","","","","","","","","","",""
"","time_out","","html-keyboard-response","220","341346","0.0-1.0-296.0-0.0","0","0","13556","","null","","","null","32","","","","","","","","","","","","","","","",""
"","ITI","","html-keyboard-response","221","342348","0.0-1.0-297.0","0","0","13556","","null","","","null","32","","","","","","","","","","","","","","","NaN",""
"","S1","","html-keyboard-response","222","342604","0.0-1.0-299.0","0","0","13556","","null","","","null","33","","","","","","","","","","","","","","","",""
"","ISI","","html-keyboard-response","223","342756","0.0-1.0-300.0","0","0","13556","","null","","","null","33","NaN","","","","","","","","","","","","","","",""
"","S2","","html-keyboard-response","224","343007","0.0-1.0-301.0","0","0","13556","","null","","","null","33","","NaN","","","","","","","","","","","","","",""
"","response","","html-keyboard-response","225","343402","0.0-1.0-302.0-0.0","0","0","13556","","393","","","75","33","","","1","33","training","adjacent","BA","2","1","N.jpg","O.jpg","0","0","1","",""
"","feedback","","html-keyboard-response","226","344404","0.0-1.0-303.0-0.0","0","0","13556","","null","","","null","33","","","","","","","","","","","","","","","",""
"","ITI","","html-keyboard-response","227","345406","0.0-1.0-306.0","0","0","13556","","null","","","null","33","","","","","","","","","","","","","","","NaN",""
"","S1","","html-keyboard-response","228","345658","0.0-1.0-308.0","0","0","13556","","null","","","null","34","","","","","","","","","","","","","","","",""
"","ISI","","html-keyboard-response","229","345822","0.0-1.0-309.0","0","0","13556","","null","","","null","34","NaN","","","","","","","","","","","","","","",""
"","S2","","html-keyboard-response","230","346075","0.0-1.0-310.0","0","0","13556","","null","","","null","34","","NaN","","","","","","","","","","","","","",""
"","response","","html-keyboard-response","231","346206","0.0-1.0-311.0-0.0","0","0","13556","","130","","","75","34","","","1","34","training","adjacent","FE","6","5","P.jpg","Q.jpg","0","0","1","",""
"","feedback","","html-keyboard-response","232","347209","0.0-1.0-312.0-0.0","0","0","13556","","null","","","null","34","","","","","","","","","","","","","","","",""
"","ITI","","html-keyboard-response","233","348211","0.0-1.0-315.0","0","0","13556","","null","","","null","34","","","","","","","","","","","","","","","NaN",""
"","S1","","html-keyboard-response","234","348463","0.0-1.0-317.0","0","0","13556","","null","","","null","35","","","","","","","","","","","","","","","",""
"","ISI","","html-keyboard-response","235","348614","0.0-1.0-318.0","0","0","13556","","null","","","null","35","NaN","","","","","","","","","","","","","","",""
"","S2","","html-keyboard-response","236","348866","0.0-1.0-319.0","0","0","13556","","null","","","null","35","","NaN","","","","","","","","","","","","","",""
"","response","","html-keyboard-response","237","349022","0.0-1.0-320.0-0.0","0","0","13556","","155","","","75","35","","","1","35","training","adjacent","EF","5","6","Q.jpg","P.jpg","0","1","0","",""
"","feedback","","html-keyboard-response","238","350024","0.0-1.0-321.0-0.0","0","0","13556","","null","","","null","35","","","","","","","","","","","","","","","",""
"","time_out","","html-keyboard-response","239","352026","0.0-1.0-323.0-0.0","0","0","13556","","null","","","null","35","","","","","","","","","","","","","","","",""
"","ITI","","html-keyboard-response","240","353028","0.0-1.0-324.0","0","0","13556","","null","","","null","35","","","","","","","","","","","","","","","NaN",""
"","S1","","html-keyboard-response","241","353281","0.0-1.0-326.0","0","0","13556","","null","","","null","36","","","","","","","","","","","","","","","",""
"","ISI","","html-keyboard-response","242","353433","0.0-1.0-327.0","0","0","13556","","null","","","null","36","NaN","","","","","","","","","","","","","","",""
"","S2","","html-keyboard-response","243","353685","0.0-1.0-328.0","0","0","13556","","null","","","null","36","","NaN","","","","","","","","","","","","","",""
"","response","","html-keyboard-response","244","353728","0.0-1.0-329.0-0.0","0","0","13556","","42","","","68","36","","","1","36","training","adjacent","ED","5","4","Q.jpg","L.jpg","1","0","0","",""
"","feedback","","html-keyboard-response","245","354730","0.0-1.0-330.0-0.0","0","0","13556","","null","","","null","36","","","","","","","","","","","","","","","",""
"","time_out","","html-keyboard-response","246","356732","0.0-1.0-332.0-0.0","0","0","13556","","null","","","null","36","","","","","","","","","","","","","","","",""
"","ITI","","html-keyboard-response","247","357734","0.0-1.0-333.0","0","0","13556","","null","","","null","36","","","","","","","","","","","","","","","NaN",""
"","S1","","html-keyboard-response","248","357986","0.0-1.0-335.0","0","0","13556","","null","","","null","37","","","","","","","","","","","","","","","",""
"","ISI","","html-keyboard-response","249","358139","0.0-1.0-336.0","0","0","13556","","null","","","null","37","NaN","","","","","","","","","","","","","","",""
"","S2","","html-keyboard-response","250","358391","0.0-1.0-337.0","0","0","13556","","null","","","null","37","","NaN","","","","","","","","","","","","","",""
"","response","","html-keyboard-response","251","358419","0.0-1.0-338.0-0.0","0","0","13556","","27","","","75","37","","","1","37","training","adjacent","CB","3","2","R.jpg","N.jpg","0","0","1","",""
"","feedback","","html-keyboard-response","252","359422","0.0-1.0-339.0-0.0","0","0","13556","","null","","","null","37","","","","","","","","","","","","","","","",""
"","ITI","","html-keyboard-response","253","360423","0.0-1.0-342.0","0","0","13556","","null","","","null","37","","","","","","","","","","","","","","","NaN",""
"","S1","","html-keyboard-response","254","360676","0.0-1.0-344.0","0","0","13556","","null","","","null","38","","","","","","","","","","","","","","","",""
"","ISI","","html-keyboard-response","255","360829","0.0-1.0-345.0","0","0","13556","","null","","","null","38","NaN","","","","","","","","","","","","","","",""
"","S2","","html-keyboard-response","256","361082","0.0-1.0-346.0","0","0","13556","","null","","","null","38","","NaN","","","","","","","","","","","","","",""
"","response","","html-keyboard-response","257","361110","0.0-1.0-347.0-0.0","0","0","13556","","27","","","75","38","","","1","38","training","adjacent","BA","2","1","N.jpg","O.jpg","0","0","1","",""
"","feedback","","html-keyboard-response","258","362113","0.0-1.0-348.0-0.0","0","0","13556","","null","","","null","38","","","","","","","","","","","","","","","",""
"","ITI","","html-keyboard-response","259","363114","0.0-1.0-351.0","0","0","13556","","null","","","null","38","","","","","","","","","","","","","","","NaN",""
"","S1","","html-keyboard-response","260","363367","0.0-1.0-353.0","0","0","13556","","null","","","null","39","","","","","","","","","","","","","","","",""
"","ISI","","html-keyboard-response","261","363519","0.0-1.0-354.0","0","0","13556","","null","","","null","39","NaN","","","","","","","","","","","","","","",""
"","S2","","html-keyboard-response","262","363741","0.0-1.0-355.0","0","0","13556","","221","","","75","39","","k","1","39","training","adjacent","AB","1","2","O.jpg","N.jpg","0","1","0","",""
"","feedback","","html-keyboard-response","263","364743","0.0-1.0-357.0-0.0","0","0","13556","","null","","","null","39","","","","","","","","","","","","","","","",""
"","time_out","","html-keyboard-response","264","366745","0.0-1.0-359.0-0.0","0","0","13556","","null","","","null","39","","","","","","","","","","","","","","","",""
"","ITI","","html-keyboard-response","265","367746","0.0-1.0-360.0","0","0","13556","","null","","","null","39","","","","","","","","","","","","","","","NaN",""
"","S1","","html-keyboard-response","266","367998","0.0-1.0-362.0","0","0","13556","","null","","","null","40","","","","","","","","","","","","","","","",""
"","ISI","","html-keyboard-response","267","368150","0.0-1.0-363.0","0","0","13556","","null","","","null","40","NaN","","","","","","","","","","","","","","",""
"","S2","","html-keyboard-response","268","368402","0.0-1.0-364.0","0","0","13556","","null","","","null","40","","NaN","","","","","","","","","","","","","",""
"","response","","html-keyboard-response","269","368434","0.0-1.0-365.0-0.0","0","0","13556","","31","","","68","40","","","1","40","training","adjacent","BC","2","3","N.jpg","R.jpg","1","1","1","",""
"","feedback","","html-keyboard-response","270","369437","0.0-1.0-366.0-0.0","0","0","13556","","null","","","null","40","","","","","","","","","","","","","","","",""
"","ITI","","html-keyboard-response","271","370438","0.0-1.0-369.0","0","0","13556","","null","","","null","40","","","","","","","","","","","","","","","NaN",""
"","S1","","html-keyboard-response","272","370695","0.0-1.0-371.0","0","0","13556","","null","","","null","41","","","","","","","","","","","","","","","",""
"","ISI","","html-keyboard-response","273","370847","0.0-1.0-372.0","0","0","13556","","null","","","null","41","NaN","","","","","","","","","","","","","","",""
"","S2","","html-keyboard-response","274","371098","0.0-1.0-373.0","0","0","13556","","null","","","null","41","","NaN","","","","","","","","","","","","","",""
"","response","","html-keyboard-response","275","371335","0.0-1.0-374.0-0.0","0","0","13556","","234","","","75","41","","","1","41","training","adjacent","GF","7","6","M.jpg","P.jpg","0","0","1","",""
"","feedback","","html-keyboard-response","276","372337","0.0-1.0-375.0-0.0","0","0","13556","","null","","","null","41","","","","","","","","","","","","","","","",""
"","ITI","","html-keyboard-response","277","373339","0.0-1.0-378.0","0","0","13556","","null","","","null","41","","","","","","","","","","","","","","","NaN",""
"","S1","","html-keyboard-response","278","373592","0.0-1.0-380.0","0","0","13556","","null","","","null","42","","","","","","","","","","","","","","","",""
"","ISI","","html-keyboard-response","279","373743","0.0-1.0-381.0","0","0","13556","","null","","","null","42","NaN","","","","","","","","","","","","","","",""
"","S2","","html-keyboard-response","280","373995","0.0-1.0-382.0","0","0","13556","","null","","","null","42","","NaN","","","","","","","","","","","","","",""
"","response","","html-keyboard-response","281","374006","0.0-1.0-383.0-0.0","0","0","13556","","10","","","75","42","","","1","42","training","adjacent","AB","1","2","O.jpg","N.jpg","0","1","0","",""
"","feedback","","html-keyboard-response","282","375008","0.0-1.0-384.0-0.0","0","0","13556","","null","","","null","42","","","","","","","","","","","","","","","",""
"","time_out","","html-keyboard-response","283","377011","0.0-1.0-386.0-0.0","0","0","13556","","null","","","null","42","","","","","","","","","","","","","","","",""
"","ITI","","html-keyboard-response","284","378013","0.0-1.0-387.0","0","0","13556","","null","","","null","42","","","","","","","","","","","","","","","NaN",""
"","S1","","html-keyboard-response","285","378265","0.0-1.0-389.0","0","0","13556","","null","","","null","43","","","","","","","","","","","","","","","",""
"","ISI","","html-keyboard-response","286","378417","0.0-1.0-390.0","0","0","13556","","null","","","null","43","NaN","","","","","","","","","","","","","","",""
"","S2","","html-keyboard-response","287","378669","0.0-1.0-391.0","0","0","13556","","null","","","null","43","","NaN","","","","","","","","","","","","","",""
"","response","","html-keyboard-response","288","378699","0.0-1.0-392.0-0.0","0","0","13556","","29","","","68","43","","","1","43","training","adjacent","BC","2","3","N.jpg","R.jpg","1","1","1","",""
"","feedback","","html-keyboard-response","289","379701","0.0-1.0-393.0-0.0","0","0","13556","","null","","","null","43","","","","","","","","","","","","","","","",""
"","ITI","","html-keyboard-response","290","380704","0.0-1.0-396.0","0","0","13556","","null","","","null","43","","","","","","","","","","","","","","","NaN",""
"","S1","","html-keyboard-response","291","380956","0.0-1.0-398.0","0","0","13556","","null","","","null","44","","","","","","","","","","","","","","","",""
"","ISI","","html-keyboard-response","292","381108","0.0-1.0-399.0","0","0","13556","","null","","","null","44","NaN","","","","","","","","","","","","","","",""
"","S2","","html-keyboard-response","293","381232","0.0-1.0-400.0","0","0","13556","","122","","","68","44","","d","1","44","training","adjacent","FG","6","7","P.jpg","M.jpg","1","1","1","",""
"","feedback","","html-keyboard-response","294","382234","0.0-1.0-402.0-0.0","0","0","13556","","null","","","null","44","","","","","","","","","","","","","","","",""
"","ITI","","html-keyboard-response","295","383236","0.0-1.0-405.0","0","0","13556","","null","","","null","44","","","","","","","","","","","","","","","NaN",""
"","S1","","html-keyboard-response","296","383488","0.0-1.0-407.0","0","0","13556","","null","","","null","45","","","","","","","","","","","","","","","",""
"","ISI","","html-keyboard-response","297","383651","0.0-1.0-408.0","0","0","13556","","null","","","null","45","NaN","","","","","","","","","","","","","","",""
"","S2","","html-keyboard-response","298","383824","0.0-1.0-409.0","0","0","13556","","172","","","75","45","","k","1","45","training","adjacent","CB","3","2","R.jpg","N.jpg","0","0","1","",""
"","feedback","","html-keyboard-response","299","384826","0.0-1.0-411.0-0.0","0","0","13556","","null","","","null","45","","","","","","","","","","","","","","","",""
"","ITI","","html-keyboard-response","300","385828","0.0-1.0-414.0","0","0","13556","","null","","","null","45","","","","","","","","","","","","","","","NaN",""
"","S1","","html-keyboard-response","301","386081","0.0-1.0-416.0","0","0","13556","","null","","","null","46","","","","","","","","","","","","","","","",""
"","ISI","","html-keyboard-response","302","386233","0.0-1.0-417.0","0","0","13556","","null","","","null","46","NaN","","","","","","","","","","","","","","",""
"","S2","","html-keyboard-response","303","386381","0.0-1.0-418.0","0","0","13556","","147","","","75","46","","k","1","46","training","adjacent","DE","4","5","L.jpg","Q.jpg","0","1","0","",""
"","feedback","","html-keyboard-response","304","387384","0.0-1.0-420.0-0.0","0","0","13556","","null","","","null","46","","","","","","","","","","","","","","","",""
"","time_out","","html-keyboard-response","305","389386","0.0-1.0-422.0-0.0","0","0","13556","","null","","","null","46","","","","","","","","","","","","","","","",""
"","ITI","","html-keyboard-response","306","390388","0.0-1.0-423.0","0","0","13556","","null","","","null","46","","","","","","","","","","","","","","","NaN",""
"","S1","","html-keyboard-response","307","390646","0.0-1.0-425.0","0","0","13556","","null","","","null","47","","","","","","","","","","","","","","","",""
"","ISI","","html-keyboard-response","308","390798","0.0-1.0-426.0","0","0","13556","","null","","","null","47","NaN","","","","","","","","","","","","","","",""
"","S2","","html-keyboard-response","309","390911","0.0-1.0-427.0","0","0","13556","","113","","","68","47","","d","1","47","training","adjacent","CB","3","2","R.jpg","N.jpg","1","0","0","",""
"","feedback","","html-keyboard-response","310","391913","0.0-1.0-429.0-0.0","0","0","13556","","null","","","null","47","","","","","","","","","","","","","","","",""
"","time_out","","html-keyboard-response","311","393915","0.0-1.0-431.0-0.0","0","0","13556","","null","","","null","47","","","","","","","","","","","","","","","",""
"","ITI","","html-keyboard-response","312","394917","0.0-1.0-432.0","0","0","13556","","null","","","null","47","","","","","","","","","","","","","","","NaN",""
"","block_over","","html-keyboard-response","313","412996","0.0-1.0-433.0-0.0","0","0","13556","","18079","","","32","47","","","","","","","","","","","","","","","",""
"","S1","","html-keyboard-response","314","413249","0.0-1.0-434.0","0","0","13556","","null","","","null","48","","","","","","","","","","","","","","","",""
"","ISI","","html-keyboard-response","315","413401","0.0-1.0-435.0","0","0","13556","","null","","","null","48","NaN","","","","","","","","","","","","","","",""
"","S2","","html-keyboard-response","316","413653","0.0-1.0-436.0","0","0","13556","","null","","","null","48","","NaN","","","","","","","","","","","","","",""
"","response","","html-keyboard-response","317","414178","0.0-1.0-437.0-0.0","0","0","13556","","523","","","75","48","","","2","48","training","adjacent","EF","5","6","Q.jpg","P.jpg","0","1","0","",""
"","feedback","","html-keyboard-response","318","415181","0.0-1.0-438.0-0.0","0","0","13556","","null","","","null","48","","","","","","","","","","","","","","","",""
"","time_out","","html-keyboard-response","319","417184","0.0-1.0-440.0-0.0","0","0","13556","","null","","","null","48","","","","","","","","","","","","","","","",""
"","ITI","","html-keyboard-response","320","418186","0.0-1.0-441.0","0","0","13556","","null","","","null","48","","","","","","","","","","","","","","","NaN",""
"","S1","","html-keyboard-response","321","418438","0.0-1.0-443.0","0","0","13556","","null","","","null","49","","","","","","","","","","","","","","","",""
"","ISI","","html-keyboard-response","322","418589","0.0-1.0-444.0","0","0","13556","","null","","","null","49","NaN","","","","","","","","","","","","","","",""
"","S2","","html-keyboard-response","323","418842","0.0-1.0-445.0","0","0","13556","","null","","","null","49","","NaN","","","","","","","","","","","","","",""
"","response","","html-keyboard-response","324","418847","0.0-1.0-446.0-0.0","0","0","13556","","4","","","68","49","","","2","49","training","adjacent","GF","7","6","M.jpg","P.jpg","1","0","0","",""
"","feedback","","html-keyboard-response","325","419850","0.0-1.0-447.0-0.0","0","0","13556","","null","","","null","49","","","","","","","","","","","","","","","",""
"","time_out","","html-keyboard-response","326","421852","0.0-1.0-449.0-0.0","0","0","13556","","null","","","null","49","","","","","","","","","","","","","","","",""
"","ITI","","html-keyboard-response","327","422854","0.0-1.0-450.0","0","0","13556","","null","","","null","49","","","","","","","","","","","","","","","NaN",""
"","S1","","html-keyboard-response","328","423107","0.0-1.0-452.0","0","0","13556","","null","","","null","50","","","","","","","","","","","","","","","",""
"","ISI","","html-keyboard-response","329","423259","0.0-1.0-453.0","0","0","13556","","null","","","null","50","NaN","","","","","","","","","","","","","","",""
"","S2","","html-keyboard-response","330","423511","0.0-1.0-454.0","0","0","13556","","null","","","null","50","","NaN","","","","","","","","","","","","","",""
"","response","","html-keyboard-response","331","423542","0.0-1.0-455.0-0.0","0","0","13556","","28","","","75","50","","","2","50","training","adjacent","DC","4","3","L.jpg","R.jpg","0","0","1","",""
"","feedback","","html-keyboard-response","332","424544","0.0-1.0-456.0-0.0","0","0","13556","","null","","","null","50","","","","","","","","","","","","","","","",""
"","ITI","","html-keyboard-response","333","425545","0.0-1.0-459.0","0","0","13556","","null","","","null","50","","","","","","","","","","","","","","","NaN",""
"","S1","","html-keyboard-response","334","425797","0.0-1.0-461.0","0","0","13556","","null","","","null","51","","","","","","","","","","","","","","","",""
"","ISI","","html-keyboard-response","335","425948","0.0-1.0-462.0","0","0","13556","","null","","","null","51","NaN","","","","","","","","","","","","","","",""
"","S2","","html-keyboard-response","336","426200","0.0-1.0-463.0","0","0","13556","","null","","","null","51","","NaN","","","","","","","","","","","","","",""
"","response","","html-keyboard-response","337","426374","0.0-1.0-464.0-0.0","0","0","13556","","172","","","68","51","","","2","51","training","adjacent","DE","4","5","L.jpg","Q.jpg","1","1","1","",""
"","feedback","","html-keyboard-response","338","427376","0.0-1.0-465.0-0.0","0","0","13556","","null","","","null","51","","","","","","","","","","","","","","","",""
"","ITI","","html-keyboard-response","339","428389","0.0-1.0-468.0","0","0","13556","","null","","","null","51","","","","","","","","","","","","","","","NaN",""
"","S1","","html-keyboard-response","340","428642","0.0-1.0-470.0","0","0","13556","","null","","","null","52","","","","","","","","","","","","","","","",""
"","ISI","","html-keyboard-response","341","428793","0.0-1.0-471.0","0","0","13556","","null","","","null","52","NaN","","","","","","","","","","","","","","",""
"","S2","","html-keyboard-response","342","429046","0.0-1.0-472.0","0","0","13556","","null","","","null","52","","NaN","","","","","","","","","","","","","",""
"","response","","html-keyboard-response","343","429113","0.0-1.0-473.0-0.0","0","0","13556","","66","","","68","52","","","2","52","training","adjacent","DE","4","5","L.jpg","Q.jpg","1","1","1","",""
"","feedback","","html-keyboard-response","344","430116","0.0-1.0-474.0-0.0","0","0","13556","","null","","","null","52","","","","","","","","","","","","","","","",""
"","ITI","","html-keyboard-response","345","431118","0.0-1.0-477.0","0","0","13556","","null","","","null","52","","","","","","","","","","","","","","","NaN",""
"","S1","","html-keyboard-response","346","431379","0.0-1.0-479.0","0","0","13556","","null","","","null","53","","","","","","","","","","","","","","","",""
"","ISI","","html-keyboard-response","347","431532","0.0-1.0-480.0","0","0","13556","","null","","","null","53","NaN","","","","","","","","","","","","","","",""
"","S2","","html-keyboard-response","348","431784","0.0-1.0-481.0","0","0","13556","","null","","","null","53","","NaN","","","","","","","","","","","","","",""
"","response","","html-keyboard-response","349","431819","0.0-1.0-482.0-0.0","0","0","13556","","33","","","75","53","","","2","53","training","adjacent","BA","2","1","N.jpg","O.jpg","0","0","1","",""
"","feedback","","html-keyboard-response","350","432821","0.0-1.0-483.0-0.0","0","0","13556","","null","","","null","53","","","","","","","","","","","","","","","",""
"","ITI","","html-keyboard-response","351","433823","0.0-1.0-486.0","0","0","13556","","null","","","null","53","","","","","","","","","","","","","","","NaN",""
"","S1","","html-keyboard-response","352","434076","0.0-1.0-488.0","0","0","13556","","null","","","null","54","","","","","","","","","","","","","","","",""
"","ISI","","html-keyboard-response","353","434229","0.0-1.0-489.0","0","0","13556","","null","","","null","54","NaN","","","","","","","","","","","","","","",""
"","S2","","html-keyboard-response","354","434492","0.0-1.0-490.0","0","0","13556","","null","","","null","54","","NaN","","","","","","","","","","","","","",""
"","response","","html-keyboard-response","355","434920","0.0-1.0-491.0-0.0","0","0","13556","","426","","","68","54","","","2","54","training","adjacent","AB","1","2","O.jpg","N.jpg","1","1","1","",""
"","feedback","","html-keyboard-response","356","435922","0.0-1.0-492.0-0.0","0","0","13556","","null","","","null","54","","","","","","","","","","","","","","","",""
"","ITI","","html-keyboard-response","357","436924","0.0-1.0-495.0","0","0","13556","","null","","","null","54","","","","","","","","","","","","","","","NaN",""
"","S1","","html-keyboard-response","358","437176","0.0-1.0-497.0","0","0","13556","","null","","","null","55","","","","","","","","","","","","","","","",""
"","ISI","","html-keyboard-response","359","437328","0.0-1.0-498.0","0","0","13556","","null","","","null","55","NaN","","","","","","","","","","","","","","",""
"","S2","","html-keyboard-response","360","437581","0.0-1.0-499.0","0","0","13556","","null","","","null","55","","NaN","","","","","","","","","","","","","",""
"","response","","html-keyboard-response","361","437641","0.0-1.0-500.0-0.0","0","0","13556","","58","","","75","55","","","2","55","training","adjacent","ED","5","4","Q.jpg","L.jpg","0","0","1","",""
"","feedback","","html-keyboard-response","362","438643","0.0-1.0-501.0-0.0","0","0","13556","","null","","","null","55","","","","","","","","","","","","","","","",""
"","ITI","","html-keyboard-response","363","439646","0.0-1.0-504.0","0","0","13556","","null","","","null","55","","","","","","","","","","","","","","","NaN",""
"","S1","","html-keyboard-response","364","439898","0.0-1.0-506.0","0","0","13556","","null","","","null","56","","","","","","","","","","","","","","","",""
"","ISI","","html-keyboard-response","365","440051","0.0-1.0-507.0","0","0","13556","","null","","","null","56","NaN","","","","","","","","","","","","","","",""
"","S2","","html-keyboard-response","366","440303","0.0-1.0-508.0","0","0","13556","","null","","","null","56","","NaN","","","","","","","","","","","","","",""
"","response","","html-keyboard-response","367","440443","0.0-1.0-509.0-0.0","0","0","13556","","138","","","68","56","","","2","56","training","adjacent","FE","6","5","P.jpg","Q.jpg","1","0","0","",""
"","feedback","","html-keyboard-response","368","441445","0.0-1.0-510.0-0.0","0","0","13556","","null","","","null","56","","","","","","","","","","","","","","","",""
"","time_out","","html-keyboard-response","369","443456","0.0-1.0-512.0-0.0","0","0","13556","","null","","","null","56","","","","","","","","","","","","","","","",""
"","ITI","","html-keyboard-response","370","444458","0.0-1.0-513.0","0","0","13556","","null","","","null","56","","","","","","","","","","","","","","","NaN",""
"","S1","","html-keyboard-response","371","444711","0.0-1.0-515.0","0","0","13556","","null","","","null","57","","","","","","","","","","","","","","","",""
"","ISI","","html-keyboard-response","372","444863","0.0-1.0-516.0","0","0","13556","","null","","","null","57","NaN","","","","","","","","","","","","","","",""
"","S2","","html-keyboard-response","373","445115","0.0-1.0-517.0","0","0","13556","","null","","","null","57","","NaN","","","","","","","","","","","","","",""
"","response","","html-keyboard-response","374","445330","0.0-1.0-518.0-0.0","0","0","13556","","213","","","75","57","","","2","57","training","adjacent","EF","5","6","Q.jpg","P.jpg","0","1","0","",""
"","feedback","","html-keyboard-response","375","446332","0.0-1.0-519.0-0.0","0","0","13556","","null","","","null","57","","","","","","","","","","","","","","","",""
"","time_out","","html-keyboard-response","376","448334","0.0-1.0-521.0-0.0","0","0","13556","","null","","","null","57","","","","","","","","","","","","","","","",""
"","ITI","","html-keyboard-response","377","449336","0.0-1.0-522.0","0","0","13556","","null","","","null","57","","","","","","","","","","","","","","","NaN",""
"","S1","","html-keyboard-response","378","449588","0.0-1.0-524.0","0","0","13556","","null","","","null","58","","","","","","","","","","","","","","","",""
"","ISI","","html-keyboard-response","379","449740","0.0-1.0-525.0","0","0","13556","","null","","","null","58","NaN","","","","","","","","","","","","","","",""
"","S2","","html-keyboard-response","380","449949","0.0-1.0-526.0","0","0","13556","","208","","","68","58","","d","2","58","training","adjacent","BA","2","1","N.jpg","O.jpg","1","0","0","",""
"","feedback","","html-keyboard-response","381","450952","0.0-1.0-528.0-0.0","0","0","13556","","null","","","null","58","","","","","","","","","","","","","","","",""
"","time_out","","html-keyboard-response","382","452954","0.0-1.0-530.0-0.0","0","0","13556","","null","","","null","58","","","","","","","","","","","","","","","",""
"","ITI","","html-keyboard-response","383","453955","0.0-1.0-531.0","0","0","13556","","null","","","null","58","","","","","","","","","","","","","","","NaN",""
"","S1","","html-keyboard-response","384","454207","0.0-1.0-533.0","0","0","13556","","null","","","null","59","","","","","","","","","","","","","","","",""
"","ISI","","html-keyboard-response","385","454359","0.0-1.0-534.0","0","0","13556","","null","","","null","59","NaN","","","","","","","","","","","","","","",""
"","S2","","html-keyboard-response","386","454611","0.0-1.0-535.0","0","0","13556","","null","","","null","59","","NaN","","","","","","","","","","","","","",""
"","response","","html-keyboard-response","387","454654","0.0-1.0-536.0-0.0","0","0","13556","","42","","","75","59","","","2","59","training","adjacent","CD","3","4","R.jpg","L.jpg","0","1","0","",""
"","feedback","","html-keyboard-response","388","455657","0.0-1.0-537.0-0.0","0","0","13556","","null","","","null","59","","","","","","","","","","","","","","","",""
"","time_out","","html-keyboard-response","389","457658","0.0-1.0-539.0-0.0","0","0","13556","","null","","","null","59","","","","","","","","","","","","","","","",""
"","ITI","","html-keyboard-response","390","458661","0.0-1.0-540.0","0","0","13556","","null","","","null","59","","","","","","","","","","","","","","","NaN",""
"","S1","","html-keyboard-response","391","458913","0.0-1.0-542.0","0","0","13556","","null","","","null","60","","","","","","","","","","","","","","","",""
"","ISI","","html-keyboard-response","392","459065","0.0-1.0-543.0","0","0","13556","","null","","","null","60","NaN","","","","","","","","","","","","","","",""
"","S2","","html-keyboard-response","393","459317","0.0-1.0-544.0","0","0","13556","","null","","","null","60","","NaN","","","","","","","","","","","","","",""
"","response","","html-keyboard-response","394","459549","0.0-1.0-545.0-0.0","0","0","13556","","231","","","75","60","","","2","60","training","adjacent","EF","5","6","Q.jpg","P.jpg","0","1","0","",""
"","feedback","","html-keyboard-response","395","460551","0.0-1.0-546.0-0.0","0","0","13556","","null","","","null","60","","","","","","","","","","","","","","","",""
"","time_out","","html-keyboard-response","396","462553","0.0-1.0-548.0-0.0","0","0","13556","","null","","","null","60","","","","","","","","","","","","","","","",""
"","ITI","","html-keyboard-response","397","463555","0.0-1.0-549.0","0","0","13556","","null","","","null","60","","","","","","","","","","","","","","","NaN",""
"","S1","","html-keyboard-response","398","463806","0.0-1.0-551.0","0","0","13556","","null","","","null","61","","","","","","","","","","","","","","","",""
"","ISI","","html-keyboard-response","399","463958","0.0-1.0-552.0","0","0","13556","","null","","","null","61","NaN","","","","","","","","","","","","","","",""
"","S2","","html-keyboard-response","400","464209","0.0-1.0-553.0","0","0","13556","","250","","","68","61","","d","2","61","training","adjacent","GF","7","6","M.jpg","P.jpg","1","0","0","",""
"","feedback","","html-keyboard-response","401","465213","0.0-1.0-555.0-0.0","0","0","13556","","null","","","null","61","","","","","","","","","","","","","","","",""
"","time_out","","html-keyboard-response","402","467215","0.0-1.0-557.0-0.0","0","0","13556","","null","","","null","61","","","","","","","","","","","","","","","",""
"","ITI","","html-keyboard-response","403","468217","0.0-1.0-558.0","0","0","13556","","null","","","null","61","","","","","","","","","","","","","","","NaN",""
"","S1","","html-keyboard-response","404","468474","0.0-1.0-560.0","0","0","13556","","null","","","null","62","","","","","","","","","","","","","","","",""
"","ISI","","html-keyboard-response","405","468626","0.0-1.0-561.0","0","0","13556","","null","","","null","62","NaN","","","","","","","","","","","","","","",""
"","S2","","html-keyboard-response","406","468759","0.0-1.0-562.0","0","0","13556","","131","","","75","62","","k","2","62","training","adjacent","FG","6","7","P.jpg","M.jpg","0","1","0","",""
"","feedback","","html-keyboard-response","407","469761","0.0-1.0-564.0-0.0","0","0","13556","","null","","","null","62","","","","","","","","","","","","","","","",""
"","time_out","","html-keyboard-response","408","471763","0.0-1.0-566.0-0.0","0","0","13556","","null","","","null","62","","","","","","","","","","","","","","","",""
"","ITI","","html-keyboard-response","409","472765","0.0-1.0-567.0","0","0","13556","","null","","","null","62","","","","","","","","","","","","","","","NaN",""
"","S1","","html-keyboard-response","410","473017","0.0-1.0-569.0","0","0","13556","","null","","","null","63","","","","","","","","","","","","","","","",""
"","ISI","","html-keyboard-response","411","473170","0.0-1.0-570.0","0","0","13556","","null","","","null","63","NaN","","","","","","","","","","","","","","",""
"","S2","","html-keyboard-response","412","473330","0.0-1.0-571.0","0","0","13556","","159","","","68","63","","d","2","63","training","adjacent","FE","6","5","P.jpg","Q.jpg","1","0","0","",""
"","feedback","","html-keyboard-response","413","474332","0.0-1.0-573.0-0.0","0","0","13556","","null","","","null","63","","","","","","","","","","","","","","","",""
"","time_out","","html-keyboard-response","414","476334","0.0-1.0-575.0-0.0","0","0","13556","","null","","","null","63","","","","","","","","","","","","","","","",""
"","ITI","","html-keyboard-response","415","477351","0.0-1.0-576.0","0","0","13556","","null","","","null","63","","","","","","","","","","","","","","","NaN",""
"","S1","","html-keyboard-response","416","477603","0.0-1.0-578.0","0","0","13556","","null","","","null","64","","","","","","","","","","","","","","","",""
"","ISI","","html-keyboard-response","417","477755","0.0-1.0-579.0","0","0","13556","","null","","","null","64","NaN","","","","","","","","","","","","","","",""
"","S2","","html-keyboard-response","418","477966","0.0-1.0-580.0","0","0","13556","","210","","","75","64","","k","2","64","training","adjacent","FE","6","5","P.jpg","Q.jpg","0","0","1","",""
"","feedback","","html-keyboard-response","419","478968","0.0-1.0-582.0-0.0","0","0","13556","","null","","","null","64","","","","","","","","","","","","","","","",""
"","ITI","","html-keyboard-response","420","479970","0.0-1.0-585.0","0","0","13556","","null","","","null","64","","","","","","","","","","","","","","","NaN",""
"","S1","","html-keyboard-response","421","480222","0.0-1.0-587.0","0","0","13556","","null","","","null","65","","","","","","","","","","","","","","","",""
"","ISI","","html-keyboard-response","422","480374","0.0-1.0-588.0","0","0","13556","","null","","","null","65","NaN","","","","","","","","","","","","","","",""
"","S2","","html-keyboard-response","423","480561","0.0-1.0-589.0","0","0","13556","","185","","","75","65","","k","2","65","training","adjacent","CD","3","4","R.jpg","L.jpg","0","1","0","",""
"","feedback","","html-keyboard-response","424","481563","0.0-1.0-591.0-0.0","0","0","13556","","null","","","null","65","","","","","","","","","","","","","","","",""
"","time_out","","html-keyboard-response","425","483565","0.0-1.0-593.0-0.0","0","0","13556","","null","","","null","65","","","","","","","","","","","","","","","",""
"","ITI","","html-keyboard-response","426","484567","0.0-1.0-594.0","0","0","13556","","null","","","null","65","","","","","","","","","","","","","","","NaN",""
"","S1","","html-keyboard-response","427","484819","0.0-1.0-596.0","0","0","13556","","null","","","null","66","","","","","","","","","","","","","","","",""
"","ISI","","html-keyboard-response","428","484972","0.0-1.0-597.0","0","0","13556","","null","","","null","66","NaN","","","","","","","","","","","","","","",""
"","S2","","html-keyboard-response","429","485224","0.0-1.0-598.0","0","0","13556","","null","","","null","66","","NaN","","","","","","","","","","","","","",""
"","response","","html-keyboard-response","430","485286","0.0-1.0-599.0-0.0","0","0","13556","","61","","","75","66","","","2","66","training","adjacent","FG","6","7","P.jpg","M.jpg","0","1","0","",""
"","feedback","","html-keyboard-response","431","486288","0.0-1.0-600.0-0.0","0","0","13556","","null","","","null","66","","","","","","","","","","","","","","","",""
"","time_out","","html-keyboard-response","432","488291","0.0-1.0-602.0-0.0","0","0","13556","","null","","","null","66","","","","","","","","","","","","","","","",""
"","ITI","","html-keyboard-response","433","489292","0.0-1.0-603.0","0","0","13556","","null","","","null","66","","","","","","","","","","","","","","","NaN",""
"","S1","","html-keyboard-response","434","489545","0.0-1.0-605.0","0","0","13556","","null","","","null","67","","","","","","","","","","","","","","","",""
"","ISI","","html-keyboard-response","435","489697","0.0-1.0-606.0","0","0","13556","","null","","","null","67","NaN","","","","","","","","","","","","","","",""
"","S2","","html-keyboard-response","436","489706","0.0-1.0-607.0","0","0","13556","","8","","","75","67","","k","2","67","training","adjacent","AB","1","2","O.jpg","N.jpg","0","1","0","",""
"","feedback","","html-keyboard-response","437","490709","0.0-1.0-609.0-0.0","0","0","13556","","null","","","null","67","","","","","","","","","","","","","","","",""
"","time_out","","html-keyboard-response","438","492711","0.0-1.0-611.0-0.0","0","0","13556","","null","","","null","67","","","","","","","","","","","","","","","",""
"","ITI","","html-keyboard-response","439","493713","0.0-1.0-612.0","0","0","13556","","null","","","null","67","","","","","","","","","","","","","","","NaN",""
"","S1","","html-keyboard-response","440","493965","0.0-1.0-614.0","0","0","13556","","null","","","null","68","","","","","","","","","","","","","","","",""
"","ISI","","html-keyboard-response","441","494117","0.0-1.0-615.0","0","0","13556","","null","","","null","68","NaN","","","","","","","","","","","","","","",""
"","S2","","html-keyboard-response","442","494239","0.0-1.0-616.0","0","0","13556","","120","","","68","68","","d","2","68","training","adjacent","DE","4","5","L.jpg","Q.jpg","1","1","1","",""
"","feedback","","html-keyboard-response","443","495240","0.0-1.0-618.0-0.0","0","0","13556","","null","","","null","68","","","","","","","","","","","","","","","",""
"","ITI","","html-keyboard-response","444","496242","0.0-1.0-621.0","0","0","13556","","null","","","null","68","","","","","","","","","","","","","","","NaN",""
"","S1","","html-keyboard-response","445","496495","0.0-1.0-623.0","0","0","13556","","null","","","null","69","","","","","","","","","","","","","","","",""
"","ISI","","html-keyboard-response","446","496646","0.0-1.0-624.0","0","0","13556","","null","","","null","69","NaN","","","","","","","","","","","","","","",""
"","S2","","html-keyboard-response","447","496898","0.0-1.0-625.0","0","0","13556","","null","","","null","69","","NaN","","","","","","","","","","","","","",""
"","response","","html-keyboard-response","448","497101","0.0-1.0-626.0-0.0","0","0","13556","","200","","","68","69","","","2","69","training","adjacent","CD","3","4","R.jpg","L.jpg","1","1","1","",""
"","feedback","","html-keyboard-response","449","498103","0.0-1.0-627.0-0.0","0","0","13556","","null","","","null","69","","","","","","","","","","","","","","","",""
"","ITI","","html-keyboard-response","450","499105","0.0-1.0-630.0","0","0","13556","","null","","","null","69","","","","","","","","","","","","","","","NaN",""
"","S1","","html-keyboard-response","451","499357","0.0-1.0-632.0","0","0","13556","","null","","","null","70","","","","","","","","","","","","","","","",""
"","ISI","","html-keyboard-response","452","499509","0.0-1.0-633.0","0","0","13556","","null","","","null","70","NaN","","","","","","","","","","","","","","",""
"","S2","","html-keyboard-response","453","499713","0.0-1.0-634.0","0","0","13556","","203","","","75","70","","k","2","70","training","adjacent","CD","3","4","R.jpg","L.jpg","0","1","0","",""
"","feedback","","html-keyboard-response","454","500716","0.0-1.0-636.0-0.0","0","0","13556","","null","","","null","70","","","","","","","","","","","","","","","",""
"","time_out","","html-keyboard-response","455","502718","0.0-1.0-638.0-0.0","0","0","13556","","null","","","null","70","","","","","","","","","","","","","","","",""
"","ITI","","html-keyboard-response","456","503719","0.0-1.0-639.0","0","0","13556","","null","","","null","70","","","","","","","","","","","","","","","NaN",""
"","S1","","html-keyboard-response","457","503971","0.0-1.0-641.0","0","0","13556","","null","","","null","71","","","","","","","","","","","","","","","",""
"","ISI","","html-keyboard-response","458","504123","0.0-1.0-642.0","0","0","13556","","null","","","null","71","NaN","","","","","","","","","","","","","","",""
"","S2","","html-keyboard-response","459","504324","0.0-1.0-643.0","0","0","13556","","199","","","68","71","","d","2","71","training","adjacent","BA","2","1","N.jpg","O.jpg","1","0","0","",""
"","feedback","","html-keyboard-response","460","505327","0.0-1.0-645.0-0.0","0","0","13556","","null","","","null","71","","","","","","","","","","","","","","","",""
"","time_out","","html-keyboard-response","461","507329","0.0-1.0-647.0-0.0","0","0","13556","","null","","","null","71","","","","","","","","","","","","","","","",""
"","ITI","","html-keyboard-response","462","508331","0.0-1.0-648.0","0","0","13556","","null","","","null","71","","","","","","","","","","","","","","","NaN",""
"","S1","","html-keyboard-response","463","508583","0.0-1.0-650.0","0","0","13556","","null","","","null","72","","","","","","","","","","","","","","","",""
"","ISI","","html-keyboard-response","464","508736","0.0-1.0-651.0","0","0","13556","","68","","","68","72","d","","","","","","","","","","","","","","",""
"","S2","","html-keyboard-response","465","508988","0.0-1.0-652.0","0","0","13556","","null","","","null","72","","NaN","","","","","","","","","","","","","",""
"","response","","html-keyboard-response","466","509477","0.0-1.0-653.0-0.0","0","0","13556","","488","","","68","72","","","2","72","training","adjacent","DC","4","3","L.jpg","R.jpg","1","0","0","",""
"","feedback","","html-keyboard-response","467","510480","0.0-1.0-654.0-0.0","0","0","13556","","null","","","null","72","","","","","","","","","","","","","","","",""
"","time_out","","html-keyboard-response","468","512482","0.0-1.0-656.0-0.0","0","0","13556","","null","","","null","72","","","","","","","","","","","","","","","",""
"","ITI","","html-keyboard-response","469","513484","0.0-1.0-657.0","0","0","13556","","null","","","null","72","","","","","","","","","","","","","","","NaN",""
"","S1","","html-keyboard-response","470","513737","0.0-1.0-659.0","0","0","13556","","null","","","null","73","","","","","","","","","","","","","","","",""
"","ISI","","html-keyboard-response","471","513889","0.0-1.0-660.0","0","0","13556","","null","","","null","73","NaN","","","","","","","","","","","","","","",""
"","S2","","html-keyboard-response","472","514142","0.0-1.0-661.0","0","0","13556","","null","","","null","73","","NaN","","","","","","","","","","","","","",""
"","response","","html-keyboard-response","473","514205","0.0-1.0-662.0-0.0","0","0","13556","","62","","","75","73","","","2","73","training","adjacent","CB","3","2","R.jpg","N.jpg","0","0","1","",""
"","feedback","","html-keyboard-response","474","515208","0.0-1.0-663.0-0.0","0","0","13556","","null","","","null","73","","","","","","","","","","","","","","","",""
"","ITI","","html-keyboard-response","475","516210","0.0-1.0-666.0","0","0","13556","","null","","","null","73","","","","","","","","","","","","","","","NaN",""
"","S1","","html-keyboard-response","476","516463","0.0-1.0-668.0","0","0","13556","","null","","","null","74","","","","","","","","","","","","","","","",""
"","ISI","","html-keyboard-response","477","516615","0.0-1.0-669.0","0","0","13556","","null","","","null","74","NaN","","","","","","","","","","","","","","",""
"","S2","","html-keyboard-response","478","516867","0.0-1.0-670.0","0","0","13556","","null","","","null","74","","NaN","","","","","","","","","","","","","",""
"","response","","html-keyboard-response","479","516926","0.0-1.0-671.0-0.0","0","0","13556","","57","","","75","74","","","2","74","training","adjacent","FE","6","5","P.jpg","Q.jpg","0","0","1","",""
"","feedback","","html-keyboard-response","480","517928","0.0-1.0-672.0-0.0","0","0","13556","","null","","","null","74","","","","","","","","","","","","","","","",""
"","ITI","","html-keyboard-response","481","518932","0.0-1.0-675.0","0","0","13556","","null","","","null","74","","","","","","","","","","","","","","","NaN",""
"","S1","","html-keyboard-response","482","519184","0.0-1.0-677.0","0","0","13556","","null","","","null","75","","","","","","","","","","","","","","","",""
"","ISI","","html-keyboard-response","483","519335","0.0-1.0-678.0","0","0","13556","","null","","","null","75","NaN","","","","","","","","","","","","","","",""
"","S2","","html-keyboard-response","484","519587","0.0-1.0-679.0","0","0","13556","","null","","","null","75","","NaN","","","","","","","","","","","","","",""
"","response","","html-keyboard-response","485","519667","0.0-1.0-680.0-0.0","0","0","13556","","78","","","75","75","","","2","75","training","adjacent","CB","3","2","R.jpg","N.jpg","0","0","1","",""
"","feedback","","html-keyboard-response","486","520669","0.0-1.0-681.0-0.0","0","0","13556","","null","","","null","75","","","","","","","","","","","","","","","",""
"","ITI","","html-keyboard-response","487","521671","0.0-1.0-684.0","0","0","13556","","null","","","null","75","","","","","","","","","","","","","","","NaN",""
"","S1","","html-keyboard-response","488","521924","0.0-1.0-686.0","0","0","13556","","null","","","null","76","","","","","","","","","","","","","","","",""
"","ISI","","html-keyboard-response","489","522077","0.0-1.0-687.0","0","0","13556","","null","","","null","76","NaN","","","","","","","","","","","","","","",""
"","S2","","html-keyboard-response","490","522329","0.0-1.0-688.0","0","0","13556","","null","","","null","76","","NaN","","","","","","","","","","","","","",""
"","response","","html-keyboard-response","491","522330","0.0-1.0-689.0-0.0","0","0","13556","","0","","","68","76","","","2","76","training","adjacent","AB","1","2","O.jpg","N.jpg","1","1","1","",""
"","feedback","","html-keyboard-response","492","523332","0.0-1.0-690.0-0.0","0","0","13556","","null","","","null","76","","","","","","","","","","","","","","","",""
"","ITI","","html-keyboard-response","493","524334","0.0-1.0-693.0","0","0","13556","","null","","","null","76","","","","","","","","","","","","","","","NaN",""
"","S1","","html-keyboard-response","494","524586","0.0-1.0-695.0","0","0","13556","","null","","","null","77","","","","","","","","","","","","","","","",""
"","ISI","","html-keyboard-response","495","524738","0.0-1.0-696.0","0","0","13556","","null","","","null","77","NaN","","","","","","","","","","","","","","",""
"","S2","","html-keyboard-response","496","524975","0.0-1.0-697.0","0","0","13556","","236","","","68","77","","d","2","77","training","adjacent","EF","5","6","Q.jpg","P.jpg","1","1","1","",""
"","feedback","","html-keyboard-response","497","525977","0.0-1.0-699.0-0.0","0","0","13556","","null","","","null","77","","","","","","","","","","","","","","","",""
"","ITI","","html-keyboard-response","498","526979","0.0-1.0-702.0","0","0","13556","","null","","","null","77","","","","","","","","","","","","","","","NaN",""
"","S1","","html-keyboard-response","499","527233","0.0-1.0-704.0","0","0","13556","","null","","","null","78","","","","","","","","","","","","","","","",""
"","ISI","","html-keyboard-response","500","527384","0.0-1.0-705.0","0","0","13556","","null","","","null","78","NaN","","","","","","","","","","","","","","",""
"","S2","","html-keyboard-response","501","527636","0.0-1.0-706.0","0","0","13556","","null","","","null","78","","NaN","","","","","","","","","","","","","",""
"","response","","html-keyboard-response","502","527743","0.0-1.0-707.0-0.0","0","0","13556","","105","","","75","78","","","2","78","training","adjacent","DC","4","3","L.jpg","R.jpg","0","0","1","",""
"","feedback","","html-keyboard-response","503","528746","0.0-1.0-708.0-0.0","0","0","13556","","null","","","null","78","","","","","","","","","","","","","","","",""
"","ITI","","html-keyboard-response","504","529749","0.0-1.0-711.0","0","0","13556","","null","","","null","78","","","","","","","","","","","","","","","NaN",""
"","S1","","html-keyboard-response","505","530001","0.0-1.0-713.0","0","0","13556","","null","","","null","79","","","","","","","","","","","","","","","",""
"","ISI","","html-keyboard-response","506","530154","0.0-1.0-714.0","0","0","13556","","null","","","null","79","NaN","","","","","","","","","","","","","","",""
"","S2","","html-keyboard-response","507","530406","0.0-1.0-715.0","0","0","13556","","null","","","null","79","","NaN","","","","","","","","","","","","","",""
"","response","","html-keyboard-response","508","530472","0.0-1.0-716.0-0.0","0","0","13556","","65","","","68","79","","","2","79","training","adjacent","GF","7","6","M.jpg","P.jpg","1","0","0","",""
"","feedback","","html-keyboard-response","509","531475","0.0-1.0-717.0-0.0","0","0","13556","","null","","","null","79","","","","","","","","","","","","","","","",""
"","time_out","","html-keyboard-response","510","533483","0.0-1.0-719.0-0.0","0","0","13556","","null","","","null","79","","","","","","","","","","","","","","","",""
"","ITI","","html-keyboard-response","511","534485","0.0-1.0-720.0","0","0","13556","","null","","","null","79","","","","","","","","","","","","","","","NaN",""
"","S1","","html-keyboard-response","512","534737","0.0-1.0-722.0","0","0","13556","","null","","","null","80","","","","","","","","","","","","","","","",""
"","ISI","","html-keyboard-response","513","534889","0.0-1.0-723.0","0","0","13556","","null","","","null","80","NaN","","","","","","","","","","","","","","",""
"","S2","","html-keyboard-response","514","535141","0.0-1.0-724.0","0","0","13556","","null","","","null","80","","NaN","","","","","","","","","","","","","",""
"","response","","html-keyboard-response","515","535156","0.0-1.0-725.0-0.0","0","0","13556","","13","","","75","80","","","2","80","training","adjacent","CB","3","2","R.jpg","N.jpg","0","0","1","",""
"","feedback","","html-keyboard-response","516","536158","0.0-1.0-726.0-0.0","0","0","13556","","null","","","null","80","","","","","","","","","","","","","","","",""
"","ITI","","html-keyboard-response","517","537159","0.0-1.0-729.0","0","0","13556","","null","","","null","80","","","","","","","","","","","","","","","NaN",""
"","S1","","html-keyboard-response","518","537413","0.0-1.0-731.0","0","0","13556","","null","","","null","81","","","","","","","","","","","","","","","",""
"","ISI","","html-keyboard-response","519","537564","0.0-1.0-732.0","0","0","13556","","null","","","null","81","NaN","","","","","","","","","","","","","","",""
"","S2","","html-keyboard-response","520","537780","0.0-1.0-733.0","0","0","13556","","214","","","75","81","","k","2","81","training","adjacent","AB","1","2","O.jpg","N.jpg","0","1","0","",""
"","feedback","","html-keyboard-response","521","538783","0.0-1.0-735.0-0.0","0","0","13556","","null","","","null","81","","","","","","","","","","","","","","","",""
"","time_out","","html-keyboard-response","522","540784","0.0-1.0-737.0-0.0","0","0","13556","","null","","","null","81","","","","","","","","","","","","","","","",""
"","ITI","","html-keyboard-response","523","541786","0.0-1.0-738.0","0","0","13556","","null","","","null","81","","","","","","","","","","","","","","","NaN",""
"","S1","","html-keyboard-response","524","542038","0.0-1.0-740.0","0","0","13556","","null","","","null","82","","","","","","","","","","","","","","","",""
"","ISI","","html-keyboard-response","525","542189","0.0-1.0-741.0","0","0","13556","","61","","","68","82","d","","","","","","","","","","","","","","",""
"","S2","","html-keyboard-response","526","542442","0.0-1.0-742.0","0","0","13556","","null","","","null","82","","NaN","","","","","","","","","","","","","",""
"","response","","html-keyboard-response","527","542783","0.0-1.0-743.0-0.0","0","0","13556","","340","","","68","82","","","2","82","training","adjacent","DE","4","5","L.jpg","Q.jpg","1","1","1","",""
"","feedback","","html-keyboard-response","528","543785","0.0-1.0-744.0-0.0","0","0","13556","","null","","","null","82","","","","","","","","","","","","","","","",""
"","ITI","","html-keyboard-response","529","544787","0.0-1.0-747.0","0","0","13556","","null","","","null","82","","","","","","","","","","","","","","","NaN",""
"","S1","","html-keyboard-response","530","545040","0.0-1.0-749.0","0","0","13556","","null","","","null","83","","","","","","","","","","","","","","","",""
"","ISI","","html-keyboard-response","531","545192","0.0-1.0-750.0","0","0","13556","","null","","","null","83","NaN","","","","","","","","","","","","","","",""
"","S2","","html-keyboard-response","532","545444","0.0-1.0-751.0","0","0","13556","","null","","","null","83","","NaN","","","","","","","","","","","","","",""
"","response","","html-keyboard-response","533","545757","0.0-1.0-752.0-0.0","0","0","13556","","312","","","75","83","","","2","83","training","adjacent","BA","2","1","N.jpg","O.jpg","0","0","1","",""
"","feedback","","html-keyboard-response","534","546760","0.0-1.0-753.0-0.0","0","0","13556","","null","","","null","83","","","","","","","","","","","","","","","",""
"","ITI","","html-keyboard-response","535","547762","0.0-1.0-756.0","0","0","13556","","null","","","null","83","","","","","","","","","","","","","","","NaN",""
"","S1","","html-keyboard-response","536","548014","0.0-1.0-758.0","0","0","13556","","null","","","null","84","","","","","","","","","","","","","","","",""
"","ISI","","html-keyboard-response","537","548166","0.0-1.0-759.0","0","0","13556","","null","","","null","84","NaN","","","","","","","","","","","","","","",""
"","S2","","html-keyboard-response","538","548418","0.0-1.0-760.0","0","0","13556","","null","","","null","84","","NaN","","","","","","","","","","","","","",""
"","response","","html-keyboard-response","539","548749","0.0-1.0-761.0-0.0","0","0","13556","","330","","","75","84","","","2","84","training","adjacent","BC","2","3","N.jpg","R.jpg","0","1","0","",""
"","feedback","","html-keyboard-response","540","549751","0.0-1.0-762.0-0.0","0","0","13556","","null","","","null","84","","","","","","","","","","","","","","","",""
"","time_out","","html-keyboard-response","541","551753","0.0-1.0-764.0-0.0","0","0","13556","","null","","","null","84","","","","","","","","","","","","","","","",""
"","ITI","","html-keyboard-response","542","552755","0.0-1.0-765.0","0","0","13556","","null","","","null","84","","","","","","","","","","","","","","","NaN",""
"","S1","","html-keyboard-response","543","553007","0.0-1.0-767.0","0","0","13556","","null","","","null","85","","","","","","","","","","","","","","","",""
"","ISI","","html-keyboard-response","544","553159","0.0-1.0-768.0","0","0","13556","","null","","","null","85","NaN","","","","","","","","","","","","","","",""
"","S2","","html-keyboard-response","545","553412","0.0-1.0-769.0","0","0","13556","","null","","","null","85","","NaN","","","","","","","","","","","","","",""
"","response","","html-keyboard-response","546","553522","0.0-1.0-770.0-0.0","0","0","13556","","109","","","68","85","","","2","85","training","adjacent","CB","3","2","R.jpg","N.jpg","1","0","0","",""
"","feedback","","html-keyboard-response","547","554525","0.0-1.0-771.0-0.0","0","0","13556","","null","","","null","85","","","","","","","","","","","","","","","",""
"","time_out","","html-keyboard-response","548","556526","0.0-1.0-773.0-0.0","0","0","13556","","null","","","null","85","","","","","","","","","","","","","","","",""
"","ITI","","html-keyboard-response","549","557528","0.0-1.0-774.0","0","0","13556","","null","","","null","85","","","","","","","","","","","","","","","NaN",""
"","S1","","html-keyboard-response","550","557780","0.0-1.0-776.0","0","0","13556","","null","","","null","86","","","","","","","","","","","","","","","",""
"","ISI","","html-keyboard-response","551","557932","0.0-1.0-777.0","0","0","13556","","null","","","null","86","NaN","","","","","","","","","","","","","","",""
"","S2","","html-keyboard-response","552","558104","0.0-1.0-778.0","0","0","13556","","171","","","75","86","","k","2","86","training","adjacent","ED","5","4","Q.jpg","L.jpg","0","0","1","",""
"","feedback","","html-keyboard-response","553","559107","0.0-1.0-780.0-0.0","0","0","13556","","null","","","null","86","","","","","","","","","","","","","","","",""
"","ITI","","html-keyboard-response","554","560109","0.0-1.0-783.0","0","0","13556","","null","","","null","86","","","","","","","","","","","","","","","NaN",""
"","S1","","html-keyboard-response","555","560367","0.0-1.0-785.0","0","0","13556","","null","","","null","87","","","","","","","","","","","","","","","",""
"","ISI","","html-keyboard-response","556","560519","0.0-1.0-786.0","0","0","13556","","null","","","null","87","NaN","","","","","","","","","","","","","","",""
"","S2","","html-keyboard-response","557","560738","0.0-1.0-787.0","0","0","13556","","218","","","75","87","","k","2","87","training","adjacent","ED","5","4","Q.jpg","L.jpg","0","0","1","",""
"","feedback","","html-keyboard-response","558","561740","0.0-1.0-789.0-0.0","0","0","13556","","null","","","null","87","","","","","","","","","","","","","","","",""
"","ITI","","html-keyboard-response","559","562742","0.0-1.0-792.0","0","0","13556","","null","","","null","87","","","","","","","","","","","","","","","NaN",""
"","S1","","html-keyboard-response","560","562994","0.0-1.0-794.0","0","0","13556","","null","","","null","88","","","","","","","","","","","","","","","",""
"","ISI","","html-keyboard-response","561","563147","0.0-1.0-795.0","0","0","13556","","null","","","null","88","NaN","","","","","","","","","","","","","","",""
"","S2","","html-keyboard-response","562","563399","0.0-1.0-796.0","0","0","13556","","null","","","null","88","","NaN","","","","","","","","","","","","","",""
"","response","","html-keyboard-response","563","563615","0.0-1.0-797.0-0.0","0","0","13556","","215","","","75","88","","","2","88","training","adjacent","BC","2","3","N.jpg","R.jpg","0","1","0","",""
"","feedback","","html-keyboard-response","564","564617","0.0-1.0-798.0-0.0","0","0","13556","","null","","","null","88","","","","","","","","","","","","","","","",""
"","time_out","","html-keyboard-response","565","566620","0.0-1.0-800.0-0.0","0","0","13556","","null","","","null","88","","","","","","","","","","","","","","","",""
"","ITI","","html-keyboard-response","566","567622","0.0-1.0-801.0","0","0","13556","","null","","","null","88","","","","","","","","","","","","","","","NaN",""
"","S1","","html-keyboard-response","567","567874","0.0-1.0-803.0","0","0","13556","","null","","","null","89","","","","","","","","","","","","","","","",""
"","ISI","","html-keyboard-response","568","568026","0.0-1.0-804.0","0","0","13556","","null","","","null","89","NaN","","","","","","","","","","","","","","",""
"","S2","","html-keyboard-response","569","568278","0.0-1.0-805.0","0","0","13556","","null","","","null","89","","NaN","","","","","","","","","","","","","",""
"","response","","html-keyboard-response","570","568571","0.0-1.0-806.0-0.0","0","0","13556","","292","","","75","89","","","2","89","training","adjacent","BC","2","3","N.jpg","R.jpg","0","1","0","",""
"","feedback","","html-keyboard-response","571","569573","0.0-1.0-807.0-0.0","0","0","13556","","null","","","null","89","","","","","","","","","","","","","","","",""
"","time_out","","html-keyboard-response","572","571575","0.0-1.0-809.0-0.0","0","0","13556","","null","","","null","89","","","","","","","","","","","","","","","",""
"","ITI","","html-keyboard-response","573","572577","0.0-1.0-810.0","0","0","13556","","null","","","null","89","","","","","","","","","","","","","","","NaN",""
"","S1","","html-keyboard-response","574","572842","0.0-1.0-812.0","0","0","13556","","null","","","null","90","","","","","","","","","","","","","","","",""
"","ISI","","html-keyboard-response","575","572994","0.0-1.0-813.0","0","0","13556","","null","","","null","90","NaN","","","","","","","","","","","","","","",""
"","S2","","html-keyboard-response","576","573246","0.0-1.0-814.0","0","0","13556","","null","","","null","90","","NaN","","","","","","","","","","","","","",""
"","response","","html-keyboard-response","577","573452","0.0-1.0-815.0-0.0","0","0","13556","","205","","","68","90","","","2","90","training","adjacent","BC","2","3","N.jpg","R.jpg","1","1","1","",""
"","feedback","","html-keyboard-response","578","574454","0.0-1.0-816.0-0.0","0","0","13556","","null","","","null","90","","","","","","","","","","","","","","","",""
"","ITI","","html-keyboard-response","579","575457","0.0-1.0-819.0","0","0","13556","","null","","","null","90","","","","","","","","","","","","","","","NaN",""
"","S1","","html-keyboard-response","580","575709","0.0-1.0-821.0","0","0","13556","","null","","","null","91","","","","","","","","","","","","","","","",""
"","ISI","","html-keyboard-response","581","575861","0.0-1.0-822.0","0","0","13556","","null","","","null","91","NaN","","","","","","","","","","","","","","",""
