"success","ttype","start_time","trial_type","trial_index","time_elapsed","internal_node_id","warning","missed_checkup","PID","view_history","rt","responses","repeat_instructions","key_press","index","keypress_isi","keypress_S2","block","trial_num","phase","group_type","pair_type","S1_stim","S2_stim","S1_img","S2_img","S1_chosen","S1_higher","accuracy","keypress_iti","total_bonus_tally"
"true","full_screen","d04142023hr1303","fullscreen","0","7040","0.0-0.0","0","0","36470","","","","","","","","","","","","","","","","","","","","","",""
"","instructions","","instructions","1","27770","0.0-1.0-0.0-0.0","0","0","36470","[{""page_index"":0,""viewing_time"":3334},{""page_index"":1,""viewing_time"":8730},{""page_index"":2,""viewing_time"":6952},{""page_index"":3,""viewing_time"":1712}]","20728","","","","","","","","","","","","","","","","","","","",""
"","comprehension_check","","survey-multi-choice","2","50488","0.0-1.0-0.0-1.0","0","0","36470","","22712","{""Q0"":""True"",""Q1"":""D"",""Q2"":""Once the second image appears and while the screen 'MAKE A CHOICE' is shown"",""Q3"":""Green mark"",""Q4"":""either D or K""}","0","","","","","","","","","","","","","","","","","",""
"","start_exp","","html-keyboard-response","3","52983","0.0-1.0-1.0","0","0","36470","","2491","","","32","","","","","","","","","","","","","","","","",""
"","S1","","html-keyboard-response","4","53241","0.0-1.0-2.0","0","0","36470","","null","","","null","0","","","","","","","","","","","","","","","",""
"","ISI","","html-keyboard-response","5","54249","0.0-1.0-3.0","0","0","36470","","null","","","null","0","NaN","","","","","","","","","","","","","","",""
"","S2","","html-keyboard-response","6","54512","0.0-1.0-4.0","0","0","36470","","null","","","null","0","","NaN","","","","","","","","","","","","","",""
"","response","","html-keyboard-response","7","55832","0.0-1.0-5.0-0.0","0","0","36470","","1317","","","75","0","","","1","0","training","adjacent","AB","1","2","Q.jpg","N.jpg","0","1","0","",""
"","feedback","","html-keyboard-response","8","56839","0.0-1.0-6.0-0.0","0","0","36470","","null","","","null","0","","","","","","","","","","","","","","","",""
"","time_out","","html-keyboard-response","9","58849","0.0-1.0-8.0-0.0","0","0","36470","","null","","","null","0","","","","","","","","","","","","","","","",""
"","ITI","","html-keyboard-response","10","59856","0.0-1.0-9.0","0","0","36470","","null","","","null","0","","","","","","","","","","","","","","","NaN",""
"","S1","","html-keyboard-response","11","60122","0.0-1.0-11.0","0","0","36470","","null","","","null","1","","","","","","","","","","","","","","","",""
"","ISI","","html-keyboard-response","12","61134","0.0-1.0-12.0","0","0","36470","","null","","","null","1","NaN","","","","","","","","","","","","","","",""
"","S2","","html-keyboard-response","13","61391","0.0-1.0-13.0","0","0","36470","","null","","","null","1","","NaN","","","","","","","","","","","","","",""
"","response","","html-keyboard-response","14","62338","0.0-1.0-14.0-0.0","0","0","36470","","945","","","68","1","","","1","1","training","adjacent","BC","2","3","N.jpg","M.jpg","1","1","1","",""
"","feedback","","html-keyboard-response","15","63351","0.0-1.0-15.0-0.0","0","0","36470","","null","","","null","1","","","","","","","","","","","","","","","",""
"","ITI","","html-keyboard-response","16","64359","0.0-1.0-18.0","0","0","36470","","null","","","null","1","","","","","","","","","","","","","","","NaN",""
"","S1","","html-keyboard-response","17","64617","0.0-1.0-20.0","0","0","36470","","null","","","null","2","","","","","","","","","","","","","","","",""
"","ISI","","html-keyboard-response","18","65621","0.0-1.0-21.0","0","0","36470","","null","","","null","2","NaN","","","","","","","","","","","","","","",""
"","S2","","html-keyboard-response","19","65879","0.0-1.0-22.0","0","0","36470","","null","","","null","2","","NaN","","","","","","","","","","","","","",""
"","response","","html-keyboard-response","20","66727","0.0-1.0-23.0-0.0","0","0","36470","","846","","","68","2","","","1","2","training","adjacent","BA","2","1","N.jpg","Q.jpg","1","0","0","",""
"","feedback","","html-keyboard-response","21","67735","0.0-1.0-24.0-0.0","0","0","36470","","null","","","null","2","","","","","","","","","","","","","","","",""
"","time_out","","html-keyboard-response","22","69742","0.0-1.0-26.0-0.0","0","0","36470","","null","","","null","2","","","","","","","","","","","","","","","",""
"","ITI","","html-keyboard-response","23","70751","0.0-1.0-27.0","0","0","36470","","null","","","null","2","","","","","","","","","","","","","","","NaN",""
"","S1","","html-keyboard-response","24","71014","0.0-1.0-29.0","0","0","36470","","null","","","null","3","","","","","","","","","","","","","","","",""
"","ISI","","html-keyboard-response","25","72021","0.0-1.0-30.0","0","0","36470","","null","","","null","3","NaN","","","","","","","","","","","","","","",""
"","S2","","html-keyboard-response","26","72281","0.0-1.0-31.0","0","0","36470","","null","","","null","3","","NaN","","","","","","","","","","","","","",""
"","response","","html-keyboard-response","27","72876","0.0-1.0-32.0-0.0","0","0","36470","","593","","","68","3","","","1","3","training","adjacent","BC","2","3","N.jpg","M.jpg","1","1","1","",""
"","feedback","","html-keyboard-response","28","73889","0.0-1.0-33.0-0.0","0","0","36470","","null","","","null","3","","","","","","","","","","","","","","","",""
"","ITI","","html-keyboard-response","29","74903","0.0-1.0-36.0","0","0","36470","","null","","","null","3","","","","","","","","","","","","","","","NaN",""
"","S1","","html-keyboard-response","30","75168","0.0-1.0-38.0","0","0","36470","","null","","","null","4","","","","","","","","","","","","","","","",""
"","ISI","","html-keyboard-response","31","76175","0.0-1.0-39.0","0","0","36470","","null","","","null","4","NaN","","","","","","","","","","","","","","",""
"","S2","","html-keyboard-response","32","76438","0.0-1.0-40.0","0","0","36470","","null","","","null","4","","NaN","","","","","","","","","","","","","",""
"","response","","html-keyboard-response","33","77624","0.0-1.0-41.0-0.0","0","0","36470","","1184","","","75","4","","","1","4","training","adjacent","DC","4","3","R.jpg","M.jpg","0","0","1","",""
"","feedback","","html-keyboard-response","34","78630","0.0-1.0-42.0-0.0","0","0","36470","","null","","","null","4","","","","","","","","","","","","","","","",""
"","ITI","","html-keyboard-response","35","79640","0.0-1.0-45.0","0","0","36470","","null","","","null","4","","","","","","","","","","","","","","","NaN",""
"","S1","","html-keyboard-response","36","79904","0.0-1.0-47.0","0","0","36470","","null","","","null","5","","","","","","","","","","","","","","","",""
"","ISI","","html-keyboard-response","37","80911","0.0-1.0-48.0","0","0","36470","","null","","","null","5","NaN","","","","","","","","","","","","","","",""
"","S2","","html-keyboard-response","38","81172","0.0-1.0-49.0","0","0","36470","","null","","","null","5","","NaN","","","","","","","","","","","","","",""
"","response","","html-keyboard-response","39","82073","0.0-1.0-50.0-0.0","0","0","36470","","898","","","75","5","","","1","5","training","adjacent","DC","4","3","R.jpg","M.jpg","0","0","1","",""
"","feedback","","html-keyboard-response","40","83088","0.0-1.0-51.0-0.0","0","0","36470","","null","","","null","5","","","","","","","","","","","","","","","",""
"","ITI","","html-keyboard-response","41","84092","0.0-1.0-54.0","0","0","36470","","null","","","null","5","","","","","","","","","","","","","","","NaN",""
"","S1","","html-keyboard-response","42","84348","0.0-1.0-56.0","0","0","36470","","null","","","null","6","","","","","","","","","","","","","","","",""
"","ISI","","html-keyboard-response","43","85358","0.0-1.0-57.0","0","0","36470","","null","","","null","6","NaN","","","","","","","","","","","","","","",""
"","S2","","html-keyboard-response","44","85613","0.0-1.0-58.0","0","0","36470","","null","","","null","6","","NaN","","","","","","","","","","","","","",""
"","response","","html-keyboard-response","45","86608","0.0-1.0-59.0-0.0","0","0","36470","","993","","","68","6","","","1","6","training","adjacent","FG","6","7","O.jpg","P.jpg","1","1","1","",""
"","feedback","","html-keyboard-response","46","87622","0.0-1.0-60.0-0.0","0","0","36470","","null","","","null","6","","","","","","","","","","","","","","","",""
"","ITI","","html-keyboard-response","47","88630","0.0-1.0-63.0","0","0","36470","","null","","","null","6","","","","","","","","","","","","","","","NaN",""
"","S1","","html-keyboard-response","48","88887","0.0-1.0-65.0","0","0","36470","","null","","","null","7","","","","","","","","","","","","","","","",""
"","ISI","","html-keyboard-response","49","89891","0.0-1.0-66.0","0","0","36470","","null","","","null","7","NaN","","","","","","","","","","","","","","",""
"","S2","","html-keyboard-response","50","90152","0.0-1.0-67.0","0","0","36470","","null","","","null","7","","NaN","","","","","","","","","","","","","",""
"","response","","html-keyboard-response","51","91386","0.0-1.0-68.0-0.0","0","0","36470","","1231","","","75","7","","","1","7","training","adjacent","CB","3","2","M.jpg","N.jpg","0","0","1","",""
"","feedback","","html-keyboard-response","52","92400","0.0-1.0-69.0-0.0","0","0","36470","","null","","","null","7","","","","","","","","","","","","","","","",""
"","ITI","","html-keyboard-response","53","93407","0.0-1.0-72.0","0","0","36470","","null","","","null","7","","","","","","","","","","","","","","","NaN",""
"","S1","","html-keyboard-response","54","93670","0.0-1.0-74.0","0","0","36470","","null","","","null","8","","","","","","","","","","","","","","","",""
"","ISI","","html-keyboard-response","55","94679","0.0-1.0-75.0","0","0","36470","","null","","","null","8","NaN","","","","","","","","","","","","","","",""
"","S2","","html-keyboard-response","56","94935","0.0-1.0-76.0","0","0","36470","","null","","","null","8","","NaN","","","","","","","","","","","","","",""
"","response","","html-keyboard-response","57","95586","0.0-1.0-77.0-0.0","0","0","36470","","649","","","68","8","","","1","8","training","adjacent","BA","2","1","N.jpg","Q.jpg","1","0","0","",""
"","feedback","","html-keyboard-response","58","96598","0.0-1.0-78.0-0.0","0","0","36470","","null","","","null","8","","","","","","","","","","","","","","","",""
"","time_out","","html-keyboard-response","59","98607","0.0-1.0-80.0-0.0","0","0","36470","","null","","","null","8","","","","","","","","","","","","","","","",""
"","ITI","","html-keyboard-response","60","99615","0.0-1.0-81.0","0","0","36470","","null","","","null","8","","","","","","","","","","","","","","","NaN",""
"","S1","","html-keyboard-response","61","99878","0.0-1.0-83.0","0","0","36470","","null","","","null","9","","","","","","","","","","","","","","","",""
"","ISI","","html-keyboard-response","62","100887","0.0-1.0-84.0","0","0","36470","","null","","","null","9","NaN","","","","","","","","","","","","","","",""
"","S2","","html-keyboard-response","63","101148","0.0-1.0-85.0","0","0","36470","","null","","","null","9","","NaN","","","","","","","","","","","","","",""
"","response","","html-keyboard-response","64","101532","0.0-1.0-86.0-0.0","0","0","36470","","382","","","75","9","","","1","9","training","adjacent","AB","1","2","Q.jpg","N.jpg","0","1","0","",""
"","feedback","","html-keyboard-response","65","102543","0.0-1.0-87.0-0.0","0","0","36470","","null","","","null","9","","","","","","","","","","","","","","","",""
"","time_out","","html-keyboard-response","66","104550","0.0-1.0-89.0-0.0","0","0","36470","","null","","","null","9","","","","","","","","","","","","","","","",""
"","ITI","","html-keyboard-response","67","105560","0.0-1.0-90.0","0","0","36470","","null","","","null","9","","","","","","","","","","","","","","","NaN",""
"","S1","","html-keyboard-response","68","105823","0.0-1.0-92.0","0","0","36470","","null","","","null","10","","","","","","","","","","","","","","","",""
"","ISI","","html-keyboard-response","69","106829","0.0-1.0-93.0","0","0","36470","","null","","","null","10","NaN","","","","","","","","","","","","","","",""
"","S2","","html-keyboard-response","70","107093","0.0-1.0-94.0","0","0","36470","","null","","","null","10","","NaN","","","","","","","","","","","","","",""
"","response","","html-keyboard-response","71","107667","0.0-1.0-95.0-0.0","0","0","36470","","572","","","68","10","","","1","10","training","adjacent","GF","7","6","P.jpg","O.jpg","1","0","0","",""
"","feedback","","html-keyboard-response","72","108677","0.0-1.0-96.0-0.0","0","0","36470","","null","","","null","10","","","","","","","","","","","","","","","",""
"","time_out","","html-keyboard-response","73","110686","0.0-1.0-98.0-0.0","0","0","36470","","null","","","null","10","","","","","","","","","","","","","","","",""
"","ITI","","html-keyboard-response","74","111694","0.0-1.0-99.0","0","0","36470","","null","","","null","10","","","","","","","","","","","","","","","NaN",""
"","S1","","html-keyboard-response","75","111957","0.0-1.0-101.0","0","0","36470","","null","","","null","11","","","","","","","","","","","","","","","",""
"","ISI","","html-keyboard-response","76","112967","0.0-1.0-102.0","0","0","36470","","null","","","null","11","NaN","","","","","","","","","","","","","","",""
"","S2","","html-keyboard-response","77","113227","0.0-1.0-103.0","0","0","36470","","null","","","null","11","","NaN","","","","","","","","","","","","","",""
"","response","","html-keyboard-response","78","113637","0.0-1.0-104.0-0.0","0","0","36470","","407","","","75","11","","","1","11","training","adjacent","FG","6","7","O.jpg","P.jpg","0","1","0","",""
"","feedback","","html-keyboard-response","79","114646","0.0-1.0-105.0-0.0","0","0","36470","","null","","","null","11","","","","","","","","","","","","","","","",""
"","time_out","","html-keyboard-response","80","116652","0.0-1.0-107.0-0.0","0","0","36470","","null","","","null","11","","","","","","","","","","","","","","","",""
"","ITI","","html-keyboard-response","81","117662","0.0-1.0-108.0","0","0","36470","","null","","","null","11","","","","","","","","","","","","","","","NaN",""
"","S1","","html-keyboard-response","82","117928","0.0-1.0-110.0","0","0","36470","","null","","","null","12","","","","","","","","","","","","","","","",""
"","ISI","","html-keyboard-response","83","118939","0.0-1.0-111.0","0","0","36470","","null","","","null","12","NaN","","","","","","","","","","","","","","",""
"","S2","","html-keyboard-response","84","119199","0.0-1.0-112.0","0","0","36470","","null","","","null","12","","NaN","","","","","","","","","","","","","",""
"","response","","html-keyboard-response","85","119569","0.0-1.0-113.0-0.0","0","0","36470","","367","","","68","12","","","1","12","training","adjacent","FE","6","5","O.jpg","L.jpg","1","0","0","",""
"","feedback","","html-keyboard-response","86","120582","0.0-1.0-114.0-0.0","0","0","36470","","null","","","null","12","","","","","","","","","","","","","","","",""
"","time_out","","html-keyboard-response","87","122590","0.0-1.0-116.0-0.0","0","0","36470","","null","","","null","12","","","","","","","","","","","","","","","",""
"","ITI","","html-keyboard-response","88","123598","0.0-1.0-117.0","0","0","36470","","null","","","null","12","","","","","","","","","","","","","","","NaN",""
"","S1","","html-keyboard-response","89","123862","0.0-1.0-119.0","0","0","36470","","null","","","null","13","","","","","","","","","","","","","","","",""
"","ISI","","html-keyboard-response","90","124869","0.0-1.0-120.0","0","0","36470","","null","","","null","13","NaN","","","","","","","","","","","","","","",""
"","S2","","html-keyboard-response","91","125134","0.0-1.0-121.0","0","0","36470","","null","","","null","13","","NaN","","","","","","","","","","","","","",""
"","response","","html-keyboard-response","92","126030","0.0-1.0-122.0-0.0","0","0","36470","","895","","","75","13","","","1","13","training","adjacent","FG","6","7","O.jpg","P.jpg","0","1","0","",""
"","feedback","","html-keyboard-response","93","127036","0.0-1.0-123.0-0.0","0","0","36470","","null","","","null","13","","","","","","","","","","","","","","","",""
"","time_out","","html-keyboard-response","94","129047","0.0-1.0-125.0-0.0","0","0","36470","","null","","","null","13","","","","","","","","","","","","","","","",""
"","ITI","","html-keyboard-response","95","130054","0.0-1.0-126.0","0","0","36470","","null","","","null","13","","","","","","","","","","","","","","","NaN",""
"","S1","","html-keyboard-response","96","130317","0.0-1.0-128.0","0","0","36470","","null","","","null","14","","","","","","","","","","","","","","","",""
"","ISI","","html-keyboard-response","97","131326","0.0-1.0-129.0","0","0","36470","","null","","","null","14","NaN","","","","","","","","","","","","","","",""
"","S2","","html-keyboard-response","98","131588","0.0-1.0-130.0","0","0","36470","","null","","","null","14","","NaN","","","","","","","","","","","","","",""
"","response","","html-keyboard-response","99","132031","0.0-1.0-131.0-0.0","0","0","36470","","441","","","75","14","","","1","14","training","adjacent","ED","5","4","L.jpg","R.jpg","0","0","1","",""
"","feedback","","html-keyboard-response","100","133047","0.0-1.0-132.0-0.0","0","0","36470","","null","","","null","14","","","","","","","","","","","","","","","",""
"","ITI","","html-keyboard-response","101","134060","0.0-1.0-135.0","0","0","36470","","null","","","null","14","","","","","","","","","","","","","","","NaN",""
"","S1","","html-keyboard-response","102","134316","0.0-1.0-137.0","0","0","36470","","null","","","null","15","","","","","","","","","","","","","","","",""
"","ISI","","html-keyboard-response","103","135326","0.0-1.0-138.0","0","0","36470","","null","","","null","15","NaN","","","","","","","","","","","","","","",""
"","S2","","html-keyboard-response","104","135588","0.0-1.0-139.0","0","0","36470","","null","","","null","15","","NaN","","","","","","","","","","","","","",""
"","response","","html-keyboard-response","105","136032","0.0-1.0-140.0-0.0","0","0","36470","","443","","","75","15","","","1","15","training","adjacent","CD","3","4","M.jpg","R.jpg","0","1","0","",""
"","feedback","","html-keyboard-response","106","137046","0.0-1.0-141.0-0.0","0","0","36470","","null","","","null","15","","","","","","","","","","","","","","","",""
"","time_out","","html-keyboard-response","107","139052","0.0-1.0-143.0-0.0","0","0","36470","","null","","","null","15","","","","","","","","","","","","","","","",""
"","ITI","","html-keyboard-response","108","140061","0.0-1.0-144.0","0","0","36470","","null","","","null","15","","","","","","","","","","","","","","","NaN",""
"","S1","","html-keyboard-response","109","140326","0.0-1.0-146.0","0","0","36470","","null","","","null","16","","","","","","","","","","","","","","","",""
"","ISI","","html-keyboard-response","110","141334","0.0-1.0-147.0","0","0","36470","","null","","","null","16","NaN","","","","","","","","","","","","","","",""
"","S2","","html-keyboard-response","111","141590","0.0-1.0-148.0","0","0","36470","","null","","","null","16","","NaN","","","","","","","","","","","","","",""
"","response","","html-keyboard-response","112","142086","0.0-1.0-149.0-0.0","0","0","36470","","494","","","68","16","","","1","16","training","adjacent","FE","6","5","O.jpg","L.jpg","1","0","0","",""
"","feedback","","html-keyboard-response","113","143092","0.0-1.0-150.0-0.0","0","0","36470","","null","","","null","16","","","","","","","","","","","","","","","",""
"","time_out","","html-keyboard-response","114","145101","0.0-1.0-152.0-0.0","0","0","36470","","null","","","null","16","","","","","","","","","","","","","","","",""
"","ITI","","html-keyboard-response","115","146108","0.0-1.0-153.0","0","0","36470","","null","","","null","16","","","","","","","","","","","","","","","NaN",""
"","S1","","html-keyboard-response","116","146373","0.0-1.0-155.0","0","0","36470","","null","","","null","17","","","","","","","","","","","","","","","",""
"","ISI","","html-keyboard-response","117","147381","0.0-1.0-156.0","0","0","36470","","15","","","75","17","k","","","","","","","","","","","","","","",""
"","S2","","html-keyboard-response","118","147645","0.0-1.0-157.0","0","0","36470","","null","","","null","17","","NaN","","","","","","","","","","","","","",""
"","response","","html-keyboard-response","119","148577","0.0-1.0-158.0-0.0","0","0","36470","","929","","","75","17","","","1","17","training","adjacent","BC","2","3","N.jpg","M.jpg","0","1","0","",""
"","feedback","","html-keyboard-response","120","149587","0.0-1.0-159.0-0.0","0","0","36470","","null","","","null","17","","","","","","","","","","","","","","","",""
"","time_out","","html-keyboard-response","121","151597","0.0-1.0-161.0-0.0","0","0","36470","","null","","","null","17","","","","","","","","","","","","","","","",""
"","ITI","","html-keyboard-response","122","152605","0.0-1.0-162.0","0","0","36470","","null","","","null","17","","","","","","","","","","","","","","","NaN",""
"","S1","","html-keyboard-response","123","152867","0.0-1.0-164.0","0","0","36470","","null","","","null","18","","","","","","","","","","","","","","","",""
"","ISI","","html-keyboard-response","124","153876","0.0-1.0-165.0","0","0","36470","","null","","","null","18","NaN","","","","","","","","","","","","","","",""
"","S2","","html-keyboard-response","125","154138","0.0-1.0-166.0","0","0","36470","","null","","","null","18","","NaN","","","","","","","","","","","","","",""
"","response","","html-keyboard-response","126","154970","0.0-1.0-167.0-0.0","0","0","36470","","830","","","75","18","","","1","18","training","adjacent","DC","4","3","R.jpg","M.jpg","0","0","1","",""
"","feedback","","html-keyboard-response","127","155979","0.0-1.0-168.0-0.0","0","0","36470","","null","","","null","18","","","","","","","","","","","","","","","",""
"","ITI","","html-keyboard-response","128","156988","0.0-1.0-171.0","0","0","36470","","null","","","null","18","","","","","","","","","","","","","","","NaN",""
"","S1","","html-keyboard-response","129","157251","0.0-1.0-173.0","0","0","36470","","null","","","null","19","","","","","","","","","","","","","","","",""
"","ISI","","html-keyboard-response","130","158261","0.0-1.0-174.0","0","0","36470","","null","","","null","19","NaN","","","","","","","","","","","","","","",""
"","S2","","html-keyboard-response","131","158526","0.0-1.0-175.0","0","0","36470","","null","","","null","19","","NaN","","","","","","","","","","","","","",""
"","response","","html-keyboard-response","132","160123","0.0-1.0-176.0-0.0","0","0","36470","","1594","","","68","19","","","1","19","training","adjacent","CD","3","4","M.jpg","R.jpg","1","1","1","",""
"","feedback","","html-keyboard-response","133","161133","0.0-1.0-177.0-0.0","0","0","36470","","null","","","null","19","","","","","","","","","","","","","","","",""
"","ITI","","html-keyboard-response","134","162138","0.0-1.0-180.0","0","0","36470","","null","","","null","19","","","","","","","","","","","","","","","NaN",""
"","S1","","html-keyboard-response","135","162396","0.0-1.0-182.0","0","0","36470","","null","","","null","20","","","","","","","","","","","","","","","",""
"","ISI","","html-keyboard-response","136","163405","0.0-1.0-183.0","0","0","36470","","null","","","null","20","NaN","","","","","","","","","","","","","","",""
"","S2","","html-keyboard-response","137","163670","0.0-1.0-184.0","0","0","36470","","null","","","null","20","","NaN","","","","","","","","","","","","","",""
"","response","","html-keyboard-response","138","164379","0.0-1.0-185.0-0.0","0","0","36470","","706","","","75","20","","","1","20","training","adjacent","DC","4","3","R.jpg","M.jpg","0","0","1","",""
"","feedback","","html-keyboard-response","139","165388","0.0-1.0-186.0-0.0","0","0","36470","","null","","","null","20","","","","","","","","","","","","","","","",""
"","ITI","","html-keyboard-response","140","166394","0.0-1.0-189.0","0","0","36470","","null","","","null","20","","","","","","","","","","","","","","","NaN",""
"","S1","","html-keyboard-response","141","166652","0.0-1.0-191.0","0","0","36470","","null","","","null","21","","","","","","","","","","","","","","","",""
"","ISI","","html-keyboard-response","142","167658","0.0-1.0-192.0","0","0","36470","","null","","","null","21","NaN","","","","","","","","","","","","","","",""
"","S2","","html-keyboard-response","143","167915","0.0-1.0-193.0","0","0","36470","","null","","","null","21","","NaN","","","","","","","","","","","","","",""
"","response","","html-keyboard-response","144","168412","0.0-1.0-194.0-0.0","0","0","36470","","494","","","68","21","","","1","21","training","adjacent","AB","1","2","Q.jpg","N.jpg","1","1","1","",""
"","feedback","","html-keyboard-response","145","169417","0.0-1.0-195.0-0.0","0","0","36470","","null","","","null","21","","","","","","","","","","","","","","","",""
"","ITI","","html-keyboard-response","146","170427","0.0-1.0-198.0","0","0","36470","","null","","","null","21","","","","","","","","","","","","","","","NaN",""
"","S1","","html-keyboard-response","147","170693","0.0-1.0-200.0","0","0","36470","","null","","","null","22","","","","","","","","","","","","","","","",""
"","ISI","","html-keyboard-response","148","171698","0.0-1.0-201.0","0","0","36470","","null","","","null","22","NaN","","","","","","","","","","","","","","",""
"","S2","","html-keyboard-response","149","171954","0.0-1.0-202.0","0","0","36470","","null","","","null","22","","NaN","","","","","","","","","","","","","",""
"","response","","html-keyboard-response","150","173115","0.0-1.0-203.0-0.0","0","0","36470","","1158","","","75","22","","","1","22","training","adjacent","GF","7","6","P.jpg","O.jpg","0","0","1","",""
"","feedback","","html-keyboard-response","151","174125","0.0-1.0-204.0-0.0","0","0","36470","","null","","","null","22","","","","","","","","","","","","","","","",""
"","ITI","","html-keyboard-response","152","175128","0.0-1.0-207.0","0","0","36470","","null","","","null","22","","","","","","","","","","","","","","","NaN",""
"","S1","","html-keyboard-response","153","175385","0.0-1.0-209.0","0","0","36470","","null","","","null","23","","","","","","","","","","","","","","","",""
"","ISI","","html-keyboard-response","154","176394","0.0-1.0-210.0","0","0","36470","","null","","","null","23","NaN","","","","","","","","","","","","","","",""
"","S2","","html-keyboard-response","155","176650","0.0-1.0-211.0","0","0","36470","","null","","","null","23","","NaN","","","","","","","","","","","","","",""
"","response","","html-keyboard-response","156","177549","0.0-1.0-212.0-0.0","0","0","36470","","896","","","68","23","","","1","23","training","adjacent","ED","5","4","L.jpg","R.jpg","1","0","0","",""
"","feedback","","html-keyboard-response","157","178565","0.0-1.0-213.0-0.0","0","0","36470","","null","","","null","23","","","","","","","","","","","","","","","",""
"","time_out","","html-keyboard-response","158","180573","0.0-1.0-215.0-0.0","0","0","36470","","null","","","null","23","","","","","","","","","","","","","","","",""
"","ITI","","html-keyboard-response","159","181581","0.0-1.0-216.0","0","0","36470","","null","","","null","23","","","","","","","","","","","","","","","NaN",""
"","S1","","html-keyboard-response","160","181844","0.0-1.0-218.0","0","0","36470","","null","","","null","24","","","","","","","","","","","","","","","",""
"","ISI","","html-keyboard-response","161","182849","0.0-1.0-219.0","0","0","36470","","null","","","null","24","NaN","","","","","","","","","","","","","","",""
"","S2","","html-keyboard-response","162","183104","0.0-1.0-220.0","0","0","36470","","null","","","null","24","","NaN","","","","","","","","","","","","","",""
"","response","","html-keyboard-response","163","183597","0.0-1.0-221.0-0.0","0","0","36470","","491","","","75","24","","","1","24","training","adjacent","FE","6","5","O.jpg","L.jpg","0","0","1","",""
"","feedback","","html-keyboard-response","164","184608","0.0-1.0-222.0-0.0","0","0","36470","","null","","","null","24","","","","","","","","","","","","","","","",""
"","ITI","","html-keyboard-response","165","185618","0.0-1.0-225.0","0","0","36470","","null","","","null","24","","","","","","","","","","","","","","","NaN",""
"","S1","","html-keyboard-response","166","185874","0.0-1.0-227.0","0","0","36470","","null","","","null","25","","","","","","","","","","","","","","","",""
"","ISI","","html-keyboard-response","167","186884","0.0-1.0-228.0","0","0","36470","","null","","","null","25","NaN","","","","","","","","","","","","","","",""
"","S2","","html-keyboard-response","168","187146","0.0-1.0-229.0","0","0","36470","","null","","","null","25","","NaN","","","","","","","","","","","","","",""
"","response","","html-keyboard-response","169","187722","0.0-1.0-230.0-0.0","0","0","36470","","573","","","75","25","","","1","25","training","adjacent","CD","3","4","M.jpg","R.jpg","0","1","0","",""
"","feedback","","html-keyboard-response","170","188729","0.0-1.0-231.0-0.0","0","0","36470","","null","","","null","25","","","","","","","","","","","","","","","",""
"","time_out","","html-keyboard-response","171","190739","0.0-1.0-233.0-0.0","0","0","36470","","null","","","null","25","","","","","","","","","","","","","","","",""
"","ITI","","html-keyboard-response","172","191746","0.0-1.0-234.0","0","0","36470","","null","","","null","25","","","","","","","","","","","","","","","NaN",""
"","S1","","html-keyboard-response","173","192009","0.0-1.0-236.0","0","0","36470","","null","","","null","26","","","","","","","","","","","","","","","",""
"","ISI","","html-keyboard-response","174","193020","0.0-1.0-237.0","0","0","36470","","null","","","null","26","NaN","","","","","","","","","","","","","","",""
"","S2","","html-keyboard-response","175","193283","0.0-1.0-238.0","0","0","36470","","null","","","null","26","","NaN","","","","","","","","","","","","","",""
"","response","","html-keyboard-response","176","193500","0.0-1.0-239.0-0.0","0","0","36470","","215","","","75","26","","","1","26","training","adjacent","AB","1","2","Q.jpg","N.jpg","0","1","0","",""
"","feedback","","html-keyboard-response","177","194503","0.0-1.0-240.0-0.0","0","0","36470","","null","","","null","26","","","","","","","","","","","","","","","",""
"","time_out","","html-keyboard-response","178","196506","0.0-1.0-242.0-0.0","0","0","36470","","null","","","null","26","","","","","","","","","","","","","","","",""
"","ITI","","html-keyboard-response","179","197515","0.0-1.0-243.0","0","0","36470","","null","","","null","26","","","","","","","","","","","","","","","NaN",""
"","S1","","html-keyboard-response","180","197778","0.0-1.0-245.0","0","0","36470","","null","","","null","27","","","","","","","","","","","","","","","",""
"","ISI","","html-keyboard-response","181","198783","0.0-1.0-246.0","0","0","36470","","239","","","68","27","d","","","","","","","","","","","","","","",""
"","S2","","html-keyboard-response","182","198791","0.0-1.0-247.0","0","0","36470","","6","","","75","27","","k","1","27","training","adjacent","GF","7","6","P.jpg","O.jpg","0","0","1","",""
"","feedback","","html-keyboard-response","183","199803","0.0-1.0-249.0-0.0","0","0","36470","","null","","","null","27","","","","","","","","","","","","","","","",""
"","ITI","","html-keyboard-response","184","200809","0.0-1.0-252.0","0","0","36470","","null","","","null","27","","","","","","","","","","","","","","","NaN",""
"","S1","","html-keyboard-response","185","201067","0.0-1.0-254.0","0","0","36470","","null","","","null","28","","","","","","","","","","","","","","","",""
"","ISI","","html-keyboard-response","186","202076","0.0-1.0-255.0","0","0","36470","","null","","","null","28","NaN","","","","","","","","","","","","","","",""
"","S2","","html-keyboard-response","187","202336","0.0-1.0-256.0","0","0","36470","","null","","","null","28","","NaN","","","","","","","","","","","","","",""
"","response","","html-keyboard-response","188","202881","0.0-1.0-257.0-0.0","0","0","36470","","542","","","68","28","","","1","28","training","adjacent","EF","5","6","L.jpg","O.jpg","1","1","1","",""
"","feedback","","html-keyboard-response","189","203890","0.0-1.0-258.0-0.0","0","0","36470","","null","","","null","28","","","","","","","","","","","","","","","",""
"","ITI","","html-keyboard-response","190","204898","0.0-1.0-261.0","0","0","36470","","null","","","null","28","","","","","","","","","","","","","","","NaN",""
"","S1","","html-keyboard-response","191","205164","0.0-1.0-263.0","0","0","36470","","null","","","null","29","","","","","","","","","","","","","","","",""
"","ISI","","html-keyboard-response","192","206172","0.0-1.0-264.0","0","0","36470","","null","","","null","29","NaN","","","","","","","","","","","","","","",""
"","S2","","html-keyboard-response","193","206434","0.0-1.0-265.0","0","0","36470","","null","","","null","29","","NaN","","","","","","","","","","","","","",""
"","response","","html-keyboard-response","194","208194","0.0-1.0-266.0-0.0","0","0","36470","","null","","","null","29","","","1","29","training","adjacent","FG","6","7","O.jpg","P.jpg","NaN","1","0","",""
"","too_slow_prompt","","html-keyboard-response","195","209204","0.0-1.0-268.0-0.0","1","0","36470","","null","","","null","","","","","","","","","","","","","","","","",""
"","time_out","","html-keyboard-response","196","211210","0.0-1.0-269.0-0.0","0","0","36470","","null","","","null","29","","","","","","","","","","","","","","","",""
"","ITI","","html-keyboard-response","197","212216","0.0-1.0-270.0","0","0","36470","","null","","","null","29","","","","","","","","","","","","","","","NaN",""
"","S1","","html-keyboard-response","198","212473","0.0-1.0-272.0","0","0","36470","","null","","","null","30","","","","","","","","","","","","","","","",""
"","ISI","","html-keyboard-response","199","213483","0.0-1.0-273.0","0","0","36470","","null","","","null","30","NaN","","","","","","","","","","","","","","",""
"","S2","","html-keyboard-response","200","213746","0.0-1.0-274.0","0","0","36470","","null","","","null","30","","NaN","","","","","","","","","","","","","",""
"","response","","html-keyboard-response","201","214161","0.0-1.0-275.0-0.0","0","0","36470","","413","","","75","30","","","1","30","training","adjacent","CB","3","2","M.jpg","N.jpg","0","0","1","",""
"","feedback","","html-keyboard-response","202","215169","0.0-1.0-276.0-0.0","0","0","36470","","null","","","null","30","","","","","","","","","","","","","","","",""
"","ITI","","html-keyboard-response","203","216179","0.0-1.0-279.0","0","0","36470","","null","","","null","30","","","","","","","","","","","","","","","NaN",""
"","S1","","html-keyboard-response","204","216443","0.0-1.0-281.0","0","0","36470","","null","","","null","31","","","","","","","","","","","","","","","",""
"","ISI","","html-keyboard-response","205","217450","0.0-1.0-282.0","0","0","36470","","null","","","null","31","NaN","","","","","","","","","","","","","","",""
"","S2","","html-keyboard-response","206","217714","0.0-1.0-283.0","0","0","36470","","null","","","null","31","","NaN","","","","","","","","","","","","","",""
"","response","","html-keyboard-response","207","218090","0.0-1.0-284.0-0.0","0","0","36470","","374","","","68","31","","","1","31","training","adjacent","EF","5","6","L.jpg","O.jpg","1","1","1","",""
"","feedback","","html-keyboard-response","208","219100","0.0-1.0-285.0-0.0","0","0","36470","","null","","","null","31","","","","","","","","","","","","","","","",""
"","ITI","","html-keyboard-response","209","220115","0.0-1.0-288.0","0","0","36470","","null","","","null","31","","","","","","","","","","","","","","","NaN",""
"","S1","","html-keyboard-response","210","220378","0.0-1.0-290.0","0","0","36470","","null","","","null","32","","","","","","","","","","","","","","","",""
"","ISI","","html-keyboard-response","211","221386","0.0-1.0-291.0","0","0","36470","","null","","","null","32","NaN","","","","","","","","","","","","","","",""
"","S2","","html-keyboard-response","212","221649","0.0-1.0-292.0","0","0","36470","","null","","","null","32","","NaN","","","","","","","","","","","","","",""
"","response","","html-keyboard-response","213","222169","0.0-1.0-293.0-0.0","0","0","36470","","518","","","68","32","","","1","32","training","adjacent","BC","2","3","N.jpg","M.jpg","1","1","1","",""
"","feedback","","html-keyboard-response","214","223176","0.0-1.0-294.0-0.0","0","0","36470","","null","","","null","32","","","","","","","","","","","","","","","",""
"","ITI","","html-keyboard-response","215","224185","0.0-1.0-297.0","0","0","36470","","null","","","null","32","","","","","","","","","","","","","","","NaN",""
"","S1","","html-keyboard-response","216","224444","0.0-1.0-299.0","0","0","36470","","null","","","null","33","","","","","","","","","","","","","","","",""
"","ISI","","html-keyboard-response","217","225456","0.0-1.0-300.0","0","0","36470","","null","","","null","33","NaN","","","","","","","","","","","","","","",""
"","S2","","html-keyboard-response","218","225712","0.0-1.0-301.0","0","0","36470","","null","","","null","33","","NaN","","","","","","","","","","","","","",""
"","response","","html-keyboard-response","219","226084","0.0-1.0-302.0-0.0","0","0","36470","","368","","","75","33","","","1","33","training","adjacent","ED","5","4","L.jpg","R.jpg","0","0","1","",""
"","feedback","","html-keyboard-response","220","227098","0.0-1.0-303.0-0.0","0","0","36470","","null","","","null","33","","","","","","","","","","","","","","","",""
"","ITI","","html-keyboard-response","221","228105","0.0-1.0-306.0","0","0","36470","","null","","","null","33","","","","","","","","","","","","","","","NaN",""
"","S1","","html-keyboard-response","222","228363","0.0-1.0-308.0","0","0","36470","","null","","","null","34","","","","","","","","","","","","","","","",""
"","ISI","","html-keyboard-response","223","229369","0.0-1.0-309.0","0","0","36470","","null","","","null","34","NaN","","","","","","","","","","","","","","",""
"","S2","","html-keyboard-response","224","229634","0.0-1.0-310.0","0","0","36470","","null","","","null","34","","NaN","","","","","","","","","","","","","",""
"","response","","html-keyboard-response","225","229970","0.0-1.0-311.0-0.0","0","0","36470","","334","","","68","34","","","1","34","training","adjacent","EF","5","6","L.jpg","O.jpg","1","1","1","",""
"","feedback","","html-keyboard-response","226","230977","0.0-1.0-312.0-0.0","0","0","36470","","null","","","null","34","","","","","","","","","","","","","","","",""
"","ITI","","html-keyboard-response","227","231985","0.0-1.0-315.0","0","0","36470","","null","","","null","34","","","","","","","","","","","","","","","NaN",""
"","S1","","html-keyboard-response","228","232243","0.0-1.0-317.0","0","0","36470","","null","","","null","35","","","","","","","","","","","","","","","",""
"","ISI","","html-keyboard-response","229","233246","0.0-1.0-318.0","0","0","36470","","null","","","null","35","NaN","","","","","","","","","","","","","","",""
"","S2","","html-keyboard-response","230","233506","0.0-1.0-319.0","0","0","36470","","null","","","null","35","","NaN","","","","","","","","","","","","","",""
"","response","","html-keyboard-response","231","234235","0.0-1.0-320.0-0.0","0","0","36470","","726","","","75","35","","","1","35","training","adjacent","CB","3","2","M.jpg","N.jpg","0","0","1","",""
"","feedback","","html-keyboard-response","232","235249","0.0-1.0-321.0-0.0","0","0","36470","","null","","","null","35","","","","","","","","","","","","","","","",""
"","ITI","","html-keyboard-response","233","236258","0.0-1.0-324.0","0","0","36470","","null","","","null","35","","","","","","","","","","","","","","","NaN",""
"","S1","","html-keyboard-response","234","236523","0.0-1.0-326.0","0","0","36470","","null","","","null","36","","","","","","","","","","","","","","","",""
"","ISI","","html-keyboard-response","235","237530","0.0-1.0-327.0","0","0","36470","","null","","","null","36","NaN","","","","","","","","","","","","","","",""
"","S2","","html-keyboard-response","236","237792","0.0-1.0-328.0","0","0","36470","","null","","","null","36","","NaN","","","","","","","","","","","","","",""
"","response","","html-keyboard-response","237","238993","0.0-1.0-329.0-0.0","0","0","36470","","1199","","","75","36","","","1","36","training","adjacent","ED","5","4","L.jpg","R.jpg","0","0","1","",""
"","feedback","","html-keyboard-response","238","240002","0.0-1.0-330.0-0.0","0","0","36470","","null","","","null","36","","","","","","","","","","","","","","","",""
"","ITI","","html-keyboard-response","239","241008","0.0-1.0-333.0","0","0","36470","","null","","","null","36","","","","","","","","","","","","","","","NaN",""
"","S1","","html-keyboard-response","240","241265","0.0-1.0-335.0","0","0","36470","","null","","","null","37","","","","","","","","","","","","","","","",""
"","ISI","","html-keyboard-response","241","242275","0.0-1.0-336.0","0","0","36470","","null","","","null","37","NaN","","","","","","","","","","","","","","",""
"","S2","","html-keyboard-response","242","242536","0.0-1.0-337.0","0","0","36470","","null","","","null","37","","NaN","","","","","","","","","","","","","",""
"","response","","html-keyboard-response","243","243180","0.0-1.0-338.0-0.0","0","0","36470","","641","","","75","37","","","1","37","training","adjacent","CB","3","2","M.jpg","N.jpg","0","0","1","",""
"","feedback","","html-keyboard-response","244","244195","0.0-1.0-339.0-0.0","0","0","36470","","null","","","null","37","","","","","","","","","","","","","","","",""
"","ITI","","html-keyboard-response","245","245208","0.0-1.0-342.0","0","0","36470","","null","","","null","37","","","","","","","","","","","","","","","NaN",""
"","S1","","html-keyboard-response","246","245465","0.0-1.0-344.0","0","0","36470","","null","","","null","38","","","","","","","","","","","","","","","",""
"","ISI","","html-keyboard-response","247","246475","0.0-1.0-345.0","0","0","36470","","null","","","null","38","NaN","","","","","","","","","","","","","","",""
"","S2","","html-keyboard-response","248","246736","0.0-1.0-346.0","0","0","36470","","null","","","null","38","","NaN","","","","","","","","","","","","","",""
"","response","","html-keyboard-response","249","248271","0.0-1.0-347.0-0.0","0","0","36470","","1533","","","68","38","","","1","38","training","adjacent","EF","5","6","L.jpg","O.jpg","1","1","1","",""
"","feedback","","html-keyboard-response","250","249282","0.0-1.0-348.0-0.0","0","0","36470","","null","","","null","38","","","","","","","","","","","","","","","",""
"","ITI","","html-keyboard-response","251","250290","0.0-1.0-351.0","0","0","36470","","null","","","null","38","","","","","","","","","","","","","","","NaN",""
"","S1","","html-keyboard-response","252","250552","0.0-1.0-353.0","0","0","36470","","null","","","null","39","","","","","","","","","","","","","","","",""
"","ISI","","html-keyboard-response","253","251562","0.0-1.0-354.0","0","0","36470","","null","","","null","39","NaN","","","","","","","","","","","","","","",""
"","S2","","html-keyboard-response","254","251821","0.0-1.0-355.0","0","0","36470","","null","","","null","39","","NaN","","","","","","","","","","","","","",""
"","response","","html-keyboard-response","255","252331","0.0-1.0-356.0-0.0","0","0","36470","","507","","","68","39","","","1","39","training","adjacent","DE","4","5","R.jpg","L.jpg","1","1","1","",""
"","feedback","","html-keyboard-response","256","253344","0.0-1.0-357.0-0.0","0","0","36470","","null","","","null","39","","","","","","","","","","","","","","","",""
"","ITI","","html-keyboard-response","257","254352","0.0-1.0-360.0","0","0","36470","","null","","","null","39","","","","","","","","","","","","","","","NaN",""
"","S1","","html-keyboard-response","258","254614","0.0-1.0-362.0","0","0","36470","","null","","","null","40","","","","","","","","","","","","","","","",""
"","ISI","","html-keyboard-response","259","255625","0.0-1.0-363.0","0","0","36470","","null","","","null","40","NaN","","","","","","","","","","","","","","",""
"","S2","","html-keyboard-response","260","255889","0.0-1.0-364.0","0","0","36470","","null","","","null","40","","NaN","","","","","","","","","","","","","",""
"","response","","html-keyboard-response","261","256810","0.0-1.0-365.0-0.0","0","0","36470","","918","","","68","40","","","1","40","training","adjacent","FE","6","5","O.jpg","L.jpg","1","0","0","",""
"","feedback","","html-keyboard-response","262","257817","0.0-1.0-366.0-0.0","0","0","36470","","null","","","null","40","","","","","","","","","","","","","","","",""
"","time_out","","html-keyboard-response","263","259825","0.0-1.0-368.0-0.0","0","0","36470","","null","","","null","40","","","","","","","","","","","","","","","",""
"","ITI","","html-keyboard-response","264","260831","0.0-1.0-369.0","0","0","36470","","null","","","null","40","","","","","","","","","","","","","","","NaN",""
"","S1","","html-keyboard-response","265","261085","0.0-1.0-371.0","0","0","36470","","null","","","null","41","","","","","","","","","","","","","","","",""
"","ISI","","html-keyboard-response","266","262096","0.0-1.0-372.0","0","0","36470","","null","","","null","41","NaN","","","","","","","","","","","","","","",""
"","S2","","html-keyboard-response","267","262362","0.0-1.0-373.0","0","0","36470","","null","","","null","41","","NaN","","","","","","","","","","","","","",""
"","response","","html-keyboard-response","268","263478","0.0-1.0-374.0-0.0","0","0","36470","","1113","","","75","41","","","1","41","training","adjacent","CD","3","4","M.jpg","R.jpg","0","1","0","",""
"","feedback","","html-keyboard-response","269","264487","0.0-1.0-375.0-0.0","0","0","36470","","null","","","null","41","","","","","","","","","","","","","","","",""
"","time_out","","html-keyboard-response","270","266496","0.0-1.0-377.0-0.0","0","0","36470","","null","","","null","41","","","","","","","","","","","","","","","",""
"","ITI","","html-keyboard-response","271","267505","0.0-1.0-378.0","0","0","36470","","null","","","null","41","","","","","","","","","","","","","","","NaN",""
"","S1","","html-keyboard-response","272","267767","0.0-1.0-380.0","0","0","36470","","null","","","null","42","","","","","","","","","","","","","","","",""
"","ISI","","html-keyboard-response","273","268776","0.0-1.0-381.0","0","0","36470","","null","","","null","42","NaN","","","","","","","","","","","","","","",""
"","S2","","html-keyboard-response","274","269033","0.0-1.0-382.0","0","0","36470","","null","","","null","42","","NaN","","","","","","","","","","","","","",""
"","response","","html-keyboard-response","275","270793","0.0-1.0-383.0-0.0","0","0","36470","","null","","","null","42","","","1","42","training","adjacent","DE","4","5","R.jpg","L.jpg","NaN","1","0","",""
"","too_slow_prompt","","html-keyboard-response","276","271801","0.0-1.0-385.0-0.0","1","0","36470","","null","","","null","","","","","","","","","","","","","","","","",""
"","time_out","","html-keyboard-response","277","273809","0.0-1.0-386.0-0.0","0","0","36470","","null","","","null","42","","","","","","","","","","","","","","","",""
"","ITI","","html-keyboard-response","278","274814","0.0-1.0-387.0","0","0","36470","","null","","","null","42","","","","","","","","","","","","","","","NaN",""
"","S1","","html-keyboard-response","279","275070","0.0-1.0-389.0","0","0","36470","","null","","","null","43","","","","","","","","","","","","","","","",""
"","ISI","","html-keyboard-response","280","276082","0.0-1.0-390.0","0","0","36470","","null","","","null","43","NaN","","","","","","","","","","","","","","",""
"","S2","","html-keyboard-response","281","276341","0.0-1.0-391.0","0","0","36470","","null","","","null","43","","NaN","","","","","","","","","","","","","",""
"","response","","html-keyboard-response","282","277015","0.0-1.0-392.0-0.0","0","0","36470","","672","","","75","43","","","1","43","training","adjacent","GF","7","6","P.jpg","O.jpg","0","0","1","",""
"","feedback","","html-keyboard-response","283","278024","0.0-1.0-393.0-0.0","0","0","36470","","null","","","null","43","","","","","","","","","","","","","","","",""
"","ITI","","html-keyboard-response","284","279031","0.0-1.0-396.0","0","0","36470","","null","","","null","43","","","","","","","","","","","","","","","NaN",""
"","S1","","html-keyboard-response","285","279289","0.0-1.0-398.0","0","0","36470","","null","","","null","44","","","","","","","","","","","","","","","",""
"","ISI","","html-keyboard-response","286","280294","0.0-1.0-399.0","0","0","36470","","null","","","null","44","NaN","","","","","","","","","","","","","","",""
"","S2","","html-keyboard-response","287","280553","0.0-1.0-400.0","0","0","36470","","null","","","null","44","","NaN","","","","","","","","","","","","","",""
"","response","","html-keyboard-response","288","280621","0.0-1.0-401.0-0.0","0","0","36470","","65","","","68","44","","","1","44","training","adjacent","DE","4","5","R.jpg","L.jpg","1","1","1","",""
"","feedback","","html-keyboard-response","289","281630","0.0-1.0-402.0-0.0","0","0","36470","","null","","","null","44","","","","","","","","","","","","","","","",""
"","ITI","","html-keyboard-response","290","282641","0.0-1.0-405.0","0","0","36470","","null","","","null","44","","","","","","","","","","","","","","","NaN",""
"","S1","","html-keyboard-response","291","282902","0.0-1.0-407.0","0","0","36470","","null","","","null","45","","","","","","","","","","","","","","","",""
"","ISI","","html-keyboard-response","292","283911","0.0-1.0-408.0","0","0","36470","","null","","","null","45","NaN","","","","","","","","","","","","","","",""
"","S2","","html-keyboard-response","293","284176","0.0-1.0-409.0","0","0","36470","","null","","","null","45","","NaN","","","","","","","","","","","","","",""
"","response","","html-keyboard-response","294","284812","0.0-1.0-410.0-0.0","0","0","36470","","634","","","75","45","","","1","45","training","adjacent","BA","2","1","N.jpg","Q.jpg","0","0","1","",""
"","feedback","","html-keyboard-response","295","285825","0.0-1.0-411.0-0.0","0","0","36470","","null","","","null","45","","","","","","","","","","","","","","","",""
"","ITI","","html-keyboard-response","296","286841","0.0-1.0-414.0","0","0","36470","","null","","","null","45","","","","","","","","","","","","","","","NaN",""
"","S1","","html-keyboard-response","297","287102","0.0-1.0-416.0","0","0","36470","","null","","","null","46","","","","","","","","","","","","","","","",""
"","ISI","","html-keyboard-response","298","288113","0.0-1.0-417.0","0","0","36470","","null","","","null","46","NaN","","","","","","","","","","","","","","",""
"","S2","","html-keyboard-response","299","288374","0.0-1.0-418.0","0","0","36470","","null","","","null","46","","NaN","","","","","","","","","","","","","",""
"","response","","html-keyboard-response","300","288747","0.0-1.0-419.0-0.0","0","0","36470","","370","","","68","46","","","1","46","training","adjacent","DE","4","5","R.jpg","L.jpg","1","1","1","",""
"","feedback","","html-keyboard-response","301","289760","0.0-1.0-420.0-0.0","0","0","36470","","null","","","null","46","","","","","","","","","","","","","","","",""
"","ITI","","html-keyboard-response","302","290766","0.0-1.0-423.0","0","0","36470","","null","","","null","46","","","","","","","","","","","","","","","NaN",""
"","S1","","html-keyboard-response","303","291021","0.0-1.0-425.0","0","0","36470","","null","","","null","47","","","","","","","","","","","","","","","",""
"","ISI","","html-keyboard-response","304","292032","0.0-1.0-426.0","0","0","36470","","null","","","null","47","NaN","","","","","","","","","","","","","","",""
"","S2","","html-keyboard-response","305","292292","0.0-1.0-427.0","0","0","36470","","null","","","null","47","","NaN","","","","","","","","","","","","","",""
"","response","","html-keyboard-response","306","292937","0.0-1.0-428.0-0.0","0","0","36470","","643","","","75","47","","","1","47","training","adjacent","BA","2","1","N.jpg","Q.jpg","0","0","1","",""
"","feedback","","html-keyboard-response","307","293953","0.0-1.0-429.0-0.0","0","0","36470","","null","","","null","47","","","","","","","","","","","","","","","",""
"","ITI","","html-keyboard-response","308","294968","0.0-1.0-432.0","0","0","36470","","null","","","null","47","","","","","","","","","","","","","","","NaN",""
"","block_over","","html-keyboard-response","309","307666","0.0-1.0-433.0-0.0","0","0","36470","","12696","","","32","47","","","","","","","","","","","","","","","",""
"","S1","","html-keyboard-response","310","307925","0.0-1.0-434.0","0","0","36470","","null","","","null","48","","","","","","","","","","","","","","","",""
"","ISI","","html-keyboard-response","311","308934","0.0-1.0-435.0","0","0","36470","","null","","","null","48","NaN","","","","","","","","","","","","","","",""
"","S2","","html-keyboard-response","312","309200","0.0-1.0-436.0","0","0","36470","","null","","","null","48","","NaN","","","","","","","","","","","","","",""
"","response","","html-keyboard-response","313","310960","0.0-1.0-437.0-0.0","0","0","36470","","null","","","null","48","","","2","48","training","adjacent","EF","5","6","L.jpg","O.jpg","NaN","1","0","",""
"","too_slow_prompt","","html-keyboard-response","314","311975","0.0-1.0-439.0-0.0","1","0","36470","","null","","","null","","","","","","","","","","","","","","","","",""
"","time_out","","html-keyboard-response","315","313983","0.0-1.0-440.0-0.0","0","0","36470","","null","","","null","48","","","","","","","","","","","","","","","",""
"","ITI","","html-keyboard-response","316","314990","0.0-1.0-441.0","0","0","36470","","null","","","null","48","","","","","","","","","","","","","","","NaN",""
"","S1","","html-keyboard-response","317","315245","0.0-1.0-443.0","0","0","36470","","null","","","null","49","","","","","","","","","","","","","","","",""
"","ISI","","html-keyboard-response","318","316254","0.0-1.0-444.0","0","0","36470","","null","","","null","49","NaN","","","","","","","","","","","","","","",""
"","S2","","html-keyboard-response","319","316520","0.0-1.0-445.0","0","0","36470","","null","","","null","49","","NaN","","","","","","","","","","","","","",""
"","response","","html-keyboard-response","320","316894","0.0-1.0-446.0-0.0","0","0","36470","","372","","","75","49","","","2","49","training","adjacent","GF","7","6","P.jpg","O.jpg","0","0","1","",""
"","feedback","","html-keyboard-response","321","317904","0.0-1.0-447.0-0.0","0","0","36470","","null","","","null","49","","","","","","","","","","","","","","","",""
"","ITI","","html-keyboard-response","322","318910","0.0-1.0-450.0","0","0","36470","","null","","","null","49","","","","","","","","","","","","","","","NaN",""
"","S1","","html-keyboard-response","323","319168","0.0-1.0-452.0","0","0","36470","","null","","","null","50","","","","","","","","","","","","","","","",""
"","ISI","","html-keyboard-response","324","320182","0.0-1.0-453.0","0","0","36470","","null","","","null","50","NaN","","","","","","","","","","","","","","",""
"","S2","","html-keyboard-response","325","320446","0.0-1.0-454.0","0","0","36470","","null","","","null","50","","NaN","","","","","","","","","","","","","",""
"","response","","html-keyboard-response","326","320889","0.0-1.0-455.0-0.0","0","0","36470","","441","","","75","50","","","2","50","training","adjacent","CD","3","4","M.jpg","R.jpg","0","1","0","",""
"","feedback","","html-keyboard-response","327","321902","0.0-1.0-456.0-0.0","0","0","36470","","null","","","null","50","","","","","","","","","","","","","","","",""
"","time_out","","html-keyboard-response","328","323909","0.0-1.0-458.0-0.0","0","0","36470","","null","","","null","50","","","","","","","","","","","","","","","",""
"","ITI","","html-keyboard-response","329","324919","0.0-1.0-459.0","0","0","36470","","null","","","null","50","","","","","","","","","","","","","","","NaN",""
"","S1","","html-keyboard-response","330","325182","0.0-1.0-461.0","0","0","36470","","null","","","null","51","","","","","","","","","","","","","","","",""
"","ISI","","html-keyboard-response","331","326191","0.0-1.0-462.0","0","0","36470","","null","","","null","51","NaN","","","","","","","","","","","","","","",""
"","S2","","html-keyboard-response","332","326455","0.0-1.0-463.0","0","0","36470","","null","","","null","51","","NaN","","","","","","","","","","","","","",""
"","response","","html-keyboard-response","333","326983","0.0-1.0-464.0-0.0","0","0","36470","","526","","","68","51","","","2","51","training","adjacent","BC","2","3","N.jpg","M.jpg","1","1","1","",""
"","feedback","","html-keyboard-response","334","327991","0.0-1.0-465.0-0.0","0","0","36470","","null","","","null","51","","","","","","","","","","","","","","","",""
"","ITI","","html-keyboard-response","335","328998","0.0-1.0-468.0","0","0","36470","","null","","","null","51","","","","","","","","","","","","","","","NaN",""
"","S1","","html-keyboard-response","336","329262","0.0-1.0-470.0","0","0","36470","","null","","","null","52","","","","","","","","","","","","","","","",""
"","ISI","","html-keyboard-response","337","330270","0.0-1.0-471.0","0","0","36470","","null","","","null","52","NaN","","","","","","","","","","","","","","",""
"","S2","","html-keyboard-response","338","330535","0.0-1.0-472.0","0","0","36470","","null","","","null","52","","NaN","","","","","","","","","","","","","",""
"","response","","html-keyboard-response","339","331004","0.0-1.0-473.0-0.0","0","0","36470","","467","","","68","52","","","2","52","training","adjacent","CB","3","2","M.jpg","N.jpg","1","0","0","",""
"","feedback","","html-keyboard-response","340","332014","0.0-1.0-474.0-0.0","0","0","36470","","null","","","null","52","","","","","","","","","","","","","","","",""
"","time_out","","html-keyboard-response","341","334022","0.0-1.0-476.0-0.0","0","0","36470","","null","","","null","52","","","","","","","","","","","","","","","",""
"","ITI","","html-keyboard-response","342","335028","0.0-1.0-477.0","0","0","36470","","null","","","null","52","","","","","","","","","","","","","","","NaN",""
"","S1","","html-keyboard-response","343","335283","0.0-1.0-479.0","0","0","36470","","null","","","null","53","","","","","","","","","","","","","","","",""
"","ISI","","html-keyboard-response","344","336291","0.0-1.0-480.0","0","0","36470","","null","","","null","53","NaN","","","","","","","","","","","","","","",""
"","S2","","html-keyboard-response","345","336549","0.0-1.0-481.0","0","0","36470","","null","","","null","53","","NaN","","","","","","","","","","","","","",""
"","response","","html-keyboard-response","346","337525","0.0-1.0-482.0-0.0","0","0","36470","","974","","","75","53","","","2","53","training","adjacent","GF","7","6","P.jpg","O.jpg","0","0","1","",""
"","feedback","","html-keyboard-response","347","338533","0.0-1.0-483.0-0.0","0","0","36470","","null","","","null","53","","","","","","","","","","","","","","","",""
"","ITI","","html-keyboard-response","348","339543","0.0-1.0-486.0","0","0","36470","","null","","","null","53","","","","","","","","","","","","","","","NaN",""
"","S1","","html-keyboard-response","349","339800","0.0-1.0-488.0","0","0","36470","","null","","","null","54","","","","","","","","","","","","","","","",""
"","ISI","","html-keyboard-response","350","340814","0.0-1.0-489.0","0","0","36470","","null","","","null","54","NaN","","","","","","","","","","","","","","",""
"","S2","","html-keyboard-response","351","341079","0.0-1.0-490.0","0","0","36470","","null","","","null","54","","NaN","","","","","","","","","","","","","",""
"","response","","html-keyboard-response","352","341734","0.0-1.0-491.0-0.0","0","0","36470","","652","","","75","54","","","2","54","training","adjacent","BA","2","1","N.jpg","Q.jpg","0","0","1","",""
"","feedback","","html-keyboard-response","353","342742","0.0-1.0-492.0-0.0","0","0","36470","","null","","","null","54","","","","","","","","","","","","","","","",""
"","ITI","","html-keyboard-response","354","343748","0.0-1.0-495.0","0","0","36470","","null","","","null","54","","","","","","","","","","","","","","","NaN",""
"","S1","","html-keyboard-response","355","344006","0.0-1.0-497.0","0","0","36470","","null","","","null","55","","","","","","","","","","","","","","","",""
"","ISI","","html-keyboard-response","356","345012","0.0-1.0-498.0","0","0","36470","","null","","","null","55","NaN","","","","","","","","","","","","","","",""
"","S2","","html-keyboard-response","357","345269","0.0-1.0-499.0","0","0","36470","","null","","","null","55","","NaN","","","","","","","","","","","","","",""
"","response","","html-keyboard-response","358","345904","0.0-1.0-500.0-0.0","0","0","36470","","632","","","68","55","","","2","55","training","adjacent","AB","1","2","Q.jpg","N.jpg","1","1","1","",""
"","feedback","","html-keyboard-response","359","346919","0.0-1.0-501.0-0.0","0","0","36470","","null","","","null","55","","","","","","","","","","","","","","","",""
"","ITI","","html-keyboard-response","360","347933","0.0-1.0-504.0","0","0","36470","","null","","","null","55","","","","","","","","","","","","","","","NaN",""
"","S1","","html-keyboard-response","361","348189","0.0-1.0-506.0","0","0","36470","","null","","","null","56","","","","","","","","","","","","","","","",""
"","ISI","","html-keyboard-response","362","349198","0.0-1.0-507.0","0","0","36470","","null","","","null","56","NaN","","","","","","","","","","","","","","",""
"","S2","","html-keyboard-response","363","349458","0.0-1.0-508.0","0","0","36470","","null","","","null","56","","NaN","","","","","","","","","","","","","",""
"","response","","html-keyboard-response","364","349783","0.0-1.0-509.0-0.0","0","0","36470","","322","","","75","56","","","2","56","training","adjacent","AB","1","2","Q.jpg","N.jpg","0","1","0","",""
"","feedback","","html-keyboard-response","365","350798","0.0-1.0-510.0-0.0","0","0","36470","","null","","","null","56","","","","","","","","","","","","","","","",""
"","time_out","","html-keyboard-response","366","352806","0.0-1.0-512.0-0.0","0","0","36470","","null","","","null","56","","","","","","","","","","","","","","","",""
"","ITI","","html-keyboard-response","367","353812","0.0-1.0-513.0","0","0","36470","","null","","","null","56","","","","","","","","","","","","","","","NaN",""
"","S1","","html-keyboard-response","368","354068","0.0-1.0-515.0","0","0","36470","","null","","","null","57","","","","","","","","","","","","","","","",""
"","ISI","","html-keyboard-response","369","355079","0.0-1.0-516.0","0","0","36470","","null","","","null","57","NaN","","","","","","","","","","","","","","",""
"","S2","","html-keyboard-response","370","355338","0.0-1.0-517.0","0","0","36470","","null","","","null","57","","NaN","","","","","","","","","","","","","",""
"","response","","html-keyboard-response","371","355626","0.0-1.0-518.0-0.0","0","0","36470","","285","","","68","57","","","2","57","training","adjacent","FE","6","5","O.jpg","L.jpg","1","0","0","",""
"","feedback","","html-keyboard-response","372","356638","0.0-1.0-519.0-0.0","0","0","36470","","null","","","null","57","","","","","","","","","","","","","","","",""
"","time_out","","html-keyboard-response","373","358645","0.0-1.0-521.0-0.0","0","0","36470","","null","","","null","57","","","","","","","","","","","","","","","",""
"","ITI","","html-keyboard-response","374","359651","0.0-1.0-522.0","0","0","36470","","null","","","null","57","","","","","","","","","","","","","","","NaN",""
"","S1","","html-keyboard-response","375","359908","0.0-1.0-524.0","0","0","36470","","null","","","null","58","","","","","","","","","","","","","","","",""
"","ISI","","html-keyboard-response","376","360918","0.0-1.0-525.0","0","0","36470","","null","","","null","58","NaN","","","","","","","","","","","","","","",""
"","S2","","html-keyboard-response","377","361178","0.0-1.0-526.0","0","0","36470","","null","","","null","58","","NaN","","","","","","","","","","","","","",""
"","response","","html-keyboard-response","378","361271","0.0-1.0-527.0-0.0","0","0","36470","","91","","","75","58","","","2","58","training","adjacent","ED","5","4","L.jpg","R.jpg","0","0","1","",""
"","feedback","","html-keyboard-response","379","362285","0.0-1.0-528.0-0.0","0","0","36470","","null","","","null","58","","","","","","","","","","","","","","","",""
"","ITI","","html-keyboard-response","380","363291","0.0-1.0-531.0","0","0","36470","","null","","","null","58","","","","","","","","","","","","","","","NaN",""
"","S1","","html-keyboard-response","381","363549","0.0-1.0-533.0","0","0","36470","","null","","","null","59","","","","","","","","","","","","","","","",""
"","ISI","","html-keyboard-response","382","364558","0.0-1.0-534.0","0","0","36470","","null","","","null","59","NaN","","","","","","","","","","","","","","",""
"","S2","","html-keyboard-response","383","364817","0.0-1.0-535.0","0","0","36470","","null","","","null","59","","NaN","","","","","","","","","","","","","",""
"","response","","html-keyboard-response","384","365396","0.0-1.0-536.0-0.0","0","0","36470","","576","","","68","59","","","2","59","training","adjacent","CD","3","4","M.jpg","R.jpg","1","1","1","",""
"","feedback","","html-keyboard-response","385","366401","0.0-1.0-537.0-0.0","0","0","36470","","null","","","null","59","","","","","","","","","","","","","","","",""
"","ITI","","html-keyboard-response","386","367412","0.0-1.0-540.0","0","0","36470","","null","","","null","59","","","","","","","","","","","","","","","NaN",""
"","S1","","html-keyboard-response","387","367668","0.0-1.0-542.0","0","0","36470","","null","","","null","60","","","","","","","","","","","","","","","",""
"","ISI","","html-keyboard-response","388","368677","0.0-1.0-543.0","0","0","36470","","null","","","null","60","NaN","","","","","","","","","","","","","","",""
"","S2","","html-keyboard-response","389","368940","0.0-1.0-544.0","0","0","36470","","null","","","null","60","","NaN","","","","","","","","","","","","","",""
"","response","","html-keyboard-response","390","369627","0.0-1.0-545.0-0.0","0","0","36470","","684","","","68","60","","","2","60","training","adjacent","FG","6","7","O.jpg","P.jpg","1","1","1","",""
"","feedback","","html-keyboard-response","391","370638","0.0-1.0-546.0-0.0","0","0","36470","","null","","","null","60","","","","","","","","","","","","","","","",""
"","ITI","","html-keyboard-response","392","371650","0.0-1.0-549.0","0","0","36470","","null","","","null","60","","","","","","","","","","","","","","","NaN",""
"","S1","","html-keyboard-response","393","371910","0.0-1.0-551.0","0","0","36470","","null","","","null","61","","","","","","","","","","","","","","","",""
"","ISI","","html-keyboard-response","394","372918","0.0-1.0-552.0","0","0","36470","","null","","","null","61","NaN","","","","","","","","","","","","","","",""
"","S2","","html-keyboard-response","395","373181","0.0-1.0-553.0","0","0","36470","","null","","","null","61","","NaN","","","","","","","","","","","","","",""
"","response","","html-keyboard-response","396","374664","0.0-1.0-554.0-0.0","0","0","36470","","1480","","","75","61","","","2","61","training","adjacent","DE","4","5","R.jpg","L.jpg","0","1","0","",""
"","feedback","","html-keyboard-response","397","375677","0.0-1.0-555.0-0.0","0","0","36470","","null","","","null","61","","","","","","","","","","","","","","","",""
"","time_out","","html-keyboard-response","398","377685","0.0-1.0-557.0-0.0","0","0","36470","","null","","","null","61","","","","","","","","","","","","","","","",""
"","ITI","","html-keyboard-response","399","378693","0.0-1.0-558.0","0","0","36470","","null","","","null","61","","","","","","","","","","","","","","","NaN",""
"","S1","","html-keyboard-response","400","378957","0.0-1.0-560.0","0","0","36470","","null","","","null","62","","","","","","","","","","","","","","","",""
"","ISI","","html-keyboard-response","401","379961","0.0-1.0-561.0","0","0","36470","","null","","","null","62","NaN","","","","","","","","","","","","","","",""
"","S2","","html-keyboard-response","402","380218","0.0-1.0-562.0","0","0","36470","","null","","","null","62","","NaN","","","","","","","","","","","","","",""
"","response","","html-keyboard-response","403","380658","0.0-1.0-563.0-0.0","0","0","36470","","438","","","68","62","","","2","62","training","adjacent","CD","3","4","M.jpg","R.jpg","1","1","1","",""
"","feedback","","html-keyboard-response","404","381670","0.0-1.0-564.0-0.0","0","0","36470","","null","","","null","62","","","","","","","","","","","","","","","",""
"","ITI","","html-keyboard-response","405","382685","0.0-1.0-567.0","0","0","36470","","null","","","null","62","","","","","","","","","","","","","","","NaN",""
"","S1","","html-keyboard-response","406","382947","0.0-1.0-569.0","0","0","36470","","null","","","null","63","","","","","","","","","","","","","","","",""
"","ISI","","html-keyboard-response","407","383958","0.0-1.0-570.0","0","0","36470","","null","","","null","63","NaN","","","","","","","","","","","","","","",""
"","S2","","html-keyboard-response","408","384217","0.0-1.0-571.0","0","0","36470","","null","","","null","63","","NaN","","","","","","","","","","","","","",""
"","response","","html-keyboard-response","409","384705","0.0-1.0-572.0-0.0","0","0","36470","","485","","","68","63","","","2","63","training","adjacent","GF","7","6","P.jpg","O.jpg","1","0","0","",""
"","feedback","","html-keyboard-response","410","385718","0.0-1.0-573.0-0.0","0","0","36470","","null","","","null","63","","","","","","","","","","","","","","","",""
"","time_out","","html-keyboard-response","411","387730","0.0-1.0-575.0-0.0","0","0","36470","","null","","","null","63","","","","","","","","","","","","","","","",""
"","ITI","","html-keyboard-response","412","388740","0.0-1.0-576.0","0","0","36470","","null","","","null","63","","","","","","","","","","","","","","","NaN",""
"","S1","","html-keyboard-response","413","389005","0.0-1.0-578.0","0","0","36470","","null","","","null","64","","","","","","","","","","","","","","","",""
"","ISI","","html-keyboard-response","414","390013","0.0-1.0-579.0","0","0","36470","","null","","","null","64","NaN","","","","","","","","","","","","","","",""
"","S2","","html-keyboard-response","415","390276","0.0-1.0-580.0","0","0","36470","","null","","","null","64","","NaN","","","","","","","","","","","","","",""
"","response","","html-keyboard-response","416","390683","0.0-1.0-581.0-0.0","0","0","36470","","404","","","75","64","","","2","64","training","adjacent","DC","4","3","R.jpg","M.jpg","0","0","1","",""
"","feedback","","html-keyboard-response","417","391692","0.0-1.0-582.0-0.0","0","0","36470","","null","","","null","64","","","","","","","","","","","","","","","",""
"","ITI","","html-keyboard-response","418","392699","0.0-1.0-585.0","0","0","36470","","null","","","null","64","","","","","","","","","","","","","","","NaN",""
"","S1","","html-keyboard-response","419","392957","0.0-1.0-587.0","0","0","36470","","null","","","null","65","","","","","","","","","","","","","","","",""
"","ISI","","html-keyboard-response","420","393964","0.0-1.0-588.0","0","0","36470","","null","","","null","65","NaN","","","","","","","","","","","","","","",""
"","S2","","html-keyboard-response","421","394227","0.0-1.0-589.0","0","0","36470","","null","","","null","65","","NaN","","","","","","","","","","","","","",""
"","response","","html-keyboard-response","422","394977","0.0-1.0-590.0-0.0","0","0","36470","","747","","","75","65","","","2","65","training","adjacent","CB","3","2","M.jpg","N.jpg","0","0","1","",""
"","feedback","","html-keyboard-response","423","395989","0.0-1.0-591.0-0.0","0","0","36470","","null","","","null","65","","","","","","","","","","","","","","","",""
"","ITI","","html-keyboard-response","424","397005","0.0-1.0-594.0","0","0","36470","","null","","","null","65","","","","","","","","","","","","","","","NaN",""
"","S1","","html-keyboard-response","425","397267","0.0-1.0-596.0","0","0","36470","","null","","","null","66","","","","","","","","","","","","","","","",""
"","ISI","","html-keyboard-response","426","398277","0.0-1.0-597.0","0","0","36470","","null","","","null","66","NaN","","","","","","","","","","","","","","",""
"","S2","","html-keyboard-response","427","398539","0.0-1.0-598.0","0","0","36470","","null","","","null","66","","NaN","","","","","","","","","","","","","",""
"","response","","html-keyboard-response","428","400297","0.0-1.0-599.0-0.0","0","0","36470","","null","","","null","66","","","2","66","training","adjacent","DC","4","3","R.jpg","M.jpg","NaN","0","0","",""
"","too_slow_prompt","","html-keyboard-response","429","401306","0.0-1.0-601.0-0.0","1","0","36470","","null","","","null","","","","","","","","","","","","","","","","",""
"","time_out","","html-keyboard-response","430","403317","0.0-1.0-602.0-0.0","0","0","36470","","null","","","null","66","","","","","","","","","","","","","","","",""
"","ITI","","html-keyboard-response","431","404323","0.0-1.0-603.0","0","0","36470","","null","","","null","66","","","","","","","","","","","","","","","NaN",""
"","S1","","html-keyboard-response","432","404587","0.0-1.0-605.0","0","0","36470","","null","","","null","67","","","","","","","","","","","","","","","",""
"","ISI","","html-keyboard-response","433","405595","0.0-1.0-606.0","0","0","36470","","null","","","null","67","NaN","","","","","","","","","","","","","","",""
"","S2","","html-keyboard-response","434","405859","0.0-1.0-607.0","0","0","36470","","null","","","null","67","","NaN","","","","","","","","","","","","","",""
"","response","","html-keyboard-response","435","406094","0.0-1.0-608.0-0.0","0","0","36470","","232","","","68","67","","","2","67","training","adjacent","EF","5","6","L.jpg","O.jpg","1","1","1","",""
"","feedback","","html-keyboard-response","436","407105","0.0-1.0-609.0-0.0","0","0","36470","","null","","","null","67","","","","","","","","","","","","","","","",""
"","ITI","","html-keyboard-response","437","408117","0.0-1.0-612.0","0","0","36470","","null","","","null","67","","","","","","","","","","","","","","","NaN",""
"","S1","","html-keyboard-response","438","408377","0.0-1.0-614.0","0","0","36470","","null","","","null","68","","","","","","","","","","","","","","","",""
"","ISI","","html-keyboard-response","439","409386","0.0-1.0-615.0","0","0","36470","","null","","","null","68","NaN","","","","","","","","","","","","","","",""
"","S2","","html-keyboard-response","440","409641","0.0-1.0-616.0","0","0","36470","","null","","","null","68","","NaN","","","","","","","","","","","","","",""
"","response","","html-keyboard-response","441","411401","0.0-1.0-617.0-0.0","0","0","36470","","null","","","null","68","","","2","68","training","adjacent","AB","1","2","Q.jpg","N.jpg","NaN","1","0","",""
"","too_slow_prompt","","html-keyboard-response","442","412410","0.0-1.0-619.0-0.0","1","0","36470","","null","","","null","","","","","","","","","","","","","","","","",""
"","time_out","","html-keyboard-response","443","414420","0.0-1.0-620.0-0.0","0","0","36470","","null","","","null","68","","","","","","","","","","","","","","","",""
"","ITI","","html-keyboard-response","444","415426","0.0-1.0-621.0","0","0","36470","","null","","","null","68","","","","","","","","","","","","","","","NaN",""
"","S1","","html-keyboard-response","445","415684","0.0-1.0-623.0","0","0","36470","","null","","","null","69","","","","","","","","","","","","","","","",""
"","ISI","","html-keyboard-response","446","416689","0.0-1.0-624.0","0","0","36470","","194","","","68","69","d","","","","","","","","","","","","","","",""
"","S2","","html-keyboard-response","447","416946","0.0-1.0-625.0","0","0","36470","","null","","","null","69","","NaN","","","","","","","","","","","","","",""
"","response","","html-keyboard-response","448","417150","0.0-1.0-626.0-0.0","0","0","36470","","201","","","68","69","","","2","69","training","adjacent","CD","3","4","M.jpg","R.jpg","1","1","1","",""
"","feedback","","html-keyboard-response","449","418163","0.0-1.0-627.0-0.0","0","0","36470","","null","","","null","69","","","","","","","","","","","","","","","",""
"","ITI","","html-keyboard-response","450","419169","0.0-1.0-630.0","0","0","36470","","null","","","null","69","","","","","","","","","","","","","","","NaN",""
"","S1","","html-keyboard-response","451","419428","0.0-1.0-632.0","0","0","36470","","null","","","null","70","","","","","","","","","","","","","","","",""
"","ISI","","html-keyboard-response","452","420436","0.0-1.0-633.0","0","0","36470","","null","","","null","70","NaN","","","","","","","","","","","","","","",""
"","S2","","html-keyboard-response","453","420699","0.0-1.0-634.0","0","0","36470","","null","","","null","70","","NaN","","","","","","","","","","","","","",""
"","response","","html-keyboard-response","454","420908","0.0-1.0-635.0-0.0","0","0","36470","","206","","","75","70","","","2","70","training","adjacent","FE","6","5","O.jpg","L.jpg","0","0","1","",""
"","feedback","","html-keyboard-response","455","421917","0.0-1.0-636.0-0.0","0","0","36470","","null","","","null","70","","","","","","","","","","","","","","","",""
"","ITI","","html-keyboard-response","456","422928","0.0-1.0-639.0","0","0","36470","","null","","","null","70","","","","","","","","","","","","","","","NaN",""
"","S1","","html-keyboard-response","457","423185","0.0-1.0-641.0","0","0","36470","","null","","","null","71","","","","","","","","","","","","","","","",""
"","ISI","","html-keyboard-response","458","424195","0.0-1.0-642.0","0","0","36470","","null","","","null","71","NaN","","","","","","","","","","","","","","",""
"","S2","","html-keyboard-response","459","424456","0.0-1.0-643.0","0","0","36470","","null","","","null","71","","NaN","","","","","","","","","","","","","",""
"","response","","html-keyboard-response","460","424614","0.0-1.0-644.0-0.0","0","0","36470","","155","","","68","71","","","2","71","training","adjacent","ED","5","4","L.jpg","R.jpg","1","0","0","",""
"","feedback","","html-keyboard-response","461","425628","0.0-1.0-645.0-0.0","0","0","36470","","null","","","null","71","","","","","","","","","","","","","","","",""
"","time_out","","html-keyboard-response","462","427642","0.0-1.0-647.0-0.0","0","0","36470","","null","","","null","71","","","","","","","","","","","","","","","",""
"","ITI","","html-keyboard-response","463","428651","0.0-1.0-648.0","0","0","36470","","null","","","null","71","","","","","","","","","","","","","","","NaN",""
"","S1","","html-keyboard-response","464","428916","0.0-1.0-650.0","0","0","36470","","null","","","null","72","","","","","","","","","","","","","","","",""
"","ISI","","html-keyboard-response","465","429931","0.0-1.0-651.0","0","0","36470","","null","","","null","72","NaN","","","","","","","","","","","","","","",""
"","S2","","html-keyboard-response","466","430195","0.0-1.0-652.0","0","0","36470","","null","","","null","72","","NaN","","","","","","","","","","","","","",""
"","response","","html-keyboard-response","467","430470","0.0-1.0-653.0-0.0","0","0","36470","","272","","","75","72","","","2","72","training","adjacent","FE","6","5","O.jpg","L.jpg","0","0","1","",""
"","feedback","","html-keyboard-response","468","431479","0.0-1.0-654.0-0.0","0","0","36470","","null","","","null","72","","","","","","","","","","","","","","","",""
"","ITI","","html-keyboard-response","469","432490","0.0-1.0-657.0","0","0","36470","","null","","","null","72","","","","","","","","","","","","","","","NaN",""
"","S1","","html-keyboard-response","470","432755","0.0-1.0-659.0","0","0","36470","","null","","","null","73","","","","","","","","","","","","","","","",""
"","ISI","","html-keyboard-response","471","433761","0.0-1.0-660.0","0","0","36470","","null","","","null","73","NaN","","","","","","","","","","","","","","",""
"","S2","","html-keyboard-response","472","434027","0.0-1.0-661.0","0","0","36470","","null","","","null","73","","NaN","","","","","","","","","","","","","",""
"","response","","html-keyboard-response","473","434421","0.0-1.0-662.0-0.0","0","0","36470","","392","","","68","73","","","2","73","training","adjacent","DC","4","3","R.jpg","M.jpg","1","0","0","",""
"","feedback","","html-keyboard-response","474","435436","0.0-1.0-663.0-0.0","0","0","36470","","null","","","null","73","","","","","","","","","","","","","","","",""
"","time_out","","html-keyboard-response","475","437448","0.0-1.0-665.0-0.0","0","0","36470","","null","","","null","73","","","","","","","","","","","","","","","",""
"","ITI","","html-keyboard-response","476","438458","0.0-1.0-666.0","0","0","36470","","null","","","null","73","","","","","","","","","","","","","","","NaN",""
"","S1","","html-keyboard-response","477","438723","0.0-1.0-668.0","0","0","36470","","null","","","null","74","","","","","","","","","","","","","","","",""
"","ISI","","html-keyboard-response","478","439728","0.0-1.0-669.0","0","0","36470","","171","","","75","74","k","","","","","","","","","","","","","","",""
"","S2","","html-keyboard-response","479","439986","0.0-1.0-670.0","0","0","36470","","null","","","null","74","","NaN","","","","","","","","","","","","","",""
"","response","","html-keyboard-response","480","440003","0.0-1.0-671.0-0.0","0","0","36470","","14","","","75","74","","","2","74","training","adjacent","CB","3","2","M.jpg","N.jpg","0","0","1","",""
"","feedback","","html-keyboard-response","481","441010","0.0-1.0-672.0-0.0","0","0","36470","","null","","","null","74","","","","","","","","","","","","","","","",""
"","ITI","","html-keyboard-response","482","442014","0.0-1.0-675.0","0","0","36470","","null","","","null","74","","","","","","","","","","","","","","","NaN",""
"","S1","","html-keyboard-response","483","442275","0.0-1.0-677.0","0","0","36470","","null","","","null","75","","","","","","","","","","","","","","","",""
"","ISI","","html-keyboard-response","484","443280","0.0-1.0-678.0","0","0","36470","","null","","","null","75","NaN","","","","","","","","","","","","","","",""
"","S2","","html-keyboard-response","485","443537","0.0-1.0-679.0","0","0","36470","","null","","","null","75","","NaN","","","","","","","","","","","","","",""
"","response","","html-keyboard-response","486","444065","0.0-1.0-680.0-0.0","0","0","36470","","525","","","68","75","","","2","75","training","adjacent","FG","6","7","O.jpg","P.jpg","1","1","1","",""
"","feedback","","html-keyboard-response","487","445075","0.0-1.0-681.0-0.0","0","0","36470","","null","","","null","75","","","","","","","","","","","","","","","",""
"","ITI","","html-keyboard-response","488","446089","0.0-1.0-684.0","0","0","36470","","null","","","null","75","","","","","","","","","","","","","","","NaN",""
"","S1","","html-keyboard-response","489","446346","0.0-1.0-686.0","0","0","36470","","null","","","null","76","","","","","","","","","","","","","","","",""
"","ISI","","html-keyboard-response","490","447355","0.0-1.0-687.0","0","0","36470","","null","","","null","76","NaN","","","","","","","","","","","","","","",""
"","S2","","html-keyboard-response","491","447617","0.0-1.0-688.0","0","0","36470","","null","","","null","76","","NaN","","","","","","","","","","","","","",""
"","response","","html-keyboard-response","492","448045","0.0-1.0-689.0-0.0","0","0","36470","","426","","","68","76","","","2","76","training","adjacent","BC","2","3","N.jpg","M.jpg","1","1","1","",""
"","feedback","","html-keyboard-response","493","449057","0.0-1.0-690.0-0.0","0","0","36470","","null","","","null","76","","","","","","","","","","","","","","","",""
"","ITI","","html-keyboard-response","494","450067","0.0-1.0-693.0","0","0","36470","","null","","","null","76","","","","","","","","","","","","","","","NaN",""
"","S1","","html-keyboard-response","495","450331","0.0-1.0-695.0","0","0","36470","","null","","","null","77","","","","","","","","","","","","","","","",""
"","ISI","","html-keyboard-response","496","451338","0.0-1.0-696.0","0","0","36470","","null","","","null","77","NaN","","","","","","","","","","","","","","",""
"","S2","","html-keyboard-response","497","451598","0.0-1.0-697.0","0","0","36470","","null","","","null","77","","NaN","","","","","","","","","","","","","",""
"","response","","html-keyboard-response","498","452032","0.0-1.0-698.0-0.0","0","0","36470","","432","","","75","77","","","2","77","training","adjacent","AB","1","2","Q.jpg","N.jpg","0","1","0","",""
"","feedback","","html-keyboard-response","499","453038","0.0-1.0-699.0-0.0","0","0","36470","","null","","","null","77","","","","","","","","","","","","","","","",""
"","time_out","","html-keyboard-response","500","455047","0.0-1.0-701.0-0.0","0","0","36470","","null","","","null","77","","","","","","","","","","","","","","","",""
"","ITI","","html-keyboard-response","501","456057","0.0-1.0-702.0","0","0","36470","","null","","","null","77","","","","","","","","","","","","","","","NaN",""
"","S1","","html-keyboard-response","502","456318","0.0-1.0-704.0","0","0","36470","","null","","","null","78","","","","","","","","","","","","","","","",""
"","ISI","","html-keyboard-response","503","457329","0.0-1.0-705.0","0","0","36470","","null","","","null","78","NaN","","","","","","","","","","","","","","",""
"","S2","","html-keyboard-response","504","457594","0.0-1.0-706.0","0","0","36470","","null","","","null","78","","NaN","","","","","","","","","","","","","",""
"","response","","html-keyboard-response","505","458195","0.0-1.0-707.0-0.0","0","0","36470","","598","","","68","78","","","2","78","training","adjacent","EF","5","6","L.jpg","O.jpg","1","1","1","",""
"","feedback","","html-keyboard-response","506","459210","0.0-1.0-708.0-0.0","0","0","36470","","null","","","null","78","","","","","","","","","","","","","","","",""
"","ITI","","html-keyboard-response","507","460217","0.0-1.0-711.0","0","0","36470","","null","","","null","78","","","","","","","","","","","","","","","NaN",""
"","S1","","html-keyboard-response","508","460481","0.0-1.0-713.0","0","0","36470","","null","","","null","79","","","","","","","","","","","","","","","",""
"","ISI","","html-keyboard-response","509","461489","0.0-1.0-714.0","0","0","36470","","null","","","null","79","NaN","","","","","","","","","","","","","","",""
"","S2","","html-keyboard-response","510","461755","0.0-1.0-715.0","0","0","36470","","null","","","null","79","","NaN","","","","","","","","","","","","","",""
"","response","","html-keyboard-response","511","462345","0.0-1.0-716.0-0.0","0","0","36470","","587","","","68","79","","","2","79","training","adjacent","FG","6","7","O.jpg","P.jpg","1","1","1","",""
"","feedback","","html-keyboard-response","512","463354","0.0-1.0-717.0-0.0","0","0","36470","","null","","","null","79","","","","","","","","","","","","","","","",""
"","ITI","","html-keyboard-response","513","464358","0.0-1.0-720.0","0","0","36470","","null","","","null","79","","","","","","","","","","","","","","","NaN",""
"","S1","","html-keyboard-response","514","464617","0.0-1.0-722.0","0","0","36470","","null","","","null","80","","","","","","","","","","","","","","","",""
"","ISI","","html-keyboard-response","515","465624","0.0-1.0-723.0","0","0","36470","","null","","","null","80","NaN","","","","","","","","","","","","","","",""
"","S2","","html-keyboard-response","516","465889","0.0-1.0-724.0","0","0","36470","","null","","","null","80","","NaN","","","","","","","","","","","","","",""
"","response","","html-keyboard-response","517","466729","0.0-1.0-725.0-0.0","0","0","36470","","837","","","75","80","","","2","80","training","adjacent","BC","2","3","N.jpg","M.jpg","0","1","0","",""
"","feedback","","html-keyboard-response","518","467734","0.0-1.0-726.0-0.0","0","0","36470","","null","","","null","80","","","","","","","","","","","","","","","",""
"","time_out","","html-keyboard-response","519","469746","0.0-1.0-728.0-0.0","0","0","36470","","null","","","null","80","","","","","","","","","","","","","","","",""
"","ITI","","html-keyboard-response","520","470754","0.0-1.0-729.0","0","0","36470","","null","","","null","80","","","","","","","","","","","","","","","NaN",""
"","S1","","html-keyboard-response","521","471016","0.0-1.0-731.0","0","0","36470","","null","","","null","81","","","","","","","","","","","","","","","",""
"","ISI","","html-keyboard-response","522","472024","0.0-1.0-732.0","0","0","36470","","null","","","null","81","NaN","","","","","","","","","","","","","","",""
"","S2","","html-keyboard-response","523","472282","0.0-1.0-733.0","0","0","36470","","null","","","null","81","","NaN","","","","","","","","","","","","","",""
"","response","","html-keyboard-response","524","472535","0.0-1.0-734.0-0.0","0","0","36470","","251","","","75","81","","","2","81","training","adjacent","ED","5","4","L.jpg","R.jpg","0","0","1","",""
"","feedback","","html-keyboard-response","525","473546","0.0-1.0-735.0-0.0","0","0","36470","","null","","","null","81","","","","","","","","","","","","","","","",""
"","ITI","","html-keyboard-response","526","474562","0.0-1.0-738.0","0","0","36470","","null","","","null","81","","","","","","","","","","","","","","","NaN",""
"","S1","","html-keyboard-response","527","474823","0.0-1.0-740.0","0","0","36470","","null","","","null","82","","","","","","","","","","","","","","","",""
"","ISI","","html-keyboard-response","528","475834","0.0-1.0-741.0","0","0","36470","","null","","","null","82","NaN","","","","","","","","","","","","","","",""
"","S2","","html-keyboard-response","529","476096","0.0-1.0-742.0","0","0","36470","","null","","","null","82","","NaN","","","","","","","","","","","","","",""
"","response","","html-keyboard-response","530","476620","0.0-1.0-743.0-0.0","0","0","36470","","522","","","75","82","","","2","82","training","adjacent","BA","2","1","N.jpg","Q.jpg","0","0","1","",""
"","feedback","","html-keyboard-response","531","477633","0.0-1.0-744.0-0.0","0","0","36470","","null","","","null","82","","","","","","","","","","","","","","","",""
"","ITI","","html-keyboard-response","532","478637","0.0-1.0-747.0","0","0","36470","","null","","","null","82","","","","","","","","","","","","","","","NaN",""
"","S1","","html-keyboard-response","533","478897","0.0-1.0-749.0","0","0","36470","","null","","","null","83","","","","","","","","","","","","","","","",""
"","ISI","","html-keyboard-response","534","479904","0.0-1.0-750.0","0","0","36470","","null","","","null","83","NaN","","","","","","","","","","","","","","",""
"","S2","","html-keyboard-response","535","480169","0.0-1.0-751.0","0","0","36470","","null","","","null","83","","NaN","","","","","","","","","","","","","",""
"","response","","html-keyboard-response","536","480239","0.0-1.0-752.0-0.0","0","0","36470","","68","","","75","83","","","2","83","training","adjacent","GF","7","6","P.jpg","O.jpg","0","0","1","",""
"","feedback","","html-keyboard-response","537","481249","0.0-1.0-753.0-0.0","0","0","36470","","null","","","null","83","","","","","","","","","","","","","","","",""
"","ITI","","html-keyboard-response","538","482256","0.0-1.0-756.0","0","0","36470","","null","","","null","83","","","","","","","","","","","","","","","NaN",""
"","S1","","html-keyboard-response","539","482519","0.0-1.0-758.0","0","0","36470","","null","","","null","84","","","","","","","","","","","","","","","",""
"","ISI","","html-keyboard-response","540","483525","0.0-1.0-759.0","0","0","36470","","null","","","null","84","NaN","","","","","","","","","","","","","","",""
"","S2","","html-keyboard-response","541","483786","0.0-1.0-760.0","0","0","36470","","null","","","null","84","","NaN","","","","","","","","","","","","","",""
"","response","","html-keyboard-response","542","484413","0.0-1.0-761.0-0.0","0","0","36470","","625","","","68","84","","","2","84","training","adjacent","BA","2","1","N.jpg","Q.jpg","1","0","0","",""
"","feedback","","html-keyboard-response","543","485424","0.0-1.0-762.0-0.0","0","0","36470","","null","","","null","84","","","","","","","","","","","","","","","",""
"","time_out","","html-keyboard-response","544","487433","0.0-1.0-764.0-0.0","0","0","36470","","null","","","null","84","","","","","","","","","","","","","","","",""
"","ITI","","html-keyboard-response","545","488441","0.0-1.0-765.0","0","0","36470","","null","","","null","84","","","","","","","","","","","","","","","NaN",""
"","S1","","html-keyboard-response","546","488704","0.0-1.0-767.0","0","0","36470","","null","","","null","85","","","","","","","","","","","","","","","",""
"","ISI","","html-keyboard-response","547","489714","0.0-1.0-768.0","0","0","36470","","null","","","null","85","NaN","","","","","","","","","","","","","","",""
"","S2","","html-keyboard-response","548","489976","0.0-1.0-769.0","0","0","36470","","null","","","null","85","","NaN","","","","","","","","","","","","","",""
"","response","","html-keyboard-response","549","490849","0.0-1.0-770.0-0.0","0","0","36470","","871","","","68","85","","","2","85","training","adjacent","BA","2","1","N.jpg","Q.jpg","1","0","0","",""
"","feedback","","html-keyboard-response","550","491864","0.0-1.0-771.0-0.0","0","0","36470","","null","","","null","85","","","","","","","","","","","","","","","",""
"","time_out","","html-keyboard-response","551","493873","0.0-1.0-773.0-0.0","0","0","36470","","null","","","null","85","","","","","","","","","","","","","","","",""
"","ITI","","html-keyboard-response","552","494880","0.0-1.0-774.0","0","0","36470","","null","","","null","85","","","","","","","","","","","","","","","NaN",""
"","S1","","html-keyboard-response","553","495145","0.0-1.0-776.0","0","0","36470","","null","","","null","86","","","","","","","","","","","","","","","",""
"","ISI","","html-keyboard-response","554","496152","0.0-1.0-777.0","0","0","36470","","null","","","null","86","NaN","","","","","","","","","","","","","","",""
"","S2","","html-keyboard-response","555","496409","0.0-1.0-778.0","0","0","36470","","null","","","null","86","","NaN","","","","","","","","","","","","","",""
"","response","","html-keyboard-response","556","496918","0.0-1.0-779.0-0.0","0","0","36470","","507","","","68","86","","","2","86","training","adjacent","BC","2","3","N.jpg","M.jpg","1","1","1","",""
"","feedback","","html-keyboard-response","557","497925","0.0-1.0-780.0-0.0","0","0","36470","","null","","","null","86","","","","","","","","","","","","","","","",""
"","ITI","","html-keyboard-response","558","498934","0.0-1.0-783.0","0","0","36470","","null","","","null","86","","","","","","","","","","","","","","","NaN",""
"","S1","","html-keyboard-response","559","499193","0.0-1.0-785.0","0","0","36470","","null","","","null","87","","","","","","","","","","","","","","","",""
"","ISI","","html-keyboard-response","560","500197","0.0-1.0-786.0","0","0","36470","","null","","","null","87","NaN","","","","","","","","","","","","","","",""
"","S2","","html-keyboard-response","561","500456","0.0-1.0-787.0","0","0","36470","","null","","","null","87","","NaN","","","","","","","","","","","","","",""
"","response","","html-keyboard-response","562","500717","0.0-1.0-788.0-0.0","0","0","36470","","258","","","68","87","","","2","87","training","adjacent","FE","6","5","O.jpg","L.jpg","1","0","0","",""
"","feedback","","html-keyboard-response","563","501728","0.0-1.0-789.0-0.0","0","0","36470","","null","","","null","87","","","","","","","","","","","","","","","",""
"","time_out","","html-keyboard-response","564","503735","0.0-1.0-791.0-0.0","0","0","36470","","null","","","null","87","","","","","","","","","","","","","","","",""
"","ITI","","html-keyboard-response","565","504744","0.0-1.0-792.0","0","0","36470","","null","","","null","87","","","","","","","","","","","","","","","NaN",""
"","S1","","html-keyboard-response","566","505007","0.0-1.0-794.0","0","0","36470","","null","","","null","88","","","","","","","","","","","","","","","",""
"","ISI","","html-keyboard-response","567","506013","0.0-1.0-795.0","0","0","36470","","null","","","null","88","NaN","","","","","","","","","","","","","","",""
"","S2","","html-keyboard-response","568","506273","0.0-1.0-796.0","0","0","36470","","null","","","null","88","","NaN","","","","","","","","","","","","","",""
"","response","","html-keyboard-response","569","506618","0.0-1.0-797.0-0.0","0","0","36470","","344","","","68","88","","","2","88","training","adjacent","EF","5","6","L.jpg","O.jpg","1","1","1","",""
"","feedback","","html-keyboard-response","570","507633","0.0-1.0-798.0-0.0","0","0","36470","","null","","","null","88","","","","","","","","","","","","","","","",""
"","ITI","","html-keyboard-response","571","508648","0.0-1.0-801.0","0","0","36470","","null","","","null","88","","","","","","","","","","","","","","","NaN",""
"","S1","","html-keyboard-response","572","508913","0.0-1.0-803.0","0","0","36470","","null","","","null","89","","","","","","","","","","","","","","","",""
"","ISI","","html-keyboard-response","573","509920","0.0-1.0-804.0","0","0","36470","","null","","","null","89","NaN","","","","","","","","","","","","","","",""
"","S2","","html-keyboard-response","574","510183","0.0-1.0-805.0","0","0","36470","","null","","","null","89","","NaN","","","","","","","","","","","","","",""
"","response","","html-keyboard-response","575","510828","0.0-1.0-806.0-0.0","0","0","36470","","642","","","68","89","","","2","89","training","adjacent","DE","4","5","R.jpg","L.jpg","1","1","1","",""
"","feedback","","html-keyboard-response","576","511839","0.0-1.0-807.0-0.0","0","0","36470","","null","","","null","89","","","","","","","","","","","","","","","",""
"","ITI","","html-keyboard-response","577","512849","0.0-1.0-810.0","0","0","36470","","null","","","null","89","","","","","","","","","","","","","","","NaN",""
"","S1","","html-keyboard-response","578","513112","0.0-1.0-812.0","0","0","36470","","null","","","null","90","","","","","","","","","","","","","","","",""
"","ISI","","html-keyboard-response","579","514116","0.0-1.0-813.0","0","0","36470","","null","","","null","90","NaN","","","","","","","","","","","","","","",""
"","S2","","html-keyboard-response","580","514377","0.0-1.0-814.0","0","0","36470","","null","","","null","90","","NaN","","","","","","","","","","","","","",""
"","response","","html-keyboard-response","581","514685","0.0-1.0-815.0-0.0","0","0","36470","","306","","","68","90","","","2","90","training","adjacent","DE","4","5","R.jpg","L.jpg","1","1","1","",""
"","feedback","","html-keyboard-response","582","515695","0.0-1.0-816.0-0.0","0","0","36470","","null","","","null","90","","","","","","","","","","","","","","","",""
