"success","ttype","start_time","trial_type","trial_index","time_elapsed","internal_node_id","warning","missed_checkup","PID","view_history","rt","responses","repeat_instructions","key_press","index","keypress_isi","keypress_S2","block","trial_num","phase","group_type","pair_type","S1_stim","S2_stim","S1_img","S2_img","S1_chosen","S1_higher","accuracy","keypress_iti","total_bonus_tally"
"true","full_screen","d04152023hr0830","fullscreen","0","17096","0.0-0.0","0","0","58544","","","","","","","","","","","","","","","","","","","","","",""
"","instructions","","instructions","1","293518","0.0-1.0-0.0-0.0","0","0","58544","[{""page_index"":0,""viewing_time"":185889},{""page_index"":1,""viewing_time"":45058},{""page_index"":2,""viewing_time"":224},{""page_index"":3,""viewing_time"":3494},{""page_index"":2,""viewing_time"":537},{""page_index"":1,""viewing_time"":1803},{""page_index"":2,""viewing_time"":35933},{""page_index"":3,""viewing_time"":3471}]","276413","","","","","","","","","","","","","","","","","","","",""
"","comprehension_check","","survey-multi-choice","2","346833","0.0-1.0-0.0-1.0","0","0","58544","","53296","{""Q0"":""True"",""Q1"":""D"",""Q2"":""Once the second image appears and while the screen 'MAKE A CHOICE' is shown"",""Q3"":""Green mark"",""Q4"":""either D or K""}","0","","","","","","","","","","","","","","","","","",""
"","start_exp","","html-keyboard-response","3","348975","0.0-1.0-1.0","0","0","58544","","2133","","","32","","","","","","","","","","","","","","","","",""
"","S1","","html-keyboard-response","4","349243","0.0-1.0-2.0","0","0","58544","","null","","","null","0","","","","","","","","","","","","","","","",""
"","ISI","","html-keyboard-response","5","350246","0.0-1.0-3.0","0","0","58544","","null","","","null","0","NaN","","","","","","","","","","","","","","",""
"","S2","","html-keyboard-response","6","350509","0.0-1.0-4.0","0","0","58544","","null","","","null","0","","NaN","","","","","","","","","","","","","",""
"","response","","html-keyboard-response","7","352275","0.0-1.0-5.0-0.0","0","0","58544","","null","","","null","0","","","1","0","training","adjacent","EF","5","6","Q.jpg","N.jpg","NaN","1","0","",""
"","too_slow_prompt","","html-keyboard-response","8","353285","0.0-1.0-7.0-0.0","1","0","58544","","null","","","null","","","","","","","","","","","","","","","","",""
"","time_out","","html-keyboard-response","9","355295","0.0-1.0-8.0-0.0","0","0","58544","","null","","","null","0","","","","","","","","","","","","","","","",""
"","ITI","","html-keyboard-response","10","356306","0.0-1.0-9.0","0","0","58544","","null","","","null","0","","","","","","","","","","","","","","","NaN",""
"","S1","","html-keyboard-response","11","356575","0.0-1.0-11.0","0","0","58544","","null","","","null","1","","","","","","","","","","","","","","","",""
"","ISI","","html-keyboard-response","12","357585","0.0-1.0-12.0","0","0","58544","","null","","","null","1","NaN","","","","","","","","","","","","","","",""
"","S2","","html-keyboard-response","13","357855","0.0-1.0-13.0","0","0","58544","","null","","","null","1","","NaN","","","","","","","","","","","","","",""
"","response","","html-keyboard-response","14","358577","0.0-1.0-14.0-0.0","0","0","58544","","718","","","68","1","","","1","1","training","adjacent","CD","3","4","L.jpg","R.jpg","1","1","1","",""
"","feedback","","html-keyboard-response","15","359585","0.0-1.0-15.0-0.0","0","0","58544","","null","","","null","1","","","","","","","","","","","","","","","",""
"","ITI","","html-keyboard-response","16","360595","0.0-1.0-18.0","0","0","58544","","null","","","null","1","","","","","","","","","","","","","","","NaN",""
"","S1","","html-keyboard-response","17","360855","0.0-1.0-20.0","0","0","58544","","null","","","null","2","","","","","","","","","","","","","","","",""
"","ISI","","html-keyboard-response","18","361865","0.0-1.0-21.0","0","0","58544","","null","","","null","2","NaN","","","","","","","","","","","","","","",""
"","S2","","html-keyboard-response","19","362126","0.0-1.0-22.0","0","0","58544","","null","","","null","2","","NaN","","","","","","","","","","","","","",""
"","response","","html-keyboard-response","20","362846","0.0-1.0-23.0-0.0","0","0","58544","","714","","","75","2","","","1","2","training","adjacent","ED","5","4","Q.jpg","R.jpg","0","0","1","",""
"","feedback","","html-keyboard-response","21","363855","0.0-1.0-24.0-0.0","0","0","58544","","null","","","null","2","","","","","","","","","","","","","","","",""
"","ITI","","html-keyboard-response","22","364865","0.0-1.0-27.0","0","0","58544","","null","","","null","2","","","","","","","","","","","","","","","NaN",""
"","S1","","html-keyboard-response","23","365127","0.0-1.0-29.0","0","0","58544","","null","","","null","3","","","","","","","","","","","","","","","",""
"","ISI","","html-keyboard-response","24","366135","0.0-1.0-30.0","0","0","58544","","null","","","null","3","NaN","","","","","","","","","","","","","","",""
"","S2","","html-keyboard-response","25","366389","0.0-1.0-31.0","0","0","58544","","null","","","null","3","","NaN","","","","","","","","","","","","","",""
"","response","","html-keyboard-response","26","366926","0.0-1.0-32.0-0.0","0","0","58544","","533","","","75","3","","","1","3","training","adjacent","CD","3","4","L.jpg","R.jpg","0","1","0","",""
"","feedback","","html-keyboard-response","27","367935","0.0-1.0-33.0-0.0","0","0","58544","","null","","","null","3","","","","","","","","","","","","","","","",""
"","time_out","","html-keyboard-response","28","369945","0.0-1.0-35.0-0.0","0","0","58544","","null","","","null","3","","","","","","","","","","","","","","","",""
"","ITI","","html-keyboard-response","29","370955","0.0-1.0-36.0","0","0","58544","","null","","","null","3","","","","","","","","","","","","","","","NaN",""
"","S1","","html-keyboard-response","30","371216","0.0-1.0-38.0","0","0","58544","","null","","","null","4","","","","","","","","","","","","","","","",""
"","ISI","","html-keyboard-response","31","372226","0.0-1.0-39.0","0","0","58544","","null","","","null","4","NaN","","","","","","","","","","","","","","",""
"","S2","","html-keyboard-response","32","372482","0.0-1.0-40.0","0","0","58544","","null","","","null","4","","NaN","","","","","","","","","","","","","",""
"","response","","html-keyboard-response","33","373073","0.0-1.0-41.0-0.0","0","0","58544","","587","","","68","4","","","1","4","training","adjacent","DC","4","3","R.jpg","L.jpg","1","0","0","",""
"","feedback","","html-keyboard-response","34","374106","0.0-1.0-42.0-0.0","0","0","58544","","null","","","null","4","","","","","","","","","","","","","","","",""
"","time_out","","html-keyboard-response","35","376116","0.0-1.0-44.0-0.0","0","0","58544","","null","","","null","4","","","","","","","","","","","","","","","",""
"","ITI","","html-keyboard-response","36","377126","0.0-1.0-45.0","0","0","58544","","null","","","null","4","","","","","","","","","","","","","","","NaN",""
"","S1","","html-keyboard-response","37","377385","0.0-1.0-47.0","0","0","58544","","null","","","null","5","","","","","","","","","","","","","","","",""
"","ISI","","html-keyboard-response","38","378395","0.0-1.0-48.0","0","0","58544","","null","","","null","5","NaN","","","","","","","","","","","","","","",""
"","S2","","html-keyboard-response","39","378676","0.0-1.0-49.0","0","0","58544","","null","","","null","5","","NaN","","","","","","","","","","","","","",""
"","response","","html-keyboard-response","40","379067","0.0-1.0-50.0-0.0","0","0","58544","","387","","","75","5","","","1","5","training","adjacent","DC","4","3","R.jpg","L.jpg","0","0","1","",""
"","feedback","","html-keyboard-response","41","380085","0.0-1.0-51.0-0.0","0","0","58544","","null","","","null","5","","","","","","","","","","","","","","","",""
"","ITI","","html-keyboard-response","42","381098","0.0-1.0-54.0","0","0","58544","","null","","","null","5","","","","","","","","","","","","","","","NaN",""
"","S1","","html-keyboard-response","43","381374","0.0-1.0-56.0","0","0","58544","","null","","","null","6","","","","","","","","","","","","","","","",""
"","ISI","","html-keyboard-response","44","382385","0.0-1.0-57.0","0","0","58544","","null","","","null","6","NaN","","","","","","","","","","","","","","",""
"","S2","","html-keyboard-response","45","382645","0.0-1.0-58.0","0","0","58544","","null","","","null","6","","NaN","","","","","","","","","","","","","",""
"","response","","html-keyboard-response","46","383423","0.0-1.0-59.0-0.0","0","0","58544","","774","","","68","6","","","1","6","training","adjacent","AB","1","2","P.jpg","O.jpg","1","1","1","",""
"","feedback","","html-keyboard-response","47","384448","0.0-1.0-60.0-0.0","0","0","58544","","null","","","null","6","","","","","","","","","","","","","","","",""
"","ITI","","html-keyboard-response","48","385456","0.0-1.0-63.0","0","0","58544","","null","","","null","6","","","","","","","","","","","","","","","NaN",""
"","S1","","html-keyboard-response","49","385714","0.0-1.0-65.0","0","0","58544","","null","","","null","7","","","","","","","","","","","","","","","",""
"","ISI","","html-keyboard-response","50","386741","0.0-1.0-66.0","0","0","58544","","null","","","null","7","NaN","","","","","","","","","","","","","","",""
"","S2","","html-keyboard-response","51","387005","0.0-1.0-67.0","0","0","58544","","null","","","null","7","","NaN","","","","","","","","","","","","","",""
"","response","","html-keyboard-response","52","387579","0.0-1.0-68.0-0.0","0","0","58544","","570","","","68","7","","","1","7","training","adjacent","DC","4","3","R.jpg","L.jpg","1","0","0","",""
"","feedback","","html-keyboard-response","53","388591","0.0-1.0-69.0-0.0","0","0","58544","","null","","","null","7","","","","","","","","","","","","","","","",""
"","time_out","","html-keyboard-response","54","390599","0.0-1.0-71.0-0.0","0","0","58544","","null","","","null","7","","","","","","","","","","","","","","","",""
"","ITI","","html-keyboard-response","55","391605","0.0-1.0-72.0","0","0","58544","","null","","","null","7","","","","","","","","","","","","","","","NaN",""
"","S1","","html-keyboard-response","56","391867","0.0-1.0-74.0","0","0","58544","","null","","","null","8","","","","","","","","","","","","","","","",""
"","ISI","","html-keyboard-response","57","392885","0.0-1.0-75.0","0","0","58544","","null","","","null","8","NaN","","","","","","","","","","","","","","",""
"","S2","","html-keyboard-response","58","393164","0.0-1.0-76.0","0","0","58544","","null","","","null","8","","NaN","","","","","","","","","","","","","",""
"","response","","html-keyboard-response","59","393962","0.0-1.0-77.0-0.0","0","0","58544","","790","","","75","8","","","1","8","training","adjacent","CB","3","2","L.jpg","O.jpg","0","0","1","",""
"","feedback","","html-keyboard-response","60","395003","0.0-1.0-78.0-0.0","0","0","58544","","null","","","null","8","","","","","","","","","","","","","","","",""
"","ITI","","html-keyboard-response","61","396024","0.0-1.0-81.0","0","0","58544","","null","","","null","8","","","","","","","","","","","","","","","NaN",""
"","S1","","html-keyboard-response","62","396287","0.0-1.0-83.0","0","0","58544","","null","","","null","9","","","","","","","","","","","","","","","",""
"","ISI","","html-keyboard-response","63","397399","0.0-1.0-84.0","0","0","58544","","null","","","null","9","NaN","","","","","","","","","","","","","","",""
"","S2","","html-keyboard-response","64","397659","0.0-1.0-85.0","0","0","58544","","null","","","null","9","","NaN","","","","","","","","","","","","","",""
"","response","","html-keyboard-response","65","398287","0.0-1.0-86.0-0.0","0","0","58544","","625","","","68","9","","","1","9","training","adjacent","ED","5","4","Q.jpg","R.jpg","1","0","0","",""
"","feedback","","html-keyboard-response","66","399300","0.0-1.0-87.0-0.0","0","0","58544","","null","","","null","9","","","","","","","","","","","","","","","",""
"","time_out","","html-keyboard-response","67","401310","0.0-1.0-89.0-0.0","0","0","58544","","null","","","null","9","","","","","","","","","","","","","","","",""
"","ITI","","html-keyboard-response","68","402326","0.0-1.0-90.0","0","0","58544","","null","","","null","9","","","","","","","","","","","","","","","NaN",""
"","S1","","html-keyboard-response","69","402587","0.0-1.0-92.0","0","0","58544","","null","","","null","10","","","","","","","","","","","","","","","",""
"","ISI","","html-keyboard-response","70","403598","0.0-1.0-93.0","0","0","58544","","null","","","null","10","NaN","","","","","","","","","","","","","","",""
"","S2","","html-keyboard-response","71","403855","0.0-1.0-94.0","0","0","58544","","null","","","null","10","","NaN","","","","","","","","","","","","","",""
"","response","","html-keyboard-response","72","404228","0.0-1.0-95.0-0.0","0","0","58544","","368","","","75","10","","","1","10","training","adjacent","DE","4","5","R.jpg","Q.jpg","0","1","0","",""
"","feedback","","html-keyboard-response","73","405236","0.0-1.0-96.0-0.0","0","0","58544","","null","","","null","10","","","","","","","","","","","","","","","",""
"","time_out","","html-keyboard-response","74","407246","0.0-1.0-98.0-0.0","0","0","58544","","null","","","null","10","","","","","","","","","","","","","","","",""
"","ITI","","html-keyboard-response","75","408276","0.0-1.0-99.0","0","0","58544","","null","","","null","10","","","","","","","","","","","","","","","NaN",""
"","S1","","html-keyboard-response","76","408544","0.0-1.0-101.0","0","0","58544","","null","","","null","11","","","","","","","","","","","","","","","",""
"","ISI","","html-keyboard-response","77","409556","0.0-1.0-102.0","0","0","58544","","null","","","null","11","NaN","","","","","","","","","","","","","","",""
"","S2","","html-keyboard-response","78","409817","0.0-1.0-103.0","0","0","58544","","null","","","null","11","","NaN","","","","","","","","","","","","","",""
"","response","","html-keyboard-response","79","410650","0.0-1.0-104.0-0.0","0","0","58544","","828","","","75","11","","","1","11","training","adjacent","CB","3","2","L.jpg","O.jpg","0","0","1","",""
"","feedback","","html-keyboard-response","80","411659","0.0-1.0-105.0-0.0","0","0","58544","","null","","","null","11","","","","","","","","","","","","","","","",""
"","ITI","","html-keyboard-response","81","412674","0.0-1.0-108.0","0","0","58544","","null","","","null","11","","","","","","","","","","","","","","","NaN",""
"","S1","","html-keyboard-response","82","412940","0.0-1.0-110.0","0","0","58544","","null","","","null","12","","","","","","","","","","","","","","","",""
"","ISI","","html-keyboard-response","83","413949","0.0-1.0-111.0","0","0","58544","","null","","","null","12","NaN","","","","","","","","","","","","","","",""
"","S2","","html-keyboard-response","84","414211","0.0-1.0-112.0","0","0","58544","","null","","","null","12","","NaN","","","","","","","","","","","","","",""
"","response","","html-keyboard-response","85","414904","0.0-1.0-113.0-0.0","0","0","58544","","690","","","68","12","","","1","12","training","adjacent","GF","7","6","M.jpg","N.jpg","1","0","0","",""
"","feedback","","html-keyboard-response","86","415928","0.0-1.0-114.0-0.0","0","0","58544","","null","","","null","12","","","","","","","","","","","","","","","",""
"","time_out","","html-keyboard-response","87","417940","0.0-1.0-116.0-0.0","0","0","58544","","null","","","null","12","","","","","","","","","","","","","","","",""
"","ITI","","html-keyboard-response","88","418951","0.0-1.0-117.0","0","0","58544","","null","","","null","12","","","","","","","","","","","","","","","NaN",""
"","S1","","html-keyboard-response","89","419209","0.0-1.0-119.0","0","0","58544","","null","","","null","13","","","","","","","","","","","","","","","",""
"","ISI","","html-keyboard-response","90","420221","0.0-1.0-120.0","0","0","58544","","null","","","null","13","NaN","","","","","","","","","","","","","","",""
"","S2","","html-keyboard-response","91","420505","0.0-1.0-121.0","0","0","58544","","null","","","null","13","","NaN","","","","","","","","","","","","","",""
"","response","","html-keyboard-response","92","421058","0.0-1.0-122.0-0.0","0","0","58544","","549","","","75","13","","","1","13","training","adjacent","BA","2","1","O.jpg","P.jpg","0","0","1","",""
"","feedback","","html-keyboard-response","93","422064","0.0-1.0-123.0-0.0","0","0","58544","","null","","","null","13","","","","","","","","","","","","","","","",""
"","ITI","","html-keyboard-response","94","423070","0.0-1.0-126.0","0","0","58544","","null","","","null","13","","","","","","","","","","","","","","","NaN",""
"","S1","","html-keyboard-response","95","423331","0.0-1.0-128.0","0","0","58544","","null","","","null","14","","","","","","","","","","","","","","","",""
"","ISI","","html-keyboard-response","96","424340","0.0-1.0-129.0","0","0","58544","","null","","","null","14","NaN","","","","","","","","","","","","","","",""
"","S2","","html-keyboard-response","97","424601","0.0-1.0-130.0","0","0","58544","","null","","","null","14","","NaN","","","","","","","","","","","","","",""
"","response","","html-keyboard-response","98","425536","0.0-1.0-131.0-0.0","0","0","58544","","932","","","75","14","","","1","14","training","adjacent","DE","4","5","R.jpg","Q.jpg","0","1","0","",""
"","feedback","","html-keyboard-response","99","426551","0.0-1.0-132.0-0.0","0","0","58544","","null","","","null","14","","","","","","","","","","","","","","","",""
"","time_out","","html-keyboard-response","100","428556","0.0-1.0-134.0-0.0","0","0","58544","","null","","","null","14","","","","","","","","","","","","","","","",""
"","ITI","","html-keyboard-response","101","429567","0.0-1.0-135.0","0","0","58544","","null","","","null","14","","","","","","","","","","","","","","","NaN",""
"","S1","","html-keyboard-response","102","429833","0.0-1.0-137.0","0","0","58544","","null","","","null","15","","","","","","","","","","","","","","","",""
"","ISI","","html-keyboard-response","103","430845","0.0-1.0-138.0","0","0","58544","","null","","","null","15","NaN","","","","","","","","","","","","","","",""
"","S2","","html-keyboard-response","104","431110","0.0-1.0-139.0","0","0","58544","","null","","","null","15","","NaN","","","","","","","","","","","","","",""
"","response","","html-keyboard-response","105","431712","0.0-1.0-140.0-0.0","0","0","58544","","584","","","68","15","","","1","15","training","adjacent","FE","6","5","N.jpg","Q.jpg","1","0","0","",""
"","feedback","","html-keyboard-response","106","432724","0.0-1.0-141.0-0.0","0","0","58544","","null","","","null","15","","","","","","","","","","","","","","","",""
"","time_out","","html-keyboard-response","107","434735","0.0-1.0-143.0-0.0","0","0","58544","","null","","","null","15","","","","","","","","","","","","","","","",""
"","ITI","","html-keyboard-response","108","435756","0.0-1.0-144.0","0","0","58544","","null","","","null","15","","","","","","","","","","","","","","","NaN",""
"","S1","","html-keyboard-response","109","436024","0.0-1.0-146.0","0","0","58544","","null","","","null","16","","","","","","","","","","","","","","","",""
"","ISI","","html-keyboard-response","110","437033","0.0-1.0-147.0","0","0","58544","","null","","","null","16","NaN","","","","","","","","","","","","","","",""
"","S2","","html-keyboard-response","111","437290","0.0-1.0-148.0","0","0","58544","","null","","","null","16","","NaN","","","","","","","","","","","","","",""
"","response","","html-keyboard-response","112","437964","0.0-1.0-149.0-0.0","0","0","58544","","669","","","68","16","","","1","16","training","adjacent","ED","5","4","Q.jpg","R.jpg","1","0","0","",""
"","feedback","","html-keyboard-response","113","438970","0.0-1.0-150.0-0.0","0","0","58544","","null","","","null","16","","","","","","","","","","","","","","","",""
"","time_out","","html-keyboard-response","114","440974","0.0-1.0-152.0-0.0","0","0","58544","","null","","","null","16","","","","","","","","","","","","","","","",""
"","ITI","","html-keyboard-response","115","441984","0.0-1.0-153.0","0","0","58544","","null","","","null","16","","","","","","","","","","","","","","","NaN",""
"","S1","","html-keyboard-response","116","442247","0.0-1.0-155.0","0","0","58544","","null","","","null","17","","","","","","","","","","","","","","","",""
"","ISI","","html-keyboard-response","117","443261","0.0-1.0-156.0","0","0","58544","","null","","","null","17","NaN","","","","","","","","","","","","","","",""
"","S2","","html-keyboard-response","118","443525","0.0-1.0-157.0","0","0","58544","","null","","","null","17","","NaN","","","","","","","","","","","","","",""
"","response","","html-keyboard-response","119","444120","0.0-1.0-158.0-0.0","0","0","58544","","589","","","68","17","","","1","17","training","adjacent","DE","4","5","R.jpg","Q.jpg","1","1","1","",""
"","feedback","","html-keyboard-response","120","445135","0.0-1.0-159.0-0.0","0","0","58544","","null","","","null","17","","","","","","","","","","","","","","","",""
"","ITI","","html-keyboard-response","121","446149","0.0-1.0-162.0","0","0","58544","","null","","","null","17","","","","","","","","","","","","","","","NaN",""
"","S1","","html-keyboard-response","122","446404","0.0-1.0-164.0","0","0","58544","","null","","","null","18","","","","","","","","","","","","","","","",""
"","ISI","","html-keyboard-response","123","447411","0.0-1.0-165.0","0","0","58544","","null","","","null","18","NaN","","","","","","","","","","","","","","",""
"","S2","","html-keyboard-response","124","447674","0.0-1.0-166.0","0","0","58544","","null","","","null","18","","NaN","","","","","","","","","","","","","",""
"","response","","html-keyboard-response","125","448511","0.0-1.0-167.0-0.0","0","0","58544","","833","","","75","18","","","1","18","training","adjacent","EF","5","6","Q.jpg","N.jpg","0","1","0","",""
"","feedback","","html-keyboard-response","126","449521","0.0-1.0-168.0-0.0","0","0","58544","","null","","","null","18","","","","","","","","","","","","","","","",""
"","time_out","","html-keyboard-response","127","451633","0.0-1.0-170.0-0.0","0","0","58544","","null","","","null","18","","","","","","","","","","","","","","","",""
"","ITI","","html-keyboard-response","128","452642","0.0-1.0-171.0","0","0","58544","","null","","","null","18","","","","","","","","","","","","","","","NaN",""
"","S1","","html-keyboard-response","129","452964","0.0-1.0-173.0","0","0","58544","","null","","","null","19","","","","","","","","","","","","","","","",""
"","ISI","","html-keyboard-response","130","453975","0.0-1.0-174.0","0","0","58544","","null","","","null","19","NaN","","","","","","","","","","","","","","",""
"","S2","","html-keyboard-response","131","454229","0.0-1.0-175.0","0","0","58544","","null","","","null","19","","NaN","","","","","","","","","","","","","",""
"","response","","html-keyboard-response","132","455699","0.0-1.0-176.0-0.0","0","0","58544","","1413","","","75","19","","","1","19","training","adjacent","EF","5","6","Q.jpg","N.jpg","0","1","0","",""
"","feedback","","html-keyboard-response","133","456715","0.0-1.0-177.0-0.0","0","0","58544","","null","","","null","19","","","","","","","","","","","","","","","",""
"","time_out","","html-keyboard-response","134","458724","0.0-1.0-179.0-0.0","0","0","58544","","null","","","null","19","","","","","","","","","","","","","","","",""
"","ITI","","html-keyboard-response","135","459734","0.0-1.0-180.0","0","0","58544","","null","","","null","19","","","","","","","","","","","","","","","NaN",""
"","S1","","html-keyboard-response","136","459995","0.0-1.0-182.0","0","0","58544","","null","","","null","20","","","","","","","","","","","","","","","",""
"","ISI","","html-keyboard-response","137","461004","0.0-1.0-183.0","0","0","58544","","null","","","null","20","NaN","","","","","","","","","","","","","","",""
"","S2","","html-keyboard-response","138","461264","0.0-1.0-184.0","0","0","58544","","null","","","null","20","","NaN","","","","","","","","","","","","","",""
"","response","","html-keyboard-response","139","461815","0.0-1.0-185.0-0.0","0","0","58544","","547","","","75","20","","","1","20","training","adjacent","BC","2","3","O.jpg","L.jpg","0","1","0","",""
"","feedback","","html-keyboard-response","140","462829","0.0-1.0-186.0-0.0","0","0","58544","","null","","","null","20","","","","","","","","","","","","","","","",""
"","time_out","","html-keyboard-response","141","464841","0.0-1.0-188.0-0.0","0","0","58544","","null","","","null","20","","","","","","","","","","","","","","","",""
"","ITI","","html-keyboard-response","142","465854","0.0-1.0-189.0","0","0","58544","","null","","","null","20","","","","","","","","","","","","","","","NaN",""
"","S1","","html-keyboard-response","143","466111","0.0-1.0-191.0","0","0","58544","","null","","","null","21","","","","","","","","","","","","","","","",""
"","ISI","","html-keyboard-response","144","467122","0.0-1.0-192.0","0","0","58544","","null","","","null","21","NaN","","","","","","","","","","","","","","",""
"","S2","","html-keyboard-response","145","467385","0.0-1.0-193.0","0","0","58544","","null","","","null","21","","NaN","","","","","","","","","","","","","",""
"","response","","html-keyboard-response","146","467870","0.0-1.0-194.0-0.0","0","0","58544","","478","","","68","21","","","1","21","training","adjacent","FG","6","7","N.jpg","M.jpg","1","1","1","",""
"","feedback","","html-keyboard-response","147","468884","0.0-1.0-195.0-0.0","0","0","58544","","null","","","null","21","","","","","","","","","","","","","","","",""
"","ITI","","html-keyboard-response","148","469922","0.0-1.0-198.0","0","0","58544","","null","","","null","21","","","","","","","","","","","","","","","NaN",""
"","S1","","html-keyboard-response","149","470239","0.0-1.0-200.0","0","0","58544","","null","","","null","22","","","","","","","","","","","","","","","",""
"","ISI","","html-keyboard-response","150","471241","0.0-1.0-201.0","0","0","58544","","null","","","null","22","NaN","","","","","","","","","","","","","","",""
"","S2","","html-keyboard-response","151","471501","0.0-1.0-202.0","0","0","58544","","null","","","null","22","","NaN","","","","","","","","","","","","","",""
"","response","","html-keyboard-response","152","472113","0.0-1.0-203.0-0.0","0","0","58544","","609","","","75","22","","","1","22","training","adjacent","DC","4","3","R.jpg","L.jpg","0","0","1","",""
"","feedback","","html-keyboard-response","153","473127","0.0-1.0-204.0-0.0","0","0","58544","","null","","","null","22","","","","","","","","","","","","","","","",""
"","ITI","","html-keyboard-response","154","474141","0.0-1.0-207.0","0","0","58544","","null","","","null","22","","","","","","","","","","","","","","","NaN",""
"","S1","","html-keyboard-response","155","474630","0.0-1.0-209.0","0","0","58544","","null","","","null","23","","","","","","","","","","","","","","","",""
"","ISI","","html-keyboard-response","156","475636","0.0-1.0-210.0","0","0","58544","","null","","","null","23","NaN","","","","","","","","","","","","","","",""
"","S2","","html-keyboard-response","157","475897","0.0-1.0-211.0","0","0","58544","","null","","","null","23","","NaN","","","","","","","","","","","","","",""
"","response","","html-keyboard-response","158","476461","0.0-1.0-212.0-0.0","0","0","58544","","560","","","68","23","","","1","23","training","adjacent","BC","2","3","O.jpg","L.jpg","1","1","1","",""
"","feedback","","html-keyboard-response","159","477516","0.0-1.0-213.0-0.0","0","0","58544","","null","","","null","23","","","","","","","","","","","","","","","",""
"","ITI","","html-keyboard-response","160","478561","0.0-1.0-216.0","0","0","58544","","null","","","null","23","","","","","","","","","","","","","","","NaN",""
"","S1","","html-keyboard-response","161","478818","0.0-1.0-218.0","0","0","58544","","null","","","null","24","","","","","","","","","","","","","","","",""
"","ISI","","html-keyboard-response","162","479826","0.0-1.0-219.0","0","0","58544","","null","","","null","24","NaN","","","","","","","","","","","","","","",""
"","S2","","html-keyboard-response","163","480086","0.0-1.0-220.0","0","0","58544","","null","","","null","24","","NaN","","","","","","","","","","","","","",""
"","response","","html-keyboard-response","164","480600","0.0-1.0-221.0-0.0","0","0","58544","","510","","","75","24","","","1","24","training","adjacent","CB","3","2","L.jpg","O.jpg","0","0","1","",""
"","feedback","","html-keyboard-response","165","481610","0.0-1.0-222.0-0.0","0","0","58544","","null","","","null","24","","","","","","","","","","","","","","","",""
"","ITI","","html-keyboard-response","166","482672","0.0-1.0-225.0","0","0","58544","","null","","","null","24","","","","","","","","","","","","","","","NaN",""
"","S1","","html-keyboard-response","167","482931","0.0-1.0-227.0","0","0","58544","","null","","","null","25","","","","","","","","","","","","","","","",""
"","ISI","","html-keyboard-response","168","483940","0.0-1.0-228.0","0","0","58544","","null","","","null","25","NaN","","","","","","","","","","","","","","",""
"","S2","","html-keyboard-response","169","484200","0.0-1.0-229.0","0","0","58544","","null","","","null","25","","NaN","","","","","","","","","","","","","",""
"","response","","html-keyboard-response","170","484613","0.0-1.0-230.0-0.0","0","0","58544","","409","","","68","25","","","1","25","training","adjacent","FE","6","5","N.jpg","Q.jpg","1","0","0","",""
"","feedback","","html-keyboard-response","171","485622","0.0-1.0-231.0-0.0","0","0","58544","","null","","","null","25","","","","","","","","","","","","","","","",""
"","time_out","","html-keyboard-response","172","487636","0.0-1.0-233.0-0.0","0","0","58544","","null","","","null","25","","","","","","","","","","","","","","","",""
"","ITI","","html-keyboard-response","173","488641","0.0-1.0-234.0","0","0","58544","","null","","","null","25","","","","","","","","","","","","","","","NaN",""
"","S1","","html-keyboard-response","174","488905","0.0-1.0-236.0","0","0","58544","","null","","","null","26","","","","","","","","","","","","","","","",""
"","ISI","","html-keyboard-response","175","489910","0.0-1.0-237.0","0","0","58544","","null","","","null","26","NaN","","","","","","","","","","","","","","",""
"","S2","","html-keyboard-response","176","490170","0.0-1.0-238.0","0","0","58544","","null","","","null","26","","NaN","","","","","","","","","","","","","",""
"","response","","html-keyboard-response","177","490662","0.0-1.0-239.0-0.0","0","0","58544","","489","","","75","26","","","1","26","training","adjacent","AB","1","2","P.jpg","O.jpg","0","1","0","",""
"","feedback","","html-keyboard-response","178","491672","0.0-1.0-240.0-0.0","0","0","58544","","null","","","null","26","","","","","","","","","","","","","","","",""
"","time_out","","html-keyboard-response","179","493681","0.0-1.0-242.0-0.0","0","0","58544","","null","","","null","26","","","","","","","","","","","","","","","",""
"","ITI","","html-keyboard-response","180","494696","0.0-1.0-243.0","0","0","58544","","null","","","null","26","","","","","","","","","","","","","","","NaN",""
"","S1","","html-keyboard-response","181","494965","0.0-1.0-245.0","0","0","58544","","null","","","null","27","","","","","","","","","","","","","","","",""
"","ISI","","html-keyboard-response","182","495970","0.0-1.0-246.0","0","0","58544","","null","","","null","27","NaN","","","","","","","","","","","","","","",""
"","S2","","html-keyboard-response","183","496226","0.0-1.0-247.0","0","0","58544","","null","","","null","27","","NaN","","","","","","","","","","","","","",""
"","response","","html-keyboard-response","184","496975","0.0-1.0-248.0-0.0","0","0","58544","","744","","","75","27","","","1","27","training","adjacent","GF","7","6","M.jpg","N.jpg","0","0","1","",""
"","feedback","","html-keyboard-response","185","497986","0.0-1.0-249.0-0.0","0","0","58544","","null","","","null","27","","","","","","","","","","","","","","","",""
"","ITI","","html-keyboard-response","186","498995","0.0-1.0-252.0","0","0","58544","","null","","","null","27","","","","","","","","","","","","","","","NaN",""
"","S1","","html-keyboard-response","187","499256","0.0-1.0-254.0","0","0","58544","","null","","","null","28","","","","","","","","","","","","","","","",""
"","ISI","","html-keyboard-response","188","500268","0.0-1.0-255.0","0","0","58544","","null","","","null","28","NaN","","","","","","","","","","","","","","",""
"","S2","","html-keyboard-response","189","500532","0.0-1.0-256.0","0","0","58544","","null","","","null","28","","NaN","","","","","","","","","","","","","",""
"","response","","html-keyboard-response","190","501109","0.0-1.0-257.0-0.0","0","0","58544","","571","","","68","28","","","1","28","training","adjacent","FE","6","5","N.jpg","Q.jpg","1","0","0","",""
"","feedback","","html-keyboard-response","191","502120","0.0-1.0-258.0-0.0","0","0","58544","","null","","","null","28","","","","","","","","","","","","","","","",""
"","time_out","","html-keyboard-response","192","504130","0.0-1.0-260.0-0.0","0","0","58544","","null","","","null","28","","","","","","","","","","","","","","","",""
"","ITI","","html-keyboard-response","193","505140","0.0-1.0-261.0","0","0","58544","","null","","","null","28","","","","","","","","","","","","","","","NaN",""
"","S1","","html-keyboard-response","194","505408","0.0-1.0-263.0","0","0","58544","","null","","","null","29","","","","","","","","","","","","","","","",""
"","ISI","","html-keyboard-response","195","506437","0.0-1.0-264.0","0","0","58544","","null","","","null","29","NaN","","","","","","","","","","","","","","",""
"","S2","","html-keyboard-response","196","506704","0.0-1.0-265.0","0","0","58544","","null","","","null","29","","NaN","","","","","","","","","","","","","",""
"","response","","html-keyboard-response","197","507221","0.0-1.0-266.0-0.0","0","0","58544","","508","","","75","29","","","1","29","training","adjacent","EF","5","6","Q.jpg","N.jpg","0","1","0","",""
"","feedback","","html-keyboard-response","198","508232","0.0-1.0-267.0-0.0","0","0","58544","","null","","","null","29","","","","","","","","","","","","","","","",""
"","time_out","","html-keyboard-response","199","510246","0.0-1.0-269.0-0.0","0","0","58544","","null","","","null","29","","","","","","","","","","","","","","","",""
"","ITI","","html-keyboard-response","200","511268","0.0-1.0-270.0","0","0","58544","","null","","","null","29","","","","","","","","","","","","","","","NaN",""
"","S1","","html-keyboard-response","201","511536","0.0-1.0-272.0","0","0","58544","","null","","","null","30","","","","","","","","","","","","","","","",""
"","ISI","","html-keyboard-response","202","512546","0.0-1.0-273.0","0","0","58544","","null","","","null","30","NaN","","","","","","","","","","","","","","",""
"","S2","","html-keyboard-response","203","512810","0.0-1.0-274.0","0","0","58544","","null","","","null","30","","NaN","","","","","","","","","","","","","",""
"","response","","html-keyboard-response","204","513431","0.0-1.0-275.0-0.0","0","0","58544","","617","","","68","30","","","1","30","training","adjacent","FG","6","7","N.jpg","M.jpg","1","1","1","",""
"","feedback","","html-keyboard-response","205","514542","0.0-1.0-276.0-0.0","0","0","58544","","null","","","null","30","","","","","","","","","","","","","","","",""
"","ITI","","html-keyboard-response","206","515567","0.0-1.0-279.0","0","0","58544","","null","","","null","30","","","","","","","","","","","","","","","NaN",""
"","S1","","html-keyboard-response","207","515825","0.0-1.0-281.0","0","0","58544","","null","","","null","31","","","","","","","","","","","","","","","",""
"","ISI","","html-keyboard-response","208","516880","0.0-1.0-282.0","0","0","58544","","null","","","null","31","NaN","","","","","","","","","","","","","","",""
"","S2","","html-keyboard-response","209","517140","0.0-1.0-283.0","0","0","58544","","null","","","null","31","","NaN","","","","","","","","","","","","","",""
"","response","","html-keyboard-response","210","518919","0.0-1.0-284.0-0.0","0","0","58544","","null","","","null","31","","","1","31","training","adjacent","FE","6","5","N.jpg","Q.jpg","NaN","0","0","",""
"","too_slow_prompt","","html-keyboard-response","211","519927","0.0-1.0-286.0-0.0","1","0","58544","","null","","","null","","","","","","","","","","","","","","","","",""
"","time_out","","html-keyboard-response","212","521940","0.0-1.0-287.0-0.0","0","0","58544","","null","","","null","31","","","","","","","","","","","","","","","",""
"","ITI","","html-keyboard-response","213","522946","0.0-1.0-288.0","0","0","58544","","null","","","null","31","","","","","","","","","","","","","","","NaN",""
"","S1","","html-keyboard-response","214","523256","0.0-1.0-290.0","0","0","58544","","null","","","null","32","","","","","","","","","","","","","","","",""
"","ISI","","html-keyboard-response","215","524266","0.0-1.0-291.0","0","0","58544","","null","","","null","32","NaN","","","","","","","","","","","","","","",""
"","S2","","html-keyboard-response","216","524520","0.0-1.0-292.0","0","0","58544","","null","","","null","32","","NaN","","","","","","","","","","","","","",""
"","response","","html-keyboard-response","217","524932","0.0-1.0-293.0-0.0","0","0","58544","","408","","","68","32","","","1","32","training","adjacent","BA","2","1","O.jpg","P.jpg","1","0","0","",""
"","feedback","","html-keyboard-response","218","525945","0.0-1.0-294.0-0.0","0","0","58544","","null","","","null","32","","","","","","","","","","","","","","","",""
"","time_out","","html-keyboard-response","219","527971","0.0-1.0-296.0-0.0","0","0","58544","","null","","","null","32","","","","","","","","","","","","","","","",""
"","ITI","","html-keyboard-response","220","528986","0.0-1.0-297.0","0","0","58544","","null","","","null","32","","","","","","","","","","","","","","","NaN",""
"","S1","","html-keyboard-response","221","529246","0.0-1.0-299.0","0","0","58544","","null","","","null","33","","","","","","","","","","","","","","","",""
"","ISI","","html-keyboard-response","222","530260","0.0-1.0-300.0","0","0","58544","","null","","","null","33","NaN","","","","","","","","","","","","","","",""
"","S2","","html-keyboard-response","223","530517","0.0-1.0-301.0","0","0","58544","","null","","","null","33","","NaN","","","","","","","","","","","","","",""
"","response","","html-keyboard-response","224","530856","0.0-1.0-302.0-0.0","0","0","58544","","331","","","75","33","","","1","33","training","adjacent","BA","2","1","O.jpg","P.jpg","0","0","1","",""
"","feedback","","html-keyboard-response","225","531866","0.0-1.0-303.0-0.0","0","0","58544","","null","","","null","33","","","","","","","","","","","","","","","",""
"","ITI","","html-keyboard-response","226","532876","0.0-1.0-306.0","0","0","58544","","null","","","null","33","","","","","","","","","","","","","","","NaN",""
"","S1","","html-keyboard-response","227","533136","0.0-1.0-308.0","0","0","58544","","null","","","null","34","","","","","","","","","","","","","","","",""
"","ISI","","html-keyboard-response","228","534146","0.0-1.0-309.0","0","0","58544","","null","","","null","34","NaN","","","","","","","","","","","","","","",""
"","S2","","html-keyboard-response","229","534406","0.0-1.0-310.0","0","0","58544","","null","","","null","34","","NaN","","","","","","","","","","","","","",""
"","response","","html-keyboard-response","230","535055","0.0-1.0-311.0-0.0","0","0","58544","","645","","","68","34","","","1","34","training","adjacent","CD","3","4","L.jpg","R.jpg","1","1","1","",""
"","feedback","","html-keyboard-response","231","536066","0.0-1.0-312.0-0.0","0","0","58544","","null","","","null","34","","","","","","","","","","","","","","","",""
"","ITI","","html-keyboard-response","232","537078","0.0-1.0-315.0","0","0","58544","","null","","","null","34","","","","","","","","","","","","","","","NaN",""
"","S1","","html-keyboard-response","233","537337","0.0-1.0-317.0","0","0","58544","","null","","","null","35","","","","","","","","","","","","","","","",""
"","ISI","","html-keyboard-response","234","538348","0.0-1.0-318.0","0","0","58544","","null","","","null","35","NaN","","","","","","","","","","","","","","",""
"","S2","","html-keyboard-response","235","538606","0.0-1.0-319.0","0","0","58544","","null","","","null","35","","NaN","","","","","","","","","","","","","",""
"","response","","html-keyboard-response","236","539452","0.0-1.0-320.0-0.0","0","0","58544","","842","","","75","35","","","1","35","training","adjacent","FG","6","7","N.jpg","M.jpg","0","1","0","",""
"","feedback","","html-keyboard-response","237","540460","0.0-1.0-321.0-0.0","0","0","58544","","null","","","null","35","","","","","","","","","","","","","","","",""
"","time_out","","html-keyboard-response","238","542467","0.0-1.0-323.0-0.0","0","0","58544","","null","","","null","35","","","","","","","","","","","","","","","",""
"","ITI","","html-keyboard-response","239","543477","0.0-1.0-324.0","0","0","58544","","null","","","null","35","","","","","","","","","","","","","","","NaN",""
"","S1","","html-keyboard-response","240","543740","0.0-1.0-326.0","0","0","58544","","null","","","null","36","","","","","","","","","","","","","","","",""
"","ISI","","html-keyboard-response","241","544747","0.0-1.0-327.0","0","0","58544","","null","","","null","36","NaN","","","","","","","","","","","","","","",""
"","S2","","html-keyboard-response","242","545004","0.0-1.0-328.0","0","0","58544","","null","","","null","36","","NaN","","","","","","","","","","","","","",""
"","response","","html-keyboard-response","243","545329","0.0-1.0-329.0-0.0","0","0","58544","","320","","","75","36","","","1","36","training","adjacent","AB","1","2","P.jpg","O.jpg","0","1","0","",""
"","feedback","","html-keyboard-response","244","546373","0.0-1.0-330.0-0.0","0","0","58544","","null","","","null","36","","","","","","","","","","","","","","","",""
"","time_out","","html-keyboard-response","245","548420","0.0-1.0-332.0-0.0","0","0","58544","","null","","","null","36","","","","","","","","","","","","","","","",""
"","ITI","","html-keyboard-response","246","549541","0.0-1.0-333.0","0","0","58544","","null","","","null","36","","","","","","","","","","","","","","","NaN",""
"","S1","","html-keyboard-response","247","549803","0.0-1.0-335.0","0","0","58544","","null","","","null","37","","","","","","","","","","","","","","","",""
"","ISI","","html-keyboard-response","248","550818","0.0-1.0-336.0","0","0","58544","","null","","","null","37","NaN","","","","","","","","","","","","","","",""
"","S2","","html-keyboard-response","249","551085","0.0-1.0-337.0","0","0","58544","","null","","","null","37","","NaN","","","","","","","","","","","","","",""
"","response","","html-keyboard-response","250","551530","0.0-1.0-338.0-0.0","0","0","58544","","440","","","68","37","","","1","37","training","adjacent","BA","2","1","O.jpg","P.jpg","1","0","0","",""
"","feedback","","html-keyboard-response","251","552541","0.0-1.0-339.0-0.0","0","0","58544","","null","","","null","37","","","","","","","","","","","","","","","",""
"","time_out","","html-keyboard-response","252","554582","0.0-1.0-341.0-0.0","0","0","58544","","null","","","null","37","","","","","","","","","","","","","","","",""
"","ITI","","html-keyboard-response","253","555598","0.0-1.0-342.0","0","0","58544","","null","","","null","37","","","","","","","","","","","","","","","NaN",""
"","S1","","html-keyboard-response","254","555921","0.0-1.0-344.0","0","0","58544","","null","","","null","38","","","","","","","","","","","","","","","",""
"","ISI","","html-keyboard-response","255","556929","0.0-1.0-345.0","0","0","58544","","null","","","null","38","NaN","","","","","","","","","","","","","","",""
"","S2","","html-keyboard-response","256","557191","0.0-1.0-346.0","0","0","58544","","null","","","null","38","","NaN","","","","","","","","","","","","","",""
"","response","","html-keyboard-response","257","557648","0.0-1.0-347.0-0.0","0","0","58544","","449","","","68","38","","","1","38","training","adjacent","GF","7","6","M.jpg","N.jpg","1","0","0","",""
"","feedback","","html-keyboard-response","258","558663","0.0-1.0-348.0-0.0","0","0","58544","","null","","","null","38","","","","","","","","","","","","","","","",""
"","time_out","","html-keyboard-response","259","560678","0.0-1.0-350.0-0.0","0","0","58544","","null","","","null","38","","","","","","","","","","","","","","","",""
"","ITI","","html-keyboard-response","260","561685","0.0-1.0-351.0","0","0","58544","","null","","","null","38","","","","","","","","","","","","","","","NaN",""
"","S1","","html-keyboard-response","261","561952","0.0-1.0-353.0","0","0","58544","","null","","","null","39","","","","","","","","","","","","","","","",""
"","ISI","","html-keyboard-response","262","562958","0.0-1.0-354.0","0","0","58544","","null","","","null","39","NaN","","","","","","","","","","","","","","",""
"","S2","","html-keyboard-response","263","563267","0.0-1.0-355.0","0","0","58544","","null","","","null","39","","NaN","","","","","","","","","","","","","",""
"","response","","html-keyboard-response","264","563586","0.0-1.0-356.0-0.0","0","0","58544","","313","","","75","39","","","1","39","training","adjacent","GF","7","6","M.jpg","N.jpg","0","0","1","",""
"","feedback","","html-keyboard-response","265","564597","0.0-1.0-357.0-0.0","0","0","58544","","null","","","null","39","","","","","","","","","","","","","","","",""
"","ITI","","html-keyboard-response","266","565687","0.0-1.0-360.0","0","0","58544","","null","","","null","39","","","","","","","","","","","","","","","NaN",""
"","S1","","html-keyboard-response","267","565953","0.0-1.0-362.0","0","0","58544","","null","","","null","40","","","","","","","","","","","","","","","",""
"","ISI","","html-keyboard-response","268","567017","0.0-1.0-363.0","0","0","58544","","null","","","null","40","NaN","","","","","","","","","","","","","","",""
"","S2","","html-keyboard-response","269","567292","0.0-1.0-364.0","0","0","58544","","null","","","null","40","","NaN","","","","","","","","","","","","","",""
"","response","","html-keyboard-response","270","567818","0.0-1.0-365.0-0.0","0","0","58544","","522","","","68","40","","","1","40","training","adjacent","FG","6","7","N.jpg","M.jpg","1","1","1","",""
"","feedback","","html-keyboard-response","271","568827","0.0-1.0-366.0-0.0","0","0","58544","","null","","","null","40","","","","","","","","","","","","","","","",""
"","ITI","","html-keyboard-response","272","569856","0.0-1.0-369.0","0","0","58544","","null","","","null","40","","","","","","","","","","","","","","","NaN",""
"","S1","","html-keyboard-response","273","570207","0.0-1.0-371.0","0","0","58544","","null","","","null","41","","","","","","","","","","","","","","","",""
"","ISI","","html-keyboard-response","274","571216","0.0-1.0-372.0","0","0","58544","","null","","","null","41","NaN","","","","","","","","","","","","","","",""
"","S2","","html-keyboard-response","275","571476","0.0-1.0-373.0","0","0","58544","","null","","","null","41","","NaN","","","","","","","","","","","","","",""
"","response","","html-keyboard-response","276","572098","0.0-1.0-374.0-0.0","0","0","58544","","618","","","68","41","","","1","41","training","adjacent","DE","4","5","R.jpg","Q.jpg","1","1","1","",""
"","feedback","","html-keyboard-response","277","573109","0.0-1.0-375.0-0.0","0","0","58544","","null","","","null","41","","","","","","","","","","","","","","","",""
"","ITI","","html-keyboard-response","278","574142","0.0-1.0-378.0","0","0","58544","","null","","","null","41","","","","","","","","","","","","","","","NaN",""
"","S1","","html-keyboard-response","279","574419","0.0-1.0-380.0","0","0","58544","","null","","","null","42","","","","","","","","","","","","","","","",""
"","ISI","","html-keyboard-response","280","575439","0.0-1.0-381.0","0","0","58544","","null","","","null","42","NaN","","","","","","","","","","","","","","",""
"","S2","","html-keyboard-response","281","575758","0.0-1.0-382.0","0","0","58544","","null","","","null","42","","NaN","","","","","","","","","","","","","",""
"","response","","html-keyboard-response","282","575993","0.0-1.0-383.0-0.0","0","0","58544","","230","","","68","42","","","1","42","training","adjacent","BC","2","3","O.jpg","L.jpg","1","1","1","",""
"","feedback","","html-keyboard-response","283","577070","0.0-1.0-384.0-0.0","0","0","58544","","null","","","null","42","","","","","","","","","","","","","","","",""
"","ITI","","html-keyboard-response","284","578109","0.0-1.0-387.0","0","0","58544","","null","","","null","42","","","","","","","","","","","","","","","NaN",""
"","S1","","html-keyboard-response","285","578372","0.0-1.0-389.0","0","0","58544","","null","","","null","43","","","","","","","","","","","","","","","",""
"","ISI","","html-keyboard-response","286","579427","0.0-1.0-390.0","0","0","58544","","null","","","null","43","NaN","","","","","","","","","","","","","","",""
"","S2","","html-keyboard-response","287","579691","0.0-1.0-391.0","0","0","58544","","null","","","null","43","","NaN","","","","","","","","","","","","","",""
"","response","","html-keyboard-response","288","580328","0.0-1.0-392.0-0.0","0","0","58544","","633","","","75","43","","","1","43","training","adjacent","BC","2","3","O.jpg","L.jpg","0","1","0","",""
"","feedback","","html-keyboard-response","289","581338","0.0-1.0-393.0-0.0","0","0","58544","","null","","","null","43","","","","","","","","","","","","","","","",""
"","time_out","","html-keyboard-response","290","583347","0.0-1.0-395.0-0.0","0","0","58544","","null","","","null","43","","","","","","","","","","","","","","","",""
"","ITI","","html-keyboard-response","291","584361","0.0-1.0-396.0","0","0","58544","","null","","","null","43","","","","","","","","","","","","","","","NaN",""
"","S1","","html-keyboard-response","292","584660","0.0-1.0-398.0","0","0","58544","","null","","","null","44","","","","","","","","","","","","","","","",""
"","ISI","","html-keyboard-response","293","585672","0.0-1.0-399.0","0","0","58544","","null","","","null","44","NaN","","","","","","","","","","","","","","",""
"","S2","","html-keyboard-response","294","585956","0.0-1.0-400.0","0","0","58544","","null","","","null","44","","NaN","","","","","","","","","","","","","",""
"","response","","html-keyboard-response","295","586365","0.0-1.0-401.0-0.0","0","0","58544","","404","","","75","44","","","1","44","training","adjacent","CB","3","2","L.jpg","O.jpg","0","0","1","",""
"","feedback","","html-keyboard-response","296","587379","0.0-1.0-402.0-0.0","0","0","58544","","null","","","null","44","","","","","","","","","","","","","","","",""
"","ITI","","html-keyboard-response","297","588391","0.0-1.0-405.0","0","0","58544","","null","","","null","44","","","","","","","","","","","","","","","NaN",""
"","S1","","html-keyboard-response","298","588655","0.0-1.0-407.0","0","0","58544","","null","","","null","45","","","","","","","","","","","","","","","",""
"","ISI","","html-keyboard-response","299","589669","0.0-1.0-408.0","0","0","58544","","null","","","null","45","NaN","","","","","","","","","","","","","","",""
"","S2","","html-keyboard-response","300","590015","0.0-1.0-409.0","0","0","58544","","null","","","null","45","","NaN","","","","","","","","","","","","","",""
"","response","","html-keyboard-response","301","590488","0.0-1.0-410.0-0.0","0","0","58544","","465","","","75","45","","","1","45","training","adjacent","ED","5","4","Q.jpg","R.jpg","0","0","1","",""
"","feedback","","html-keyboard-response","302","591500","0.0-1.0-411.0-0.0","0","0","58544","","null","","","null","45","","","","","","","","","","","","","","","",""
"","ITI","","html-keyboard-response","303","592521","0.0-1.0-414.0","0","0","58544","","null","","","null","45","","","","","","","","","","","","","","","NaN",""
"","S1","","html-keyboard-response","304","592792","0.0-1.0-416.0","0","0","58544","","null","","","null","46","","","","","","","","","","","","","","","",""
"","ISI","","html-keyboard-response","305","593830","0.0-1.0-417.0","0","0","58544","","null","","","null","46","NaN","","","","","","","","","","","","","","",""
"","S2","","html-keyboard-response","306","594217","0.0-1.0-418.0","0","0","58544","","null","","","null","46","","NaN","","","","","","","","","","","","","",""
"","response","","html-keyboard-response","307","594618","0.0-1.0-419.0-0.0","0","0","58544","","397","","","68","46","","","1","46","training","adjacent","CD","3","4","L.jpg","R.jpg","1","1","1","",""
"","feedback","","html-keyboard-response","308","595638","0.0-1.0-420.0-0.0","0","0","58544","","null","","","null","46","","","","","","","","","","","","","","","",""
"","ITI","","html-keyboard-response","309","596732","0.0-1.0-423.0","0","0","58544","","null","","","null","46","","","","","","","","","","","","","","","NaN",""
"","S1","","html-keyboard-response","310","597076","0.0-1.0-425.0","0","0","58544","","null","","","null","47","","","","","","","","","","","","","","","",""
"","ISI","","html-keyboard-response","311","598180","0.0-1.0-426.0","0","0","58544","","null","","","null","47","NaN","","","","","","","","","","","","","","",""
"","S2","","html-keyboard-response","312","598439","0.0-1.0-427.0","0","0","58544","","null","","","null","47","","NaN","","","","","","","","","","","","","",""
"","response","","html-keyboard-response","313","598666","0.0-1.0-428.0-0.0","0","0","58544","","220","","","75","47","","","1","47","training","adjacent","AB","1","2","P.jpg","O.jpg","0","1","0","",""
"","feedback","","html-keyboard-response","314","599676","0.0-1.0-429.0-0.0","0","0","58544","","null","","","null","47","","","","","","","","","","","","","","","",""
"","time_out","","html-keyboard-response","315","601693","0.0-1.0-431.0-0.0","0","0","58544","","null","","","null","47","","","","","","","","","","","","","","","",""
"","ITI","","html-keyboard-response","316","602708","0.0-1.0-432.0","0","0","58544","","null","","","null","47","","","","","","","","","","","","","","","NaN",""
"","block_over","","html-keyboard-response","317","613041","0.0-1.0-433.0-0.0","0","0","58544","","10327","","","32","47","","","","","","","","","","","","","","","",""
"","S1","","html-keyboard-response","318","613300","0.0-1.0-434.0","0","0","58544","","null","","","null","48","","","","","","","","","","","","","","","",""
"","ISI","","html-keyboard-response","319","614306","0.0-1.0-435.0","0","0","58544","","null","","","null","48","NaN","","","","","","","","","","","","","","",""
"","S2","","html-keyboard-response","320","614595","0.0-1.0-436.0","0","0","58544","","null","","","null","48","","NaN","","","","","","","","","","","","","",""
"","response","","html-keyboard-response","321","615036","0.0-1.0-437.0-0.0","0","0","58544","","437","","","68","48","","","2","48","training","adjacent","EF","5","6","Q.jpg","N.jpg","1","1","1","",""
"","feedback","","html-keyboard-response","322","616051","0.0-1.0-438.0-0.0","0","0","58544","","null","","","null","48","","","","","","","","","","","","","","","",""
"","ITI","","html-keyboard-response","323","617067","0.0-1.0-441.0","0","0","58544","","null","","","null","48","","","","","","","","","","","","","","","NaN",""
"","S1","","html-keyboard-response","324","617329","0.0-1.0-443.0","0","0","58544","","null","","","null","49","","","","","","","","","","","","","","","",""
"","ISI","","html-keyboard-response","325","618343","0.0-1.0-444.0","0","0","58544","","null","","","null","49","NaN","","","","","","","","","","","","","","",""
"","S2","","html-keyboard-response","326","618600","0.0-1.0-445.0","0","0","58544","","null","","","null","49","","NaN","","","","","","","","","","","","","",""
"","response","","html-keyboard-response","327","618920","0.0-1.0-446.0-0.0","0","0","58544","","316","","","75","49","","","2","49","training","adjacent","CD","3","4","L.jpg","R.jpg","0","1","0","",""
"","feedback","","html-keyboard-response","328","619930","0.0-1.0-447.0-0.0","0","0","58544","","null","","","null","49","","","","","","","","","","","","","","","",""
"","time_out","","html-keyboard-response","329","621937","0.0-1.0-449.0-0.0","0","0","58544","","null","","","null","49","","","","","","","","","","","","","","","",""
"","ITI","","html-keyboard-response","330","622951","0.0-1.0-450.0","0","0","58544","","null","","","null","49","","","","","","","","","","","","","","","NaN",""
"","S1","","html-keyboard-response","331","623222","0.0-1.0-452.0","0","0","58544","","null","","","null","50","","","","","","","","","","","","","","","",""
"","ISI","","html-keyboard-response","332","624230","0.0-1.0-453.0","0","0","58544","","null","","","null","50","NaN","","","","","","","","","","","","","","",""
"","S2","","html-keyboard-response","333","624493","0.0-1.0-454.0","0","0","58544","","null","","","null","50","","NaN","","","","","","","","","","","","","",""
"","response","","html-keyboard-response","334","624906","0.0-1.0-455.0-0.0","0","0","58544","","408","","","75","50","","","2","50","training","adjacent","ED","5","4","Q.jpg","R.jpg","0","0","1","",""
"","feedback","","html-keyboard-response","335","625915","0.0-1.0-456.0-0.0","0","0","58544","","null","","","null","50","","","","","","","","","","","","","","","",""
"","ITI","","html-keyboard-response","336","626930","0.0-1.0-459.0","0","0","58544","","null","","","null","50","","","","","","","","","","","","","","","NaN",""
"","S1","","html-keyboard-response","337","627198","0.0-1.0-461.0","0","0","58544","","null","","","null","51","","","","","","","","","","","","","","","",""
"","ISI","","html-keyboard-response","338","628206","0.0-1.0-462.0","0","0","58544","","null","","","null","51","NaN","","","","","","","","","","","","","","",""
"","S2","","html-keyboard-response","339","628490","0.0-1.0-463.0","0","0","58544","","null","","","null","51","","NaN","","","","","","","","","","","","","",""
"","response","","html-keyboard-response","340","628803","0.0-1.0-464.0-0.0","0","0","58544","","305","","","68","51","","","2","51","training","adjacent","FG","6","7","N.jpg","M.jpg","1","1","1","",""
"","feedback","","html-keyboard-response","341","629811","0.0-1.0-465.0-0.0","0","0","58544","","null","","","null","51","","","","","","","","","","","","","","","",""
"","ITI","","html-keyboard-response","342","630830","0.0-1.0-468.0","0","0","58544","","null","","","null","51","","","","","","","","","","","","","","","NaN",""
"","S1","","html-keyboard-response","343","631100","0.0-1.0-470.0","0","0","58544","","null","","","null","52","","","","","","","","","","","","","","","",""
"","ISI","","html-keyboard-response","344","632110","0.0-1.0-471.0","0","0","58544","","null","","","null","52","NaN","","","","","","","","","","","","","","",""
"","S2","","html-keyboard-response","345","632370","0.0-1.0-472.0","0","0","58544","","null","","","null","52","","NaN","","","","","","","","","","","","","",""
"","response","","html-keyboard-response","346","632686","0.0-1.0-473.0-0.0","0","0","58544","","311","","","75","52","","","2","52","training","adjacent","AB","1","2","P.jpg","O.jpg","0","1","0","",""
"","feedback","","html-keyboard-response","347","633700","0.0-1.0-474.0-0.0","0","0","58544","","null","","","null","52","","","","","","","","","","","","","","","",""
"","time_out","","html-keyboard-response","348","635710","0.0-1.0-476.0-0.0","0","0","58544","","null","","","null","52","","","","","","","","","","","","","","","",""
"","ITI","","html-keyboard-response","349","636717","0.0-1.0-477.0","0","0","58544","","null","","","null","52","","","","","","","","","","","","","","","NaN",""
"","S1","","html-keyboard-response","350","636978","0.0-1.0-479.0","0","0","58544","","null","","","null","53","","","","","","","","","","","","","","","",""
"","ISI","","html-keyboard-response","351","637987","0.0-1.0-480.0","0","0","58544","","null","","","null","53","NaN","","","","","","","","","","","","","","",""
"","S2","","html-keyboard-response","352","638252","0.0-1.0-481.0","0","0","58544","","null","","","null","53","","NaN","","","","","","","","","","","","","",""
"","response","","html-keyboard-response","353","638510","0.0-1.0-482.0-0.0","0","0","58544","","253","","","68","53","","","2","53","training","adjacent","FE","6","5","N.jpg","Q.jpg","1","0","0","",""
"","feedback","","html-keyboard-response","354","639519","0.0-1.0-483.0-0.0","0","0","58544","","null","","","null","53","","","","","","","","","","","","","","","",""
"","time_out","","html-keyboard-response","355","641527","0.0-1.0-485.0-0.0","0","0","58544","","null","","","null","53","","","","","","","","","","","","","","","",""
"","ITI","","html-keyboard-response","356","642535","0.0-1.0-486.0","0","0","58544","","null","","","null","53","","","","","","","","","","","","","","","NaN",""
"","S1","","html-keyboard-response","357","642791","0.0-1.0-488.0","0","0","58544","","null","","","null","54","","","","","","","","","","","","","","","",""
"","ISI","","html-keyboard-response","358","643797","0.0-1.0-489.0","0","0","58544","","null","","","null","54","NaN","","","","","","","","","","","","","","",""
"","S2","","html-keyboard-response","359","644057","0.0-1.0-490.0","0","0","58544","","null","","","null","54","","NaN","","","","","","","","","","","","","",""
"","response","","html-keyboard-response","360","644380","0.0-1.0-491.0-0.0","0","0","58544","","319","","","68","54","","","2","54","training","adjacent","FG","6","7","N.jpg","M.jpg","1","1","1","",""
"","feedback","","html-keyboard-response","361","645397","0.0-1.0-492.0-0.0","0","0","58544","","null","","","null","54","","","","","","","","","","","","","","","",""
"","ITI","","html-keyboard-response","362","646405","0.0-1.0-495.0","0","0","58544","","null","","","null","54","","","","","","","","","","","","","","","NaN",""
"","S1","","html-keyboard-response","363","646667","0.0-1.0-497.0","0","0","58544","","null","","","null","55","","","","","","","","","","","","","","","",""
"","ISI","","html-keyboard-response","364","647678","0.0-1.0-498.0","0","0","58544","","null","","","null","55","NaN","","","","","","","","","","","","","","",""
"","S2","","html-keyboard-response","365","647947","0.0-1.0-499.0","0","0","58544","","null","","","null","55","","NaN","","","","","","","","","","","","","",""
"","response","","html-keyboard-response","366","648248","0.0-1.0-500.0-0.0","0","0","58544","","296","","","75","55","","","2","55","training","adjacent","BC","2","3","O.jpg","L.jpg","0","1","0","",""
"","feedback","","html-keyboard-response","367","649267","0.0-1.0-501.0-0.0","0","0","58544","","null","","","null","55","","","","","","","","","","","","","","","",""
"","time_out","","html-keyboard-response","368","651293","0.0-1.0-503.0-0.0","0","0","58544","","null","","","null","55","","","","","","","","","","","","","","","",""
"","ITI","","html-keyboard-response","369","652305","0.0-1.0-504.0","0","0","58544","","null","","","null","55","","","","","","","","","","","","","","","NaN",""
"","S1","","html-keyboard-response","370","652566","0.0-1.0-506.0","0","0","58544","","null","","","null","56","","","","","","","","","","","","","","","",""
"","ISI","","html-keyboard-response","371","653574","0.0-1.0-507.0","0","0","58544","","null","","","null","56","NaN","","","","","","","","","","","","","","",""
"","S2","","html-keyboard-response","372","653846","0.0-1.0-508.0","0","0","58544","","null","","","null","56","","NaN","","","","","","","","","","","","","",""
"","response","","html-keyboard-response","373","654157","0.0-1.0-509.0-0.0","0","0","58544","","301","","","68","56","","","2","56","training","adjacent","CB","3","2","L.jpg","O.jpg","1","0","0","",""
"","feedback","","html-keyboard-response","374","655164","0.0-1.0-510.0-0.0","0","0","58544","","null","","","null","56","","","","","","","","","","","","","","","",""
"","time_out","","html-keyboard-response","375","657169","0.0-1.0-512.0-0.0","0","0","58544","","null","","","null","56","","","","","","","","","","","","","","","",""
"","ITI","","html-keyboard-response","376","658175","0.0-1.0-513.0","0","0","58544","","null","","","null","56","","","","","","","","","","","","","","","NaN",""
"","S1","","html-keyboard-response","377","658435","0.0-1.0-515.0","0","0","58544","","null","","","null","57","","","","","","","","","","","","","","","",""
"","ISI","","html-keyboard-response","378","659452","0.0-1.0-516.0","0","0","58544","","null","","","null","57","NaN","","","","","","","","","","","","","","",""
"","S2","","html-keyboard-response","379","659818","0.0-1.0-517.0","0","0","58544","","null","","","null","57","","NaN","","","","","","","","","","","","","",""
"","response","","html-keyboard-response","380","659957","0.0-1.0-518.0-0.0","0","0","58544","","132","","","75","57","","","2","57","training","adjacent","AB","1","2","P.jpg","O.jpg","0","1","0","",""
"","feedback","","html-keyboard-response","381","660981","0.0-1.0-519.0-0.0","0","0","58544","","null","","","null","57","","","","","","","","","","","","","","","",""
"","time_out","","html-keyboard-response","382","663009","0.0-1.0-521.0-0.0","0","0","58544","","null","","","null","57","","","","","","","","","","","","","","","",""
"","ITI","","html-keyboard-response","383","664035","0.0-1.0-522.0","0","0","58544","","null","","","null","57","","","","","","","","","","","","","","","NaN",""
"","S1","","html-keyboard-response","384","664304","0.0-1.0-524.0","0","0","58544","","null","","","null","58","","","","","","","","","","","","","","","",""
"","ISI","","html-keyboard-response","385","665328","0.0-1.0-525.0","0","0","58544","","null","","","null","58","NaN","","","","","","","","","","","","","","",""
"","S2","","html-keyboard-response","386","665585","0.0-1.0-526.0","0","0","58544","","null","","","null","58","","NaN","","","","","","","","","","","","","",""
"","response","","html-keyboard-response","387","665753","0.0-1.0-527.0-0.0","0","0","58544","","161","","","75","58","","","2","58","training","adjacent","ED","5","4","Q.jpg","R.jpg","0","0","1","",""
"","feedback","","html-keyboard-response","388","666784","0.0-1.0-528.0-0.0","0","0","58544","","null","","","null","58","","","","","","","","","","","","","","","",""
"","ITI","","html-keyboard-response","389","667800","0.0-1.0-531.0","0","0","58544","","null","","","null","58","","","","","","","","","","","","","","","NaN",""
"","S1","","html-keyboard-response","390","668060","0.0-1.0-533.0","0","0","58544","","null","","","null","59","","","","","","","","","","","","","","","",""
"","ISI","","html-keyboard-response","391","669063","0.0-1.0-534.0","0","0","58544","","null","","","null","59","NaN","","","","","","","","","","","","","","",""
"","S2","","html-keyboard-response","392","669329","0.0-1.0-535.0","0","0","58544","","null","","","null","59","","NaN","","","","","","","","","","","","","",""
"","response","","html-keyboard-response","393","669744","0.0-1.0-536.0-0.0","0","0","58544","","411","","","68","59","","","2","59","training","adjacent","DC","4","3","R.jpg","L.jpg","1","0","0","",""
"","feedback","","html-keyboard-response","394","670809","0.0-1.0-537.0-0.0","0","0","58544","","null","","","null","59","","","","","","","","","","","","","","","",""
"","time_out","","html-keyboard-response","395","672814","0.0-1.0-539.0-0.0","0","0","58544","","null","","","null","59","","","","","","","","","","","","","","","",""
"","ITI","","html-keyboard-response","396","673819","0.0-1.0-540.0","0","0","58544","","null","","","null","59","","","","","","","","","","","","","","","NaN",""
"","S1","","html-keyboard-response","397","674083","0.0-1.0-542.0","0","0","58544","","null","","","null","60","","","","","","","","","","","","","","","",""
"","ISI","","html-keyboard-response","398","675103","0.0-1.0-543.0","0","0","58544","","null","","","null","60","NaN","","","","","","","","","","","","","","",""
"","S2","","html-keyboard-response","399","675403","0.0-1.0-544.0","0","0","58544","","null","","","null","60","","NaN","","","","","","","","","","","","","",""
"","response","","html-keyboard-response","400","675628","0.0-1.0-545.0-0.0","0","0","58544","","217","","","75","60","","","2","60","training","adjacent","EF","5","6","Q.jpg","N.jpg","0","1","0","",""
"","feedback","","html-keyboard-response","401","676644","0.0-1.0-546.0-0.0","0","0","58544","","null","","","null","60","","","","","","","","","","","","","","","",""
"","time_out","","html-keyboard-response","402","678654","0.0-1.0-548.0-0.0","0","0","58544","","null","","","null","60","","","","","","","","","","","","","","","",""
"","ITI","","html-keyboard-response","403","679666","0.0-1.0-549.0","0","0","58544","","null","","","null","60","","","","","","","","","","","","","","","NaN",""
"","S1","","html-keyboard-response","404","679924","0.0-1.0-551.0","0","0","58544","","null","","","null","61","","","","","","","","","","","","","","","",""
"","ISI","","html-keyboard-response","405","680940","0.0-1.0-552.0","0","0","58544","","null","","","null","61","NaN","","","","","","","","","","","","","","",""
"","S2","","html-keyboard-response","406","681204","0.0-1.0-553.0","0","0","58544","","null","","","null","61","","NaN","","","","","","","","","","","","","",""
"","response","","html-keyboard-response","407","681325","0.0-1.0-554.0-0.0","0","0","58544","","117","","","68","61","","","2","61","training","adjacent","DE","4","5","R.jpg","Q.jpg","1","1","1","",""
"","feedback","","html-keyboard-response","408","682343","0.0-1.0-555.0-0.0","0","0","58544","","null","","","null","61","","","","","","","","","","","","","","","",""
"","ITI","","html-keyboard-response","409","683359","0.0-1.0-558.0","0","0","58544","","null","","","null","61","","","","","","","","","","","","","","","NaN",""
"","S1","","html-keyboard-response","410","683615","0.0-1.0-560.0","0","0","58544","","null","","","null","62","","","","","","","","","","","","","","","",""
"","ISI","","html-keyboard-response","411","684624","0.0-1.0-561.0","0","0","58544","","null","","","null","62","NaN","","","","","","","","","","","","","","",""
"","S2","","html-keyboard-response","412","684879","0.0-1.0-562.0","0","0","58544","","null","","","null","62","","NaN","","","","","","","","","","","","","",""
"","response","","html-keyboard-response","413","685009","0.0-1.0-563.0-0.0","0","0","58544","","124","","","75","62","","","2","62","training","adjacent","CB","3","2","L.jpg","O.jpg","0","0","1","",""
"","feedback","","html-keyboard-response","414","686021","0.0-1.0-564.0-0.0","0","0","58544","","null","","","null","62","","","","","","","","","","","","","","","",""
"","ITI","","html-keyboard-response","415","687062","0.0-1.0-567.0","0","0","58544","","null","","","null","62","","","","","","","","","","","","","","","NaN",""
"","S1","","html-keyboard-response","416","687324","0.0-1.0-569.0","0","0","58544","","null","","","null","63","","","","","","","","","","","","","","","",""
"","ISI","","html-keyboard-response","417","688332","0.0-1.0-570.0","0","0","58544","","null","","","null","63","NaN","","","","","","","","","","","","","","",""
"","S2","","html-keyboard-response","418","688590","0.0-1.0-571.0","0","0","58544","","null","","","null","63","","NaN","","","","","","","","","","","","","",""
"","response","","html-keyboard-response","419","688789","0.0-1.0-572.0-0.0","0","0","58544","","194","","","68","63","","","2","63","training","adjacent","DC","4","3","R.jpg","L.jpg","1","0","0","",""
"","feedback","","html-keyboard-response","420","689800","0.0-1.0-573.0-0.0","0","0","58544","","null","","","null","63","","","","","","","","","","","","","","","",""
"","time_out","","html-keyboard-response","421","691815","0.0-1.0-575.0-0.0","0","0","58544","","null","","","null","63","","","","","","","","","","","","","","","",""
"","ITI","","html-keyboard-response","422","692824","0.0-1.0-576.0","0","0","58544","","null","","","null","63","","","","","","","","","","","","","","","NaN",""
"","S1","","html-keyboard-response","423","693084","0.0-1.0-578.0","0","0","58544","","null","","","null","64","","","","","","","","","","","","","","","",""
"","ISI","","html-keyboard-response","424","694091","0.0-1.0-579.0","0","0","58544","","null","","","null","64","NaN","","","","","","","","","","","","","","",""
"","S2","","html-keyboard-response","425","694360","0.0-1.0-580.0","0","0","58544","","null","","","null","64","","NaN","","","","","","","","","","","","","",""
"","response","","html-keyboard-response","426","694641","0.0-1.0-581.0-0.0","0","0","58544","","277","","","68","64","","","2","64","training","adjacent","CB","3","2","L.jpg","O.jpg","1","0","0","",""
"","feedback","","html-keyboard-response","427","695651","0.0-1.0-582.0-0.0","0","0","58544","","null","","","null","64","","","","","","","","","","","","","","","",""
"","time_out","","html-keyboard-response","428","697659","0.0-1.0-584.0-0.0","0","0","58544","","null","","","null","64","","","","","","","","","","","","","","","",""
"","ITI","","html-keyboard-response","429","698665","0.0-1.0-585.0","0","0","58544","","null","","","null","64","","","","","","","","","","","","","","","NaN",""
"","S1","","html-keyboard-response","430","698926","0.0-1.0-587.0","0","0","58544","","null","","","null","65","","","","","","","","","","","","","","","",""
"","ISI","","html-keyboard-response","431","699933","0.0-1.0-588.0","0","0","58544","","null","","","null","65","NaN","","","","","","","","","","","","","","",""
"","S2","","html-keyboard-response","432","700195","0.0-1.0-589.0","0","0","58544","","null","","","null","65","","NaN","","","","","","","","","","","","","",""
"","response","","html-keyboard-response","433","700366","0.0-1.0-590.0-0.0","0","0","58544","","166","","","68","65","","","2","65","training","adjacent","DE","4","5","R.jpg","Q.jpg","1","1","1","",""
"","feedback","","html-keyboard-response","434","701375","0.0-1.0-591.0-0.0","0","0","58544","","null","","","null","65","","","","","","","","","","","","","","","",""
"","ITI","","html-keyboard-response","435","702391","0.0-1.0-594.0","0","0","58544","","null","","","null","65","","","","","","","","","","","","","","","NaN",""
"","S1","","html-keyboard-response","436","702652","0.0-1.0-596.0","0","0","58544","","null","","","null","66","","","","","","","","","","","","","","","",""
"","ISI","","html-keyboard-response","437","703665","0.0-1.0-597.0","0","0","58544","","null","","","null","66","NaN","","","","","","","","","","","","","","",""
"","S2","","html-keyboard-response","438","703930","0.0-1.0-598.0","0","0","58544","","null","","","null","66","","NaN","","","","","","","","","","","","","",""
"","response","","html-keyboard-response","439","704140","0.0-1.0-599.0-0.0","0","0","58544","","205","","","75","66","","","2","66","training","adjacent","CD","3","4","L.jpg","R.jpg","0","1","0","",""
"","feedback","","html-keyboard-response","440","705155","0.0-1.0-600.0-0.0","0","0","58544","","null","","","null","66","","","","","","","","","","","","","","","",""
"","time_out","","html-keyboard-response","441","707165","0.0-1.0-602.0-0.0","0","0","58544","","null","","","null","66","","","","","","","","","","","","","","","",""
"","ITI","","html-keyboard-response","442","708181","0.0-1.0-603.0","0","0","58544","","null","","","null","66","","","","","","","","","","","","","","","NaN",""
"","S1","","html-keyboard-response","443","708440","0.0-1.0-605.0","0","0","58544","","null","","","null","67","","","","","","","","","","","","","","","",""
"","ISI","","html-keyboard-response","444","709454","0.0-1.0-606.0","0","0","58544","","null","","","null","67","NaN","","","","","","","","","","","","","","",""
"","S2","","html-keyboard-response","445","709715","0.0-1.0-607.0","0","0","58544","","null","","","null","67","","NaN","","","","","","","","","","","","","",""
"","response","","html-keyboard-response","446","709951","0.0-1.0-608.0-0.0","0","0","58544","","231","","","75","67","","","2","67","training","adjacent","ED","5","4","Q.jpg","R.jpg","0","0","1","",""
"","feedback","","html-keyboard-response","447","710981","0.0-1.0-609.0-0.0","0","0","58544","","null","","","null","67","","","","","","","","","","","","","","","",""
"","ITI","","html-keyboard-response","448","711991","0.0-1.0-612.0","0","0","58544","","null","","","null","67","","","","","","","","","","","","","","","NaN",""
"","S1","","html-keyboard-response","449","712250","0.0-1.0-614.0","0","0","58544","","null","","","null","68","","","","","","","","","","","","","","","",""
"","ISI","","html-keyboard-response","450","713261","0.0-1.0-615.0","0","0","58544","","null","","","null","68","NaN","","","","","","","","","","","","","","",""
"","S2","","html-keyboard-response","451","713516","0.0-1.0-616.0","0","0","58544","","null","","","null","68","","NaN","","","","","","","","","","","","","",""
"","response","","html-keyboard-response","452","713821","0.0-1.0-617.0-0.0","0","0","58544","","301","","","75","68","","","2","68","training","adjacent","ED","5","4","Q.jpg","R.jpg","0","0","1","",""
"","feedback","","html-keyboard-response","453","714836","0.0-1.0-618.0-0.0","0","0","58544","","null","","","null","68","","","","","","","","","","","","","","","",""
"","ITI","","html-keyboard-response","454","715843","0.0-1.0-621.0","0","0","58544","","null","","","null","68","","","","","","","","","","","","","","","NaN",""
"","S1","","html-keyboard-response","455","716103","0.0-1.0-623.0","0","0","58544","","null","","","null","69","","","","","","","","","","","","","","","",""
"","ISI","","html-keyboard-response","456","717111","0.0-1.0-624.0","0","0","58544","","null","","","null","69","NaN","","","","","","","","","","","","","","",""
"","S2","","html-keyboard-response","457","717371","0.0-1.0-625.0","0","0","58544","","null","","","null","69","","NaN","","","","","","","","","","","","","",""
"","response","","html-keyboard-response","458","717587","0.0-1.0-626.0-0.0","0","0","58544","","211","","","68","69","","","2","69","training","adjacent","CD","3","4","L.jpg","R.jpg","1","1","1","",""
"","feedback","","html-keyboard-response","459","718598","0.0-1.0-627.0-0.0","0","0","58544","","null","","","null","69","","","","","","","","","","","","","","","",""
"","ITI","","html-keyboard-response","460","719612","0.0-1.0-630.0","0","0","58544","","null","","","null","69","","","","","","","","","","","","","","","NaN",""
"","S1","","html-keyboard-response","461","719882","0.0-1.0-632.0","0","0","58544","","null","","","null","70","","","","","","","","","","","","","","","",""
"","ISI","","html-keyboard-response","462","720891","0.0-1.0-633.0","0","0","58544","","null","","","null","70","NaN","","","","","","","","","","","","","","",""
"","S2","","html-keyboard-response","463","721152","0.0-1.0-634.0","0","0","58544","","null","","","null","70","","NaN","","","","","","","","","","","","","",""
"","response","","html-keyboard-response","464","721393","0.0-1.0-635.0-0.0","0","0","58544","","237","","","75","70","","","2","70","training","adjacent","GF","7","6","M.jpg","N.jpg","0","0","1","",""
"","feedback","","html-keyboard-response","465","722435","0.0-1.0-636.0-0.0","0","0","58544","","null","","","null","70","","","","","","","","","","","","","","","",""
"","ITI","","html-keyboard-response","466","723452","0.0-1.0-639.0","0","0","58544","","null","","","null","70","","","","","","","","","","","","","","","NaN",""
"","S1","","html-keyboard-response","467","723712","0.0-1.0-641.0","0","0","58544","","null","","","null","71","","","","","","","","","","","","","","","",""
"","ISI","","html-keyboard-response","468","724741","0.0-1.0-642.0","0","0","58544","","null","","","null","71","NaN","","","","","","","","","","","","","","",""
"","S2","","html-keyboard-response","469","724997","0.0-1.0-643.0","0","0","58544","","null","","","null","71","","NaN","","","","","","","","","","","","","",""
"","response","","html-keyboard-response","470","725340","0.0-1.0-644.0-0.0","0","0","58544","","339","","","75","71","","","2","71","training","adjacent","FG","6","7","N.jpg","M.jpg","0","1","0","",""
"","feedback","","html-keyboard-response","471","726373","0.0-1.0-645.0-0.0","0","0","58544","","null","","","null","71","","","","","","","","","","","","","","","",""
"","time_out","","html-keyboard-response","472","728383","0.0-1.0-647.0-0.0","0","0","58544","","null","","","null","71","","","","","","","","","","","","","","","",""
"","ITI","","html-keyboard-response","473","729391","0.0-1.0-648.0","0","0","58544","","null","","","null","71","","","","","","","","","","","","","","","NaN",""
"","S1","","html-keyboard-response","474","729651","0.0-1.0-650.0","0","0","58544","","null","","","null","72","","","","","","","","","","","","","","","",""
"","ISI","","html-keyboard-response","475","730662","0.0-1.0-651.0","0","0","58544","","null","","","null","72","NaN","","","","","","","","","","","","","","",""
"","S2","","html-keyboard-response","476","730918","0.0-1.0-652.0","0","0","58544","","null","","","null","72","","NaN","","","","","","","","","","","","","",""
"","response","","html-keyboard-response","477","731080","0.0-1.0-653.0-0.0","0","0","58544","","158","","","68","72","","","2","72","training","adjacent","BA","2","1","O.jpg","P.jpg","1","0","0","",""
"","feedback","","html-keyboard-response","478","732091","0.0-1.0-654.0-0.0","0","0","58544","","null","","","null","72","","","","","","","","","","","","","","","",""
"","time_out","","html-keyboard-response","479","734102","0.0-1.0-656.0-0.0","0","0","58544","","null","","","null","72","","","","","","","","","","","","","","","",""
"","ITI","","html-keyboard-response","480","735111","0.0-1.0-657.0","0","0","58544","","null","","","null","72","","","","","","","","","","","","","","","NaN",""
"","S1","","html-keyboard-response","481","735370","0.0-1.0-659.0","0","0","58544","","null","","","null","73","","","","","","","","","","","","","","","",""
"","ISI","","html-keyboard-response","482","736376","0.0-1.0-660.0","0","0","58544","","null","","","null","73","NaN","","","","","","","","","","","","","","",""
"","S2","","html-keyboard-response","483","736638","0.0-1.0-661.0","0","0","58544","","null","","","null","73","","NaN","","","","","","","","","","","","","",""
"","response","","html-keyboard-response","484","737091","0.0-1.0-662.0-0.0","0","0","58544","","449","","","68","73","","","2","73","training","adjacent","FE","6","5","N.jpg","Q.jpg","1","0","0","",""
"","feedback","","html-keyboard-response","485","738108","0.0-1.0-663.0-0.0","0","0","58544","","null","","","null","73","","","","","","","","","","","","","","","",""
"","time_out","","html-keyboard-response","486","740121","0.0-1.0-665.0-0.0","0","0","58544","","null","","","null","73","","","","","","","","","","","","","","","",""
"","ITI","","html-keyboard-response","487","741137","0.0-1.0-666.0","0","0","58544","","null","","","null","73","","","","","","","","","","","","","","","NaN",""
"","S1","","html-keyboard-response","488","741401","0.0-1.0-668.0","0","0","58544","","null","","","null","74","","","","","","","","","","","","","","","",""
"","ISI","","html-keyboard-response","489","742411","0.0-1.0-669.0","0","0","58544","","null","","","null","74","NaN","","","","","","","","","","","","","","",""
"","S2","","html-keyboard-response","490","742668","0.0-1.0-670.0","0","0","58544","","null","","","null","74","","NaN","","","","","","","","","","","","","",""
"","response","","html-keyboard-response","491","742751","0.0-1.0-671.0-0.0","0","0","58544","","78","","","68","74","","","2","74","training","adjacent","CB","3","2","L.jpg","O.jpg","1","0","0","",""
"","feedback","","html-keyboard-response","492","743757","0.0-1.0-672.0-0.0","0","0","58544","","null","","","null","74","","","","","","","","","","","","","","","",""
"","time_out","","html-keyboard-response","493","745767","0.0-1.0-674.0-0.0","0","0","58544","","null","","","null","74","","","","","","","","","","","","","","","",""
"","ITI","","html-keyboard-response","494","746772","0.0-1.0-675.0","0","0","58544","","null","","","null","74","","","","","","","","","","","","","","","NaN",""
"","S1","","html-keyboard-response","495","747031","0.0-1.0-677.0","0","0","58544","","null","","","null","75","","","","","","","","","","","","","","","",""
"","ISI","","html-keyboard-response","496","748042","0.0-1.0-678.0","0","0","58544","","null","","","null","75","NaN","","","","","","","","","","","","","","",""
"","S2","","html-keyboard-response","497","748308","0.0-1.0-679.0","0","0","58544","","null","","","null","75","","NaN","","","","","","","","","","","","","",""
"","response","","html-keyboard-response","498","748550","0.0-1.0-680.0-0.0","0","0","58544","","237","","","68","75","","","2","75","training","adjacent","GF","7","6","M.jpg","N.jpg","1","0","0","",""
"","feedback","","html-keyboard-response","499","749560","0.0-1.0-681.0-0.0","0","0","58544","","null","","","null","75","","","","","","","","","","","","","","","",""
"","time_out","","html-keyboard-response","500","751572","0.0-1.0-683.0-0.0","0","0","58544","","null","","","null","75","","","","","","","","","","","","","","","",""
"","ITI","","html-keyboard-response","501","752588","0.0-1.0-684.0","0","0","58544","","null","","","null","75","","","","","","","","","","","","","","","NaN",""
"","S1","","html-keyboard-response","502","752848","0.0-1.0-686.0","0","0","58544","","null","","","null","76","","","","","","","","","","","","","","","",""
"","ISI","","html-keyboard-response","503","753861","0.0-1.0-687.0","0","0","58544","","null","","","null","76","NaN","","","","","","","","","","","","","","",""
"","S2","","html-keyboard-response","504","754147","0.0-1.0-688.0","0","0","58544","","null","","","null","76","","NaN","","","","","","","","","","","","","",""
"","response","","html-keyboard-response","505","754177","0.0-1.0-689.0-0.0","0","0","58544","","24","","","68","76","","","2","76","training","adjacent","BC","2","3","O.jpg","L.jpg","1","1","1","",""
"","feedback","","html-keyboard-response","506","755191","0.0-1.0-690.0-0.0","0","0","58544","","null","","","null","76","","","","","","","","","","","","","","","",""
"","ITI","","html-keyboard-response","507","756198","0.0-1.0-693.0","0","0","58544","","null","","","null","76","","","","","","","","","","","","","","","NaN",""
"","S1","","html-keyboard-response","508","756499","0.0-1.0-695.0","0","0","58544","","null","","","null","77","","","","","","","","","","","","","","","",""
"","ISI","","html-keyboard-response","509","757520","0.0-1.0-696.0","0","0","58544","","null","","","null","77","NaN","","","","","","","","","","","","","","",""
"","S2","","html-keyboard-response","510","757778","0.0-1.0-697.0","0","0","58544","","null","","","null","77","","NaN","","","","","","","","","","","","","",""
"","response","","html-keyboard-response","511","758092","0.0-1.0-698.0-0.0","0","0","58544","","307","","","75","77","","","2","77","training","adjacent","FE","6","5","N.jpg","Q.jpg","0","0","1","",""
"","feedback","","html-keyboard-response","512","759100","0.0-1.0-699.0-0.0","0","0","58544","","null","","","null","77","","","","","","","","","","","","","","","",""
"","ITI","","html-keyboard-response","513","760111","0.0-1.0-702.0","0","0","58544","","null","","","null","77","","","","","","","","","","","","","","","NaN",""
"","S1","","html-keyboard-response","514","760372","0.0-1.0-704.0","0","0","58544","","null","","","null","78","","","","","","","","","","","","","","","",""
"","ISI","","html-keyboard-response","515","761381","0.0-1.0-705.0","0","0","58544","","null","","","null","78","NaN","","","","","","","","","","","","","","",""
"","S2","","html-keyboard-response","516","761642","0.0-1.0-706.0","0","0","58544","","null","","","null","78","","NaN","","","","","","","","","","","","","",""
"","response","","html-keyboard-response","517","762112","0.0-1.0-707.0-0.0","0","0","58544","","466","","","68","78","","","2","78","training","adjacent","BC","2","3","O.jpg","L.jpg","1","1","1","",""
"","feedback","","html-keyboard-response","518","763129","0.0-1.0-708.0-0.0","0","0","58544","","null","","","null","78","","","","","","","","","","","","","","","",""
"","ITI","","html-keyboard-response","519","764142","0.0-1.0-711.0","0","0","58544","","null","","","null","78","","","","","","","","","","","","","","","NaN",""
"","S1","","html-keyboard-response","520","764437","0.0-1.0-713.0","0","0","58544","","null","","","null","79","","","","","","","","","","","","","","","",""
"","ISI","","html-keyboard-response","521","765462","0.0-1.0-714.0","0","0","58544","","null","","","null","79","NaN","","","","","","","","","","","","","","",""
"","S2","","html-keyboard-response","522","765722","0.0-1.0-715.0","0","0","58544","","null","","","null","79","","NaN","","","","","","","","","","","","","",""
"","response","","html-keyboard-response","523","766020","0.0-1.0-716.0-0.0","0","0","58544","","292","","","68","79","","","2","79","training","adjacent","BA","2","1","O.jpg","P.jpg","1","0","0","",""
"","feedback","","html-keyboard-response","524","767031","0.0-1.0-717.0-0.0","0","0","58544","","null","","","null","79","","","","","","","","","","","","","","","",""
"","time_out","","html-keyboard-response","525","769062","0.0-1.0-719.0-0.0","0","0","58544","","null","","","null","79","","","","","","","","","","","","","","","",""
"","ITI","","html-keyboard-response","526","770084","0.0-1.0-720.0","0","0","58544","","null","","","null","79","","","","","","","","","","","","","","","NaN",""
"","S1","","html-keyboard-response","527","770342","0.0-1.0-722.0","0","0","58544","","null","","","null","80","","","","","","","","","","","","","","","",""
"","ISI","","html-keyboard-response","528","771361","0.0-1.0-723.0","0","0","58544","","null","","","null","80","NaN","","","","","","","","","","","","","","",""
"","S2","","html-keyboard-response","529","771622","0.0-1.0-724.0","0","0","58544","","null","","","null","80","","NaN","","","","","","","","","","","","","",""
"","response","","html-keyboard-response","530","771900","0.0-1.0-725.0-0.0","0","0","58544","","272","","","68","80","","","2","80","training","adjacent","BA","2","1","O.jpg","P.jpg","1","0","0","",""
"","feedback","","html-keyboard-response","531","772911","0.0-1.0-726.0-0.0","0","0","58544","","null","","","null","80","","","","","","","","","","","","","","","",""
"","time_out","","html-keyboard-response","532","774925","0.0-1.0-728.0-0.0","0","0","58544","","null","","","null","80","","","","","","","","","","","","","","","",""
"","ITI","","html-keyboard-response","533","775945","0.0-1.0-729.0","0","0","58544","","null","","","null","80","","","","","","","","","","","","","","","NaN",""
"","S1","","html-keyboard-response","534","776212","0.0-1.0-731.0","0","0","58544","","null","","","null","81","","","","","","","","","","","","","","","",""
"","ISI","","html-keyboard-response","535","777226","0.0-1.0-732.0","0","0","58544","","null","","","null","81","NaN","","","","","","","","","","","","","","",""
"","S2","","html-keyboard-response","536","777484","0.0-1.0-733.0","0","0","58544","","null","","","null","81","","NaN","","","","","","","","","","","","","",""
"","response","","html-keyboard-response","537","777766","0.0-1.0-734.0-0.0","0","0","58544","","278","","","75","81","","","2","81","training","adjacent","AB","1","2","P.jpg","O.jpg","0","1","0","",""
"","feedback","","html-keyboard-response","538","778774","0.0-1.0-735.0-0.0","0","0","58544","","null","","","null","81","","","","","","","","","","","","","","","",""
"","time_out","","html-keyboard-response","539","780780","0.0-1.0-737.0-0.0","0","0","58544","","null","","","null","81","","","","","","","","","","","","","","","",""
"","ITI","","html-keyboard-response","540","781790","0.0-1.0-738.0","0","0","58544","","null","","","null","81","","","","","","","","","","","","","","","NaN",""
"","S1","","html-keyboard-response","541","782051","0.0-1.0-740.0","0","0","58544","","null","","","null","82","","","","","","","","","","","","","","","",""
"","ISI","","html-keyboard-response","542","783062","0.0-1.0-741.0","0","0","58544","","null","","","null","82","NaN","","","","","","","","","","","","","","",""
"","S2","","html-keyboard-response","543","783320","0.0-1.0-742.0","0","0","58544","","null","","","null","82","","NaN","","","","","","","","","","","","","",""
"","response","","html-keyboard-response","544","783601","0.0-1.0-743.0-0.0","0","0","58544","","277","","","68","82","","","2","82","training","adjacent","DC","4","3","R.jpg","L.jpg","1","0","0","",""
"","feedback","","html-keyboard-response","545","784615","0.0-1.0-744.0-0.0","0","0","58544","","null","","","null","82","","","","","","","","","","","","","","","",""
"","time_out","","html-keyboard-response","546","786630","0.0-1.0-746.0-0.0","0","0","58544","","null","","","null","82","","","","","","","","","","","","","","","",""
"","ITI","","html-keyboard-response","547","787641","0.0-1.0-747.0","0","0","58544","","null","","","null","82","","","","","","","","","","","","","","","NaN",""
"","S1","","html-keyboard-response","548","787900","0.0-1.0-749.0","0","0","58544","","null","","","null","83","","","","","","","","","","","","","","","",""
"","ISI","","html-keyboard-response","549","788911","0.0-1.0-750.0","0","0","58544","","null","","","null","83","NaN","","","","","","","","","","","","","","",""
"","S2","","html-keyboard-response","550","789170","0.0-1.0-751.0","0","0","58544","","null","","","null","83","","NaN","","","","","","","","","","","","","",""
"","response","","html-keyboard-response","551","789205","0.0-1.0-752.0-0.0","0","0","58544","","31","","","75","83","","","2","83","training","adjacent","EF","5","6","Q.jpg","N.jpg","0","1","0","",""
"","feedback","","html-keyboard-response","552","790213","0.0-1.0-753.0-0.0","0","0","58544","","null","","","null","83","","","","","","","","","","","","","","","",""
"","time_out","","html-keyboard-response","553","792224","0.0-1.0-755.0-0.0","0","0","58544","","null","","","null","83","","","","","","","","","","","","","","","",""
"","ITI","","html-keyboard-response","554","793233","0.0-1.0-756.0","0","0","58544","","null","","","null","83","","","","","","","","","","","","","","","NaN",""
"","S1","","html-keyboard-response","555","793494","0.0-1.0-758.0","0","0","58544","","null","","","null","84","","","","","","","","","","","","","","","",""
"","ISI","","html-keyboard-response","556","794503","0.0-1.0-759.0","0","0","58544","","null","","","null","84","NaN","","","","","","","","","","","","","","",""
"","S2","","html-keyboard-response","557","794764","0.0-1.0-760.0","0","0","58544","","null","","","null","84","","NaN","","","","","","","","","","","","","",""
"","response","","html-keyboard-response","558","795026","0.0-1.0-761.0-0.0","0","0","58544","","258","","","68","84","","","2","84","training","adjacent","DE","4","5","R.jpg","Q.jpg","1","1","1","",""
"","feedback","","html-keyboard-response","559","796042","0.0-1.0-762.0-0.0","0","0","58544","","null","","","null","84","","","","","","","","","","","","","","","",""
"","ITI","","html-keyboard-response","560","797053","0.0-1.0-765.0","0","0","58544","","null","","","null","84","","","","","","","","","","","","","","","NaN",""
"","S1","","html-keyboard-response","561","797314","0.0-1.0-767.0","0","0","58544","","null","","","null","85","","","","","","","","","","","","","","","",""
"","ISI","","html-keyboard-response","562","798328","0.0-1.0-768.0","0","0","58544","","null","","","null","85","NaN","","","","","","","","","","","","","","",""
"","S2","","html-keyboard-response","563","798586","0.0-1.0-769.0","0","0","58544","","null","","","null","85","","NaN","","","","","","","","","","","","","",""
"","response","","html-keyboard-response","564","798723","0.0-1.0-770.0-0.0","0","0","58544","","132","","","75","85","","","2","85","training","adjacent","FG","6","7","N.jpg","M.jpg","0","1","0","",""
"","feedback","","html-keyboard-response","565","799731","0.0-1.0-771.0-0.0","0","0","58544","","null","","","null","85","","","","","","","","","","","","","","","",""
"","time_out","","html-keyboard-response","566","801743","0.0-1.0-773.0-0.0","0","0","58544","","null","","","null","85","","","","","","","","","","","","","","","",""
"","ITI","","html-keyboard-response","567","802759","0.0-1.0-774.0","0","0","58544","","null","","","null","85","","","","","","","","","","","","","","","NaN",""
"","S1","","html-keyboard-response","568","803019","0.0-1.0-776.0","0","0","58544","","null","","","null","86","","","","","","","","","","","","","","","",""
"","ISI","","html-keyboard-response","569","804032","0.0-1.0-777.0","0","0","58544","","null","","","null","86","NaN","","","","","","","","","","","","","","",""
"","S2","","html-keyboard-response","570","804312","0.0-1.0-778.0","0","0","58544","","null","","","null","86","","NaN","","","","","","","","","","","","","",""
"","response","","html-keyboard-response","571","804659","0.0-1.0-779.0-0.0","0","0","58544","","342","","","68","86","","","2","86","training","adjacent","GF","7","6","M.jpg","N.jpg","1","0","0","",""
"","feedback","","html-keyboard-response","572","805675","0.0-1.0-780.0-0.0","0","0","58544","","null","","","null","86","","","","","","","","","","","","","","","",""
"","time_out","","html-keyboard-response","573","807693","0.0-1.0-782.0-0.0","0","0","58544","","null","","","null","86","","","","","","","","","","","","","","","",""
"","ITI","","html-keyboard-response","574","808705","0.0-1.0-783.0","0","0","58544","","null","","","null","86","","","","","","","","","","","","","","","NaN",""
"","S1","","html-keyboard-response","575","808970","0.0-1.0-785.0","0","0","58544","","null","","","null","87","","","","","","","","","","","","","","","",""
"","ISI","","html-keyboard-response","576","809985","0.0-1.0-786.0","0","0","58544","","null","","","null","87","NaN","","","","","","","","","","","","","","",""
"","S2","","html-keyboard-response","577","810243","0.0-1.0-787.0","0","0","58544","","null","","","null","87","","NaN","","","","","","","","","","","","","",""
"","response","","html-keyboard-response","578","810422","0.0-1.0-788.0-0.0","0","0","58544","","175","","","75","87","","","2","87","training","adjacent","FE","6","5","N.jpg","Q.jpg","0","0","1","",""
"","feedback","","html-keyboard-response","579","811429","0.0-1.0-789.0-0.0","0","0","58544","","null","","","null","87","","","","","","","","","","","","","","","",""
"","ITI","","html-keyboard-response","580","812439","0.0-1.0-792.0","0","0","58544","","null","","","null","87","","","","","","","","","","","","","","","NaN",""
"","S1","","html-keyboard-response","581","812699","0.0-1.0-794.0","0","0","58544","","null","","","null","88","","","","","","","","","","","","","","","",""
