"success","ttype","start_time","trial_type","trial_index","time_elapsed","internal_node_id","warning","missed_checkup","PID","view_history","rt","responses","repeat_instructions","key_press","index","keypress_isi","keypress_S2","block","trial_num","phase","group_type","pair_type","S1_stim","S2_stim","S1_img","S2_img","S1_chosen","S1_higher","accuracy","keypress_iti","total_bonus_tally"
"true","full_screen","d04142023hr1418","fullscreen","0","31029","0.0-0.0","0","0","79307","","","","","","","","","","","","","","","","","","","","","",""
"","instructions","","instructions","1","79525","0.0-1.0-0.0-0.0","0","0","79307","[{""page_index"":0,""viewing_time"":8729},{""page_index"":1,""viewing_time"":30711},{""page_index"":2,""viewing_time"":7450},{""page_index"":3,""viewing_time"":1604}]","48494","","","","","","","","","","","","","","","","","","","",""
"","comprehension_check","","survey-multi-choice","2","98199","0.0-1.0-0.0-1.0","0","0","79307","","18672","{""Q0"":""True"",""Q1"":""K"",""Q2"":""Only when the screen 'MAKE A CHOICE' is shown"",""Q3"":""Green mark"",""Q4"":""either D or K""}","1","","","","","","","","","","","","","","","","","",""
"","missed_instruction_checkup","","html-keyboard-response","3","100703","0.0-1.0-0.0-2.0-0.0","0","1","79307","","2503","","","32","","","","","","","","","","","","","","","","",""
"","instructions","","instructions","4","116585","0.0-1.0-0.1-0.1","0","0","79307","[{""page_index"":0,""viewing_time"":2487},{""page_index"":1,""viewing_time"":11374},{""page_index"":2,""viewing_time"":1057},{""page_index"":3,""viewing_time"":964}]","15882","","","","","","","","","","","","","","","","","","","",""
"","comprehension_check","","survey-multi-choice","5","130697","0.0-1.0-0.1-1.1","0","0","79307","","14109","{""Q0"":""True"",""Q1"":""K"",""Q2"":""Once the second image appears and while the screen 'MAKE A CHOICE' is shown"",""Q3"":""Green mark"",""Q4"":""either D or K""}","0","","","","","","","","","","","","","","","","","",""
"","start_exp","","html-keyboard-response","6","132377","0.0-1.0-1.0","0","0","79307","","1679","","","32","","","","","","","","","","","","","","","","",""
"","S1","","html-keyboard-response","7","132629","0.0-1.0-2.0","0","0","79307","","null","","","null","0","","","","","","","","","","","","","","","",""
"","ISI","","html-keyboard-response","8","133630","0.0-1.0-3.0","0","0","79307","","null","","","null","0","NaN","","","","","","","","","","","","","","",""
"","S2","","html-keyboard-response","9","133882","0.0-1.0-4.0","0","0","79307","","null","","","null","0","","NaN","","","","","","","","","","","","","",""
"","response","","html-keyboard-response","10","135236","0.0-1.0-5.0-0.0","0","0","79307","","1353","","","75","0","","","1","0","training","adjacent","FG","6","7","N.jpg","L.jpg","1","1","1","",""
"","feedback","","html-keyboard-response","11","136237","0.0-1.0-6.0-0.0","0","0","79307","","null","","","null","0","","","","","","","","","","","","","","","",""
"","ITI","","html-keyboard-response","12","137238","0.0-1.0-9.0","0","0","79307","","null","","","null","0","","","","","","","","","","","","","","","NaN",""
"","S1","","html-keyboard-response","13","137489","0.0-1.0-11.0","0","0","79307","","null","","","null","1","","","","","","","","","","","","","","","",""
"","ISI","","html-keyboard-response","14","138491","0.0-1.0-12.0","0","0","79307","","null","","","null","1","NaN","","","","","","","","","","","","","","",""
"","S2","","html-keyboard-response","15","138743","0.0-1.0-13.0","0","0","79307","","null","","","null","1","","NaN","","","","","","","","","","","","","",""
"","response","","html-keyboard-response","16","140494","0.0-1.0-14.0-0.0","0","0","79307","","null","","","null","1","","","1","1","training","adjacent","BC","2","3","M.jpg","O.jpg","NaN","1","0","",""
"","too_slow_prompt","","html-keyboard-response","17","141495","0.0-1.0-16.0-0.0","1","0","79307","","null","","","null","","","","","","","","","","","","","","","","",""
"","time_out","","html-keyboard-response","18","143497","0.0-1.0-17.0-0.0","0","0","79307","","null","","","null","1","","","","","","","","","","","","","","","",""
"","ITI","","html-keyboard-response","19","144498","0.0-1.0-18.0","0","0","79307","","394","","","32","1","","","","","","","","","","","","","","","space",""
"","S1","","html-keyboard-response","20","144750","0.0-1.0-20.0","0","0","79307","","null","","","null","2","","","","","","","","","","","","","","","",""
"","ISI","","html-keyboard-response","21","145751","0.0-1.0-21.0","0","0","79307","","null","","","null","2","NaN","","","","","","","","","","","","","","",""
"","S2","","html-keyboard-response","22","146002","0.0-1.0-22.0","0","0","79307","","null","","","null","2","","NaN","","","","","","","","","","","","","",""
"","response","","html-keyboard-response","23","146612","0.0-1.0-23.0-0.0","0","0","79307","","608","","","75","2","","","1","2","training","adjacent","AB","1","2","P.jpg","M.jpg","1","1","1","",""
"","feedback","","html-keyboard-response","24","147614","0.0-1.0-24.0-0.0","0","0","79307","","null","","","null","2","","","","","","","","","","","","","","","",""
"","ITI","","html-keyboard-response","25","148616","0.0-1.0-27.0","0","0","79307","","null","","","null","2","","","","","","","","","","","","","","","NaN",""
"","S1","","html-keyboard-response","26","148867","0.0-1.0-29.0","0","0","79307","","null","","","null","3","","","","","","","","","","","","","","","",""
"","ISI","","html-keyboard-response","27","149869","0.0-1.0-30.0","0","0","79307","","null","","","null","3","NaN","","","","","","","","","","","","","","",""
"","S2","","html-keyboard-response","28","150120","0.0-1.0-31.0","0","0","79307","","null","","","null","3","","NaN","","","","","","","","","","","","","",""
"","response","","html-keyboard-response","29","150591","0.0-1.0-32.0-0.0","0","0","79307","","470","","","68","3","","","1","3","training","adjacent","DC","4","3","R.jpg","O.jpg","0","0","1","",""
"","feedback","","html-keyboard-response","30","151593","0.0-1.0-33.0-0.0","0","0","79307","","null","","","null","3","","","","","","","","","","","","","","","",""
"","ITI","","html-keyboard-response","31","152595","0.0-1.0-36.0","0","0","79307","","null","","","null","3","","","","","","","","","","","","","","","NaN",""
"","S1","","html-keyboard-response","32","152846","0.0-1.0-38.0","0","0","79307","","null","","","null","4","","","","","","","","","","","","","","","",""
"","ISI","","html-keyboard-response","33","153847","0.0-1.0-39.0","0","0","79307","","null","","","null","4","NaN","","","","","","","","","","","","","","",""
"","S2","","html-keyboard-response","34","154099","0.0-1.0-40.0","0","0","79307","","null","","","null","4","","NaN","","","","","","","","","","","","","",""
"","response","","html-keyboard-response","35","154666","0.0-1.0-41.0-0.0","0","0","79307","","566","","","68","4","","","1","4","training","adjacent","BC","2","3","M.jpg","O.jpg","0","1","0","",""
"","feedback","","html-keyboard-response","36","155667","0.0-1.0-42.0-0.0","0","0","79307","","null","","","null","4","","","","","","","","","","","","","","","",""
"","time_out","","html-keyboard-response","37","157669","0.0-1.0-44.0-0.0","0","0","79307","","null","","","null","4","","","","","","","","","","","","","","","",""
"","ITI","","html-keyboard-response","38","158670","0.0-1.0-45.0","0","0","79307","","null","","","null","4","","","","","","","","","","","","","","","NaN",""
"","S1","","html-keyboard-response","39","158921","0.0-1.0-47.0","0","0","79307","","null","","","null","5","","","","","","","","","","","","","","","",""
"","ISI","","html-keyboard-response","40","159923","0.0-1.0-48.0","0","0","79307","","null","","","null","5","NaN","","","","","","","","","","","","","","",""
"","S2","","html-keyboard-response","41","160174","0.0-1.0-49.0","0","0","79307","","null","","","null","5","","NaN","","","","","","","","","","","","","",""
"","response","","html-keyboard-response","42","160836","0.0-1.0-50.0-0.0","0","0","79307","","661","","","68","5","","","1","5","training","adjacent","CB","3","2","O.jpg","M.jpg","0","0","1","",""
"","feedback","","html-keyboard-response","43","161837","0.0-1.0-51.0-0.0","0","0","79307","","null","","","null","5","","","","","","","","","","","","","","","",""
"","ITI","","html-keyboard-response","44","162838","0.0-1.0-54.0","0","0","79307","","null","","","null","5","","","","","","","","","","","","","","","NaN",""
"","S1","","html-keyboard-response","45","163089","0.0-1.0-56.0","0","0","79307","","null","","","null","6","","","","","","","","","","","","","","","",""
"","ISI","","html-keyboard-response","46","164090","0.0-1.0-57.0","0","0","79307","","null","","","null","6","NaN","","","","","","","","","","","","","","",""
"","S2","","html-keyboard-response","47","164342","0.0-1.0-58.0","0","0","79307","","null","","","null","6","","NaN","","","","","","","","","","","","","",""
"","response","","html-keyboard-response","48","164882","0.0-1.0-59.0-0.0","0","0","79307","","539","","","75","6","","","1","6","training","adjacent","FG","6","7","N.jpg","L.jpg","1","1","1","",""
"","feedback","","html-keyboard-response","49","165882","0.0-1.0-60.0-0.0","0","0","79307","","null","","","null","6","","","","","","","","","","","","","","","",""
"","ITI","","html-keyboard-response","50","166884","0.0-1.0-63.0","0","0","79307","","null","","","null","6","","","","","","","","","","","","","","","NaN",""
"","S1","","html-keyboard-response","51","167136","0.0-1.0-65.0","0","0","79307","","null","","","null","7","","","","","","","","","","","","","","","",""
"","ISI","","html-keyboard-response","52","168138","0.0-1.0-66.0","0","0","79307","","null","","","null","7","NaN","","","","","","","","","","","","","","",""
"","S2","","html-keyboard-response","53","168389","0.0-1.0-67.0","0","0","79307","","null","","","null","7","","NaN","","","","","","","","","","","","","",""
"","response","","html-keyboard-response","54","168679","0.0-1.0-68.0-0.0","0","0","79307","","288","","","68","7","","","1","7","training","adjacent","CD","3","4","O.jpg","R.jpg","0","1","0","",""
"","feedback","","html-keyboard-response","55","169681","0.0-1.0-69.0-0.0","0","0","79307","","null","","","null","7","","","","","","","","","","","","","","","",""
"","time_out","","html-keyboard-response","56","171682","0.0-1.0-71.0-0.0","0","0","79307","","null","","","null","7","","","","","","","","","","","","","","","",""
"","ITI","","html-keyboard-response","57","172683","0.0-1.0-72.0","0","0","79307","","null","","","null","7","","","","","","","","","","","","","","","NaN",""
"","S1","","html-keyboard-response","58","172934","0.0-1.0-74.0","0","0","79307","","null","","","null","8","","","","","","","","","","","","","","","",""
"","ISI","","html-keyboard-response","59","173936","0.0-1.0-75.0","0","0","79307","","null","","","null","8","NaN","","","","","","","","","","","","","","",""
"","S2","","html-keyboard-response","60","174187","0.0-1.0-76.0","0","0","79307","","null","","","null","8","","NaN","","","","","","","","","","","","","",""
"","response","","html-keyboard-response","61","174777","0.0-1.0-77.0-0.0","0","0","79307","","589","","","75","8","","","1","8","training","adjacent","EF","5","6","Q.jpg","N.jpg","1","1","1","",""
"","feedback","","html-keyboard-response","62","175778","0.0-1.0-78.0-0.0","0","0","79307","","null","","","null","8","","","","","","","","","","","","","","","",""
"","ITI","","html-keyboard-response","63","176780","0.0-1.0-81.0","0","0","79307","","null","","","null","8","","","","","","","","","","","","","","","NaN",""
"","S1","","html-keyboard-response","64","177031","0.0-1.0-83.0","0","0","79307","","null","","","null","9","","","","","","","","","","","","","","","",""
"","ISI","","html-keyboard-response","65","178032","0.0-1.0-84.0","0","0","79307","","null","","","null","9","NaN","","","","","","","","","","","","","","",""
"","S2","","html-keyboard-response","66","178284","0.0-1.0-85.0","0","0","79307","","null","","","null","9","","NaN","","","","","","","","","","","","","",""
"","response","","html-keyboard-response","67","178364","0.0-1.0-86.0-0.0","0","0","79307","","80","","","75","9","","","1","9","training","adjacent","CD","3","4","O.jpg","R.jpg","1","1","1","",""
"","feedback","","html-keyboard-response","68","179366","0.0-1.0-87.0-0.0","0","0","79307","","null","","","null","9","","","","","","","","","","","","","","","",""
"","ITI","","html-keyboard-response","69","180367","0.0-1.0-90.0","0","0","79307","","null","","","null","9","","","","","","","","","","","","","","","NaN",""
"","S1","","html-keyboard-response","70","180618","0.0-1.0-92.0","0","0","79307","","null","","","null","10","","","","","","","","","","","","","","","",""
"","ISI","","html-keyboard-response","71","181619","0.0-1.0-93.0","0","0","79307","","null","","","null","10","NaN","","","","","","","","","","","","","","",""
"","S2","","html-keyboard-response","72","181870","0.0-1.0-94.0","0","0","79307","","null","","","null","10","","NaN","","","","","","","","","","","","","",""
"","response","","html-keyboard-response","73","182214","0.0-1.0-95.0-0.0","0","0","79307","","344","","","75","10","","","1","10","training","adjacent","FE","6","5","N.jpg","Q.jpg","1","0","0","",""
"","feedback","","html-keyboard-response","74","183217","0.0-1.0-96.0-0.0","0","0","79307","","null","","","null","10","","","","","","","","","","","","","","","",""
"","time_out","","html-keyboard-response","75","185217","0.0-1.0-98.0-0.0","0","0","79307","","null","","","null","10","","","","","","","","","","","","","","","",""
"","ITI","","html-keyboard-response","76","186220","0.0-1.0-99.0","0","0","79307","","null","","","null","10","","","","","","","","","","","","","","","NaN",""
"","S1","","html-keyboard-response","77","186471","0.0-1.0-101.0","0","0","79307","","null","","","null","11","","","","","","","","","","","","","","","",""
"","ISI","","html-keyboard-response","78","187473","0.0-1.0-102.0","0","0","79307","","null","","","null","11","NaN","","","","","","","","","","","","","","",""
"","S2","","html-keyboard-response","79","187725","0.0-1.0-103.0","0","0","79307","","null","","","null","11","","NaN","","","","","","","","","","","","","",""
"","response","","html-keyboard-response","80","188525","0.0-1.0-104.0-0.0","0","0","79307","","799","","","68","11","","","1","11","training","adjacent","EF","5","6","Q.jpg","N.jpg","0","1","0","",""
"","feedback","","html-keyboard-response","81","189526","0.0-1.0-105.0-0.0","0","0","79307","","null","","","null","11","","","","","","","","","","","","","","","",""
"","time_out","","html-keyboard-response","82","191529","0.0-1.0-107.0-0.0","0","0","79307","","null","","","null","11","","","","","","","","","","","","","","","",""
"","ITI","","html-keyboard-response","83","192529","0.0-1.0-108.0","0","0","79307","","null","","","null","11","","","","","","","","","","","","","","","NaN",""
"","S1","","html-keyboard-response","84","192781","0.0-1.0-110.0","0","0","79307","","null","","","null","12","","","","","","","","","","","","","","","",""
"","ISI","","html-keyboard-response","85","193782","0.0-1.0-111.0","0","0","79307","","null","","","null","12","NaN","","","","","","","","","","","","","","",""
"","S2","","html-keyboard-response","86","194033","0.0-1.0-112.0","0","0","79307","","null","","","null","12","","NaN","","","","","","","","","","","","","",""
"","response","","html-keyboard-response","87","194404","0.0-1.0-113.0-0.0","0","0","79307","","369","","","75","12","","","1","12","training","adjacent","GF","7","6","L.jpg","N.jpg","1","0","0","",""
"","feedback","","html-keyboard-response","88","195405","0.0-1.0-114.0-0.0","0","0","79307","","null","","","null","12","","","","","","","","","","","","","","","",""
"","time_out","","html-keyboard-response","89","197407","0.0-1.0-116.0-0.0","0","0","79307","","null","","","null","12","","","","","","","","","","","","","","","",""
"","ITI","","html-keyboard-response","90","198407","0.0-1.0-117.0","0","0","79307","","null","","","null","12","","","","","","","","","","","","","","","NaN",""
"","S1","","html-keyboard-response","91","198659","0.0-1.0-119.0","0","0","79307","","null","","","null","13","","","","","","","","","","","","","","","",""
"","ISI","","html-keyboard-response","92","199661","0.0-1.0-120.0","0","0","79307","","null","","","null","13","NaN","","","","","","","","","","","","","","",""
"","S2","","html-keyboard-response","93","199913","0.0-1.0-121.0","0","0","79307","","null","","","null","13","","NaN","","","","","","","","","","","","","",""
"","response","","html-keyboard-response","94","200255","0.0-1.0-122.0-0.0","0","0","79307","","341","","","68","13","","","1","13","training","adjacent","GF","7","6","L.jpg","N.jpg","0","0","1","",""
"","feedback","","html-keyboard-response","95","201256","0.0-1.0-123.0-0.0","0","0","79307","","null","","","null","13","","","","","","","","","","","","","","","",""
"","ITI","","html-keyboard-response","96","202257","0.0-1.0-126.0","0","0","79307","","null","","","null","13","","","","","","","","","","","","","","","NaN",""
"","S1","","html-keyboard-response","97","202509","0.0-1.0-128.0","0","0","79307","","null","","","null","14","","","","","","","","","","","","","","","",""
"","ISI","","html-keyboard-response","98","203510","0.0-1.0-129.0","0","0","79307","","null","","","null","14","NaN","","","","","","","","","","","","","","",""
"","S2","","html-keyboard-response","99","203762","0.0-1.0-130.0","0","0","79307","","null","","","null","14","","NaN","","","","","","","","","","","","","",""
"","response","","html-keyboard-response","100","203816","0.0-1.0-131.0-0.0","0","0","79307","","53","","","68","14","","","1","14","training","adjacent","GF","7","6","L.jpg","N.jpg","0","0","1","",""
"","feedback","","html-keyboard-response","101","204817","0.0-1.0-132.0-0.0","0","0","79307","","null","","","null","14","","","","","","","","","","","","","","","",""
"","ITI","","html-keyboard-response","102","205819","0.0-1.0-135.0","0","0","79307","","null","","","null","14","","","","","","","","","","","","","","","NaN",""
"","S1","","html-keyboard-response","103","206070","0.0-1.0-137.0","0","0","79307","","null","","","null","15","","","","","","","","","","","","","","","",""
"","ISI","","html-keyboard-response","104","207071","0.0-1.0-138.0","0","0","79307","","null","","","null","15","NaN","","","","","","","","","","","","","","",""
"","S2","","html-keyboard-response","105","207322","0.0-1.0-139.0","0","0","79307","","null","","","null","15","","NaN","","","","","","","","","","","","","",""
"","response","","html-keyboard-response","106","207831","0.0-1.0-140.0-0.0","0","0","79307","","508","","","68","15","","","1","15","training","adjacent","DC","4","3","R.jpg","O.jpg","0","0","1","",""
"","feedback","","html-keyboard-response","107","208833","0.0-1.0-141.0-0.0","0","0","79307","","null","","","null","15","","","","","","","","","","","","","","","",""
"","ITI","","html-keyboard-response","108","209834","0.0-1.0-144.0","0","0","79307","","null","","","null","15","","","","","","","","","","","","","","","NaN",""
"","S1","","html-keyboard-response","109","210085","0.0-1.0-146.0","0","0","79307","","null","","","null","16","","","","","","","","","","","","","","","",""
"","ISI","","html-keyboard-response","110","211087","0.0-1.0-147.0","0","0","79307","","null","","","null","16","NaN","","","","","","","","","","","","","","",""
"","S2","","html-keyboard-response","111","211338","0.0-1.0-148.0","0","0","79307","","null","","","null","16","","NaN","","","","","","","","","","","","","",""
"","response","","html-keyboard-response","112","211670","0.0-1.0-149.0-0.0","0","0","79307","","331","","","75","16","","","1","16","training","adjacent","AB","1","2","P.jpg","M.jpg","1","1","1","",""
"","feedback","","html-keyboard-response","113","212672","0.0-1.0-150.0-0.0","0","0","79307","","null","","","null","16","","","","","","","","","","","","","","","",""
"","ITI","","html-keyboard-response","114","213674","0.0-1.0-153.0","0","0","79307","","null","","","null","16","","","","","","","","","","","","","","","NaN",""
"","S1","","html-keyboard-response","115","213925","0.0-1.0-155.0","0","0","79307","","null","","","null","17","","","","","","","","","","","","","","","",""
"","ISI","","html-keyboard-response","116","214927","0.0-1.0-156.0","0","0","79307","","null","","","null","17","NaN","","","","","","","","","","","","","","",""
"","S2","","html-keyboard-response","117","215178","0.0-1.0-157.0","0","0","79307","","null","","","null","17","","NaN","","","","","","","","","","","","","",""
"","response","","html-keyboard-response","118","215329","0.0-1.0-158.0-0.0","0","0","79307","","150","","","68","17","","","1","17","training","adjacent","GF","7","6","L.jpg","N.jpg","0","0","1","",""
"","feedback","","html-keyboard-response","119","216330","0.0-1.0-159.0-0.0","0","0","79307","","null","","","null","17","","","","","","","","","","","","","","","",""
"","ITI","","html-keyboard-response","120","217331","0.0-1.0-162.0","0","0","79307","","null","","","null","17","","","","","","","","","","","","","","","NaN",""
"","S1","","html-keyboard-response","121","217582","0.0-1.0-164.0","0","0","79307","","null","","","null","18","","","","","","","","","","","","","","","",""
"","ISI","","html-keyboard-response","122","218584","0.0-1.0-165.0","0","0","79307","","null","","","null","18","NaN","","","","","","","","","","","","","","",""
"","S2","","html-keyboard-response","123","218836","0.0-1.0-166.0","0","0","79307","","null","","","null","18","","NaN","","","","","","","","","","","","","",""
"","response","","html-keyboard-response","124","219200","0.0-1.0-167.0-0.0","0","0","79307","","363","","","75","18","","","1","18","training","adjacent","CB","3","2","O.jpg","M.jpg","1","0","0","",""
"","feedback","","html-keyboard-response","125","220202","0.0-1.0-168.0-0.0","0","0","79307","","null","","","null","18","","","","","","","","","","","","","","","",""
"","time_out","","html-keyboard-response","126","222202","0.0-1.0-170.0-0.0","0","0","79307","","null","","","null","18","","","","","","","","","","","","","","","",""
"","ITI","","html-keyboard-response","127","223203","0.0-1.0-171.0","0","0","79307","","null","","","null","18","","","","","","","","","","","","","","","NaN",""
"","S1","","html-keyboard-response","128","223455","0.0-1.0-173.0","0","0","79307","","null","","","null","19","","","","","","","","","","","","","","","",""
"","ISI","","html-keyboard-response","129","224456","0.0-1.0-174.0","0","0","79307","","null","","","null","19","NaN","","","","","","","","","","","","","","",""
"","S2","","html-keyboard-response","130","224708","0.0-1.0-175.0","0","0","79307","","null","","","null","19","","NaN","","","","","","","","","","","","","",""
"","response","","html-keyboard-response","131","225178","0.0-1.0-176.0-0.0","0","0","79307","","469","","","75","19","","","1","19","training","adjacent","DE","4","5","R.jpg","Q.jpg","1","1","1","",""
"","feedback","","html-keyboard-response","132","226179","0.0-1.0-177.0-0.0","0","0","79307","","null","","","null","19","","","","","","","","","","","","","","","",""
"","ITI","","html-keyboard-response","133","227180","0.0-1.0-180.0","0","0","79307","","null","","","null","19","","","","","","","","","","","","","","","NaN",""
"","S1","","html-keyboard-response","134","227431","0.0-1.0-182.0","0","0","79307","","null","","","null","20","","","","","","","","","","","","","","","",""
"","ISI","","html-keyboard-response","135","228432","0.0-1.0-183.0","0","0","79307","","null","","","null","20","NaN","","","","","","","","","","","","","","",""
"","S2","","html-keyboard-response","136","228683","0.0-1.0-184.0","0","0","79307","","null","","","null","20","","NaN","","","","","","","","","","","","","",""
"","response","","html-keyboard-response","137","228991","0.0-1.0-185.0-0.0","0","0","79307","","306","","","68","20","","","1","20","training","adjacent","BA","2","1","M.jpg","P.jpg","0","0","1","",""
"","feedback","","html-keyboard-response","138","230006","0.0-1.0-186.0-0.0","0","0","79307","","null","","","null","20","","","","","","","","","","","","","","","",""
"","ITI","","html-keyboard-response","139","231007","0.0-1.0-189.0","0","0","79307","","null","","","null","20","","","","","","","","","","","","","","","NaN",""
"","S1","","html-keyboard-response","140","231259","0.0-1.0-191.0","0","0","79307","","null","","","null","21","","","","","","","","","","","","","","","",""
"","ISI","","html-keyboard-response","141","232261","0.0-1.0-192.0","0","0","79307","","null","","","null","21","NaN","","","","","","","","","","","","","","",""
"","S2","","html-keyboard-response","142","232513","0.0-1.0-193.0","0","0","79307","","null","","","null","21","","NaN","","","","","","","","","","","","","",""
"","response","","html-keyboard-response","143","232785","0.0-1.0-194.0-0.0","0","0","79307","","271","","","68","21","","","1","21","training","adjacent","CB","3","2","O.jpg","M.jpg","0","0","1","",""
"","feedback","","html-keyboard-response","144","233786","0.0-1.0-195.0-0.0","0","0","79307","","null","","","null","21","","","","","","","","","","","","","","","",""
"","ITI","","html-keyboard-response","145","234787","0.0-1.0-198.0","0","0","79307","","null","","","null","21","","","","","","","","","","","","","","","NaN",""
"","S1","","html-keyboard-response","146","235039","0.0-1.0-200.0","0","0","79307","","null","","","null","22","","","","","","","","","","","","","","","",""
"","ISI","","html-keyboard-response","147","236041","0.0-1.0-201.0","0","0","79307","","null","","","null","22","NaN","","","","","","","","","","","","","","",""
"","S2","","html-keyboard-response","148","236293","0.0-1.0-202.0","0","0","79307","","null","","","null","22","","NaN","","","","","","","","","","","","","",""
"","response","","html-keyboard-response","149","236684","0.0-1.0-203.0-0.0","0","0","79307","","390","","","75","22","","","1","22","training","adjacent","BA","2","1","M.jpg","P.jpg","1","0","0","",""
"","feedback","","html-keyboard-response","150","237686","0.0-1.0-204.0-0.0","0","0","79307","","null","","","null","22","","","","","","","","","","","","","","","",""
"","time_out","","html-keyboard-response","151","239688","0.0-1.0-206.0-0.0","0","0","79307","","null","","","null","22","","","","","","","","","","","","","","","",""
"","ITI","","html-keyboard-response","152","240689","0.0-1.0-207.0","0","0","79307","","null","","","null","22","","","","","","","","","","","","","","","NaN",""
"","S1","","html-keyboard-response","153","240940","0.0-1.0-209.0","0","0","79307","","null","","","null","23","","","","","","","","","","","","","","","",""
"","ISI","","html-keyboard-response","154","241942","0.0-1.0-210.0","0","0","79307","","null","","","null","23","NaN","","","","","","","","","","","","","","",""
"","S2","","html-keyboard-response","155","242193","0.0-1.0-211.0","0","0","79307","","null","","","null","23","","NaN","","","","","","","","","","","","","",""
"","response","","html-keyboard-response","156","242661","0.0-1.0-212.0-0.0","0","0","79307","","468","","","75","23","","","1","23","training","adjacent","DE","4","5","R.jpg","Q.jpg","1","1","1","",""
"","feedback","","html-keyboard-response","157","243663","0.0-1.0-213.0-0.0","0","0","79307","","null","","","null","23","","","","","","","","","","","","","","","",""
"","ITI","","html-keyboard-response","158","244665","0.0-1.0-216.0","0","0","79307","","null","","","null","23","","","","","","","","","","","","","","","NaN",""
"","S1","","html-keyboard-response","159","244917","0.0-1.0-218.0","0","0","79307","","null","","","null","24","","","","","","","","","","","","","","","",""
"","ISI","","html-keyboard-response","160","245918","0.0-1.0-219.0","0","0","79307","","null","","","null","24","NaN","","","","","","","","","","","","","","",""
"","S2","","html-keyboard-response","161","246170","0.0-1.0-220.0","0","0","79307","","null","","","null","24","","NaN","","","","","","","","","","","","","",""
"","response","","html-keyboard-response","162","246476","0.0-1.0-221.0-0.0","0","0","79307","","304","","","68","24","","","1","24","training","adjacent","BA","2","1","M.jpg","P.jpg","0","0","1","",""
"","feedback","","html-keyboard-response","163","247477","0.0-1.0-222.0-0.0","0","0","79307","","null","","","null","24","","","","","","","","","","","","","","","",""
"","ITI","","html-keyboard-response","164","248493","0.0-1.0-225.0","0","0","79307","","null","","","null","24","","","","","","","","","","","","","","","NaN",""
"","S1","","html-keyboard-response","165","248744","0.0-1.0-227.0","0","0","79307","","null","","","null","25","","","","","","","","","","","","","","","",""
"","ISI","","html-keyboard-response","166","249746","0.0-1.0-228.0","0","0","79307","","null","","","null","25","NaN","","","","","","","","","","","","","","",""
"","S2","","html-keyboard-response","167","249997","0.0-1.0-229.0","0","0","79307","","null","","","null","25","","NaN","","","","","","","","","","","","","",""
"","response","","html-keyboard-response","168","250286","0.0-1.0-230.0-0.0","0","0","79307","","287","","","75","25","","","1","25","training","adjacent","ED","5","4","Q.jpg","R.jpg","1","0","0","",""
"","feedback","","html-keyboard-response","169","251288","0.0-1.0-231.0-0.0","0","0","79307","","null","","","null","25","","","","","","","","","","","","","","","",""
"","time_out","","html-keyboard-response","170","253290","0.0-1.0-233.0-0.0","0","0","79307","","null","","","null","25","","","","","","","","","","","","","","","",""
"","ITI","","html-keyboard-response","171","254292","0.0-1.0-234.0","0","0","79307","","null","","","null","25","","","","","","","","","","","","","","","NaN",""
"","S1","","html-keyboard-response","172","254543","0.0-1.0-236.0","0","0","79307","","null","","","null","26","","","","","","","","","","","","","","","",""
"","ISI","","html-keyboard-response","173","255544","0.0-1.0-237.0","0","0","79307","","null","","","null","26","NaN","","","","","","","","","","","","","","",""
"","S2","","html-keyboard-response","174","255795","0.0-1.0-238.0","0","0","79307","","null","","","null","26","","NaN","","","","","","","","","","","","","",""
"","response","","html-keyboard-response","175","256417","0.0-1.0-239.0-0.0","0","0","79307","","620","","","75","26","","","1","26","training","adjacent","EF","5","6","Q.jpg","N.jpg","1","1","1","",""
"","feedback","","html-keyboard-response","176","257418","0.0-1.0-240.0-0.0","0","0","79307","","null","","","null","26","","","","","","","","","","","","","","","",""
"","ITI","","html-keyboard-response","177","258419","0.0-1.0-243.0","0","0","79307","","null","","","null","26","","","","","","","","","","","","","","","NaN",""
"","S1","","html-keyboard-response","178","258671","0.0-1.0-245.0","0","0","79307","","null","","","null","27","","","","","","","","","","","","","","","",""
"","ISI","","html-keyboard-response","179","259673","0.0-1.0-246.0","0","0","79307","","null","","","null","27","NaN","","","","","","","","","","","","","","",""
"","S2","","html-keyboard-response","180","259924","0.0-1.0-247.0","0","0","79307","","null","","","null","27","","NaN","","","","","","","","","","","","","",""
"","response","","html-keyboard-response","181","260718","0.0-1.0-248.0-0.0","0","0","79307","","792","","","68","27","","","1","27","training","adjacent","ED","5","4","Q.jpg","R.jpg","0","0","1","",""
"","feedback","","html-keyboard-response","182","261719","0.0-1.0-249.0-0.0","0","0","79307","","null","","","null","27","","","","","","","","","","","","","","","",""
"","ITI","","html-keyboard-response","183","262721","0.0-1.0-252.0","0","0","79307","","null","","","null","27","","","","","","","","","","","","","","","NaN",""
"","S1","","html-keyboard-response","184","262973","0.0-1.0-254.0","0","0","79307","","null","","","null","28","","","","","","","","","","","","","","","",""
"","ISI","","html-keyboard-response","185","263975","0.0-1.0-255.0","0","0","79307","","null","","","null","28","NaN","","","","","","","","","","","","","","",""
"","S2","","html-keyboard-response","186","264227","0.0-1.0-256.0","0","0","79307","","null","","","null","28","","NaN","","","","","","","","","","","","","",""
"","response","","html-keyboard-response","187","264746","0.0-1.0-257.0-0.0","0","0","79307","","518","","","68","28","","","1","28","training","adjacent","FG","6","7","N.jpg","L.jpg","0","1","0","",""
"","feedback","","html-keyboard-response","188","265747","0.0-1.0-258.0-0.0","0","0","79307","","null","","","null","28","","","","","","","","","","","","","","","",""
"","time_out","","html-keyboard-response","189","267748","0.0-1.0-260.0-0.0","0","0","79307","","null","","","null","28","","","","","","","","","","","","","","","",""
"","ITI","","html-keyboard-response","190","268750","0.0-1.0-261.0","0","0","79307","","null","","","null","28","","","","","","","","","","","","","","","NaN",""
"","S1","","html-keyboard-response","191","269001","0.0-1.0-263.0","0","0","79307","","null","","","null","29","","","","","","","","","","","","","","","",""
"","ISI","","html-keyboard-response","192","270002","0.0-1.0-264.0","0","0","79307","","null","","","null","29","NaN","","","","","","","","","","","","","","",""
"","S2","","html-keyboard-response","193","270254","0.0-1.0-265.0","0","0","79307","","null","","","null","29","","NaN","","","","","","","","","","","","","",""
"","response","","html-keyboard-response","194","270746","0.0-1.0-266.0-0.0","0","0","79307","","491","","","75","29","","","1","29","training","adjacent","BA","2","1","M.jpg","P.jpg","1","0","0","",""
"","feedback","","html-keyboard-response","195","271747","0.0-1.0-267.0-0.0","0","0","79307","","null","","","null","29","","","","","","","","","","","","","","","",""
"","time_out","","html-keyboard-response","196","273749","0.0-1.0-269.0-0.0","0","0","79307","","null","","","null","29","","","","","","","","","","","","","","","",""
"","ITI","","html-keyboard-response","197","274751","0.0-1.0-270.0","0","0","79307","","null","","","null","29","","","","","","","","","","","","","","","NaN",""
"","S1","","html-keyboard-response","198","275002","0.0-1.0-272.0","0","0","79307","","null","","","null","30","","","","","","","","","","","","","","","",""
"","ISI","","html-keyboard-response","199","276004","0.0-1.0-273.0","0","0","79307","","null","","","null","30","NaN","","","","","","","","","","","","","","",""
"","S2","","html-keyboard-response","200","276256","0.0-1.0-274.0","0","0","79307","","null","","","null","30","","NaN","","","","","","","","","","","","","",""
"","response","","html-keyboard-response","201","277083","0.0-1.0-275.0-0.0","0","0","79307","","825","","","68","30","","","1","30","training","adjacent","AB","1","2","P.jpg","M.jpg","0","1","0","",""
"","feedback","","html-keyboard-response","202","278084","0.0-1.0-276.0-0.0","0","0","79307","","null","","","null","30","","","","","","","","","","","","","","","",""
"","time_out","","html-keyboard-response","203","280085","0.0-1.0-278.0-0.0","0","0","79307","","null","","","null","30","","","","","","","","","","","","","","","",""
"","ITI","","html-keyboard-response","204","281088","0.0-1.0-279.0","0","0","79307","","null","","","null","30","","","","","","","","","","","","","","","NaN",""
"","S1","","html-keyboard-response","205","281339","0.0-1.0-281.0","0","0","79307","","null","","","null","31","","","","","","","","","","","","","","","",""
"","ISI","","html-keyboard-response","206","282341","0.0-1.0-282.0","0","0","79307","","null","","","null","31","NaN","","","","","","","","","","","","","","",""
"","S2","","html-keyboard-response","207","282593","0.0-1.0-283.0","0","0","79307","","null","","","null","31","","NaN","","","","","","","","","","","","","",""
"","response","","html-keyboard-response","208","283026","0.0-1.0-284.0-0.0","0","0","79307","","432","","","75","31","","","1","31","training","adjacent","AB","1","2","P.jpg","M.jpg","1","1","1","",""
"","feedback","","html-keyboard-response","209","284028","0.0-1.0-285.0-0.0","0","0","79307","","null","","","null","31","","","","","","","","","","","","","","","",""
"","ITI","","html-keyboard-response","210","285029","0.0-1.0-288.0","0","0","79307","","null","","","null","31","","","","","","","","","","","","","","","NaN",""
"","S1","","html-keyboard-response","211","285280","0.0-1.0-290.0","0","0","79307","","null","","","null","32","","","","","","","","","","","","","","","",""
"","ISI","","html-keyboard-response","212","286282","0.0-1.0-291.0","0","0","79307","","null","","","null","32","NaN","","","","","","","","","","","","","","",""
"","S2","","html-keyboard-response","213","286534","0.0-1.0-292.0","0","0","79307","","null","","","null","32","","NaN","","","","","","","","","","","","","",""
"","response","","html-keyboard-response","214","286834","0.0-1.0-293.0-0.0","0","0","79307","","299","","","75","32","","","1","32","training","adjacent","FE","6","5","N.jpg","Q.jpg","1","0","0","",""
"","feedback","","html-keyboard-response","215","287836","0.0-1.0-294.0-0.0","0","0","79307","","null","","","null","32","","","","","","","","","","","","","","","",""
"","time_out","","html-keyboard-response","216","289837","0.0-1.0-296.0-0.0","0","0","79307","","null","","","null","32","","","","","","","","","","","","","","","",""
"","ITI","","html-keyboard-response","217","290839","0.0-1.0-297.0","0","0","79307","","null","","","null","32","","","","","","","","","","","","","","","NaN",""
"","S1","","html-keyboard-response","218","291090","0.0-1.0-299.0","0","0","79307","","null","","","null","33","","","","","","","","","","","","","","","",""
"","ISI","","html-keyboard-response","219","292092","0.0-1.0-300.0","0","0","79307","","null","","","null","33","NaN","","","","","","","","","","","","","","",""
"","S2","","html-keyboard-response","220","292344","0.0-1.0-301.0","0","0","79307","","null","","","null","33","","NaN","","","","","","","","","","","","","",""
"","response","","html-keyboard-response","221","292643","0.0-1.0-302.0-0.0","0","0","79307","","299","","","68","33","","","1","33","training","adjacent","ED","5","4","Q.jpg","R.jpg","0","0","1","",""
"","feedback","","html-keyboard-response","222","293646","0.0-1.0-303.0-0.0","0","0","79307","","null","","","null","33","","","","","","","","","","","","","","","",""
"","ITI","","html-keyboard-response","223","294648","0.0-1.0-306.0","0","0","79307","","null","","","null","33","","","","","","","","","","","","","","","NaN",""
"","S1","","html-keyboard-response","224","294899","0.0-1.0-308.0","0","0","79307","","null","","","null","34","","","","","","","","","","","","","","","",""
"","ISI","","html-keyboard-response","225","295900","0.0-1.0-309.0","0","0","79307","","null","","","null","34","NaN","","","","","","","","","","","","","","",""
"","S2","","html-keyboard-response","226","296151","0.0-1.0-310.0","0","0","79307","","null","","","null","34","","NaN","","","","","","","","","","","","","",""
"","response","","html-keyboard-response","227","296727","0.0-1.0-311.0-0.0","0","0","79307","","574","","","75","34","","","1","34","training","adjacent","BC","2","3","M.jpg","O.jpg","1","1","1","",""
"","feedback","","html-keyboard-response","228","297728","0.0-1.0-312.0-0.0","0","0","79307","","null","","","null","34","","","","","","","","","","","","","","","",""
"","ITI","","html-keyboard-response","229","298730","0.0-1.0-315.0","0","0","79307","","null","","","null","34","","","","","","","","","","","","","","","NaN",""
"","S1","","html-keyboard-response","230","298982","0.0-1.0-317.0","0","0","79307","","null","","","null","35","","","","","","","","","","","","","","","",""
"","ISI","","html-keyboard-response","231","299983","0.0-1.0-318.0","0","0","79307","","null","","","null","35","NaN","","","","","","","","","","","","","","",""
"","S2","","html-keyboard-response","232","300234","0.0-1.0-319.0","0","0","79307","","null","","","null","35","","NaN","","","","","","","","","","","","","",""
"","response","","html-keyboard-response","233","300434","0.0-1.0-320.0-0.0","0","0","79307","","200","","","75","35","","","1","35","training","adjacent","ED","5","4","Q.jpg","R.jpg","1","0","0","",""
"","feedback","","html-keyboard-response","234","301435","0.0-1.0-321.0-0.0","0","0","79307","","null","","","null","35","","","","","","","","","","","","","","","",""
"","time_out","","html-keyboard-response","235","303437","0.0-1.0-323.0-0.0","0","0","79307","","null","","","null","35","","","","","","","","","","","","","","","",""
"","ITI","","html-keyboard-response","236","304439","0.0-1.0-324.0","0","0","79307","","null","","","null","35","","","","","","","","","","","","","","","NaN",""
"","S1","","html-keyboard-response","237","304690","0.0-1.0-326.0","0","0","79307","","null","","","null","36","","","","","","","","","","","","","","","",""
"","ISI","","html-keyboard-response","238","305692","0.0-1.0-327.0","0","0","79307","","null","","","null","36","NaN","","","","","","","","","","","","","","",""
"","S2","","html-keyboard-response","239","305944","0.0-1.0-328.0","0","0","79307","","null","","","null","36","","NaN","","","","","","","","","","","","","",""
"","response","","html-keyboard-response","240","306210","0.0-1.0-329.0-0.0","0","0","79307","","265","","","75","36","","","1","36","training","adjacent","CD","3","4","O.jpg","R.jpg","1","1","1","",""
"","feedback","","html-keyboard-response","241","307212","0.0-1.0-330.0-0.0","0","0","79307","","null","","","null","36","","","","","","","","","","","","","","","",""
"","ITI","","html-keyboard-response","242","308213","0.0-1.0-333.0","0","0","79307","","null","","","null","36","","","","","","","","","","","","","","","NaN",""
"","S1","","html-keyboard-response","243","308468","0.0-1.0-335.0","0","0","79307","","null","","","null","37","","","","","","","","","","","","","","","",""
"","ISI","","html-keyboard-response","244","309471","0.0-1.0-336.0","0","0","79307","","null","","","null","37","NaN","","","","","","","","","","","","","","",""
"","S2","","html-keyboard-response","245","309722","0.0-1.0-337.0","0","0","79307","","null","","","null","37","","NaN","","","","","","","","","","","","","",""
"","response","","html-keyboard-response","246","310234","0.0-1.0-338.0-0.0","0","0","79307","","511","","","68","37","","","1","37","training","adjacent","DC","4","3","R.jpg","O.jpg","0","0","1","",""
"","feedback","","html-keyboard-response","247","311236","0.0-1.0-339.0-0.0","0","0","79307","","null","","","null","37","","","","","","","","","","","","","","","",""
"","ITI","","html-keyboard-response","248","312237","0.0-1.0-342.0","0","0","79307","","null","","","null","37","","","","","","","","","","","","","","","NaN",""
"","S1","","html-keyboard-response","249","312488","0.0-1.0-344.0","0","0","79307","","null","","","null","38","","","","","","","","","","","","","","","",""
"","ISI","","html-keyboard-response","250","313489","0.0-1.0-345.0","0","0","79307","","null","","","null","38","NaN","","","","","","","","","","","","","","",""
"","S2","","html-keyboard-response","251","313741","0.0-1.0-346.0","0","0","79307","","null","","","null","38","","NaN","","","","","","","","","","","","","",""
"","response","","html-keyboard-response","252","314093","0.0-1.0-347.0-0.0","0","0","79307","","351","","","75","38","","","1","38","training","adjacent","CD","3","4","O.jpg","R.jpg","1","1","1","",""
"","feedback","","html-keyboard-response","253","315095","0.0-1.0-348.0-0.0","0","0","79307","","null","","","null","38","","","","","","","","","","","","","","","",""
"","ITI","","html-keyboard-response","254","316097","0.0-1.0-351.0","0","0","79307","","null","","","null","38","","","","","","","","","","","","","","","NaN",""
"","S1","","html-keyboard-response","255","316348","0.0-1.0-353.0","0","0","79307","","null","","","null","39","","","","","","","","","","","","","","","",""
"","ISI","","html-keyboard-response","256","317350","0.0-1.0-354.0","0","0","79307","","null","","","null","39","NaN","","","","","","","","","","","","","","",""
"","S2","","html-keyboard-response","257","317602","0.0-1.0-355.0","0","0","79307","","null","","","null","39","","NaN","","","","","","","","","","","","","",""
"","response","","html-keyboard-response","258","318091","0.0-1.0-356.0-0.0","0","0","79307","","488","","","68","39","","","1","39","training","adjacent","DE","4","5","R.jpg","Q.jpg","0","1","0","",""
"","feedback","","html-keyboard-response","259","319092","0.0-1.0-357.0-0.0","0","0","79307","","null","","","null","39","","","","","","","","","","","","","","","",""
"","time_out","","html-keyboard-response","260","321093","0.0-1.0-359.0-0.0","0","0","79307","","null","","","null","39","","","","","","","","","","","","","","","",""
"","ITI","","html-keyboard-response","261","322094","0.0-1.0-360.0","0","0","79307","","null","","","null","39","","","","","","","","","","","","","","","NaN",""
"","S1","","html-keyboard-response","262","322346","0.0-1.0-362.0","0","0","79307","","null","","","null","40","","","","","","","","","","","","","","","",""
"","ISI","","html-keyboard-response","263","323347","0.0-1.0-363.0","0","0","79307","","null","","","null","40","NaN","","","","","","","","","","","","","","",""
"","S2","","html-keyboard-response","264","323599","0.0-1.0-364.0","0","0","79307","","null","","","null","40","","NaN","","","","","","","","","","","","","",""
"","response","","html-keyboard-response","265","323923","0.0-1.0-365.0-0.0","0","0","79307","","322","","","75","40","","","1","40","training","adjacent","EF","5","6","Q.jpg","N.jpg","1","1","1","",""
"","feedback","","html-keyboard-response","266","324924","0.0-1.0-366.0-0.0","0","0","79307","","null","","","null","40","","","","","","","","","","","","","","","",""
"","ITI","","html-keyboard-response","267","325926","0.0-1.0-369.0","0","0","79307","","null","","","null","40","","","","","","","","","","","","","","","NaN",""
"","S1","","html-keyboard-response","268","326178","0.0-1.0-371.0","0","0","79307","","null","","","null","41","","","","","","","","","","","","","","","",""
"","ISI","","html-keyboard-response","269","327179","0.0-1.0-372.0","0","0","79307","","null","","","null","41","NaN","","","","","","","","","","","","","","",""
"","S2","","html-keyboard-response","270","327431","0.0-1.0-373.0","0","0","79307","","null","","","null","41","","NaN","","","","","","","","","","","","","",""
"","response","","html-keyboard-response","271","327771","0.0-1.0-374.0-0.0","0","0","79307","","339","","","75","41","","","1","41","training","adjacent","BC","2","3","M.jpg","O.jpg","1","1","1","",""
"","feedback","","html-keyboard-response","272","328773","0.0-1.0-375.0-0.0","0","0","79307","","null","","","null","41","","","","","","","","","","","","","","","",""
"","ITI","","html-keyboard-response","273","329775","0.0-1.0-378.0","0","0","79307","","null","","","null","41","","","","","","","","","","","","","","","NaN",""
"","S1","","html-keyboard-response","274","330026","0.0-1.0-380.0","0","0","79307","","null","","","null","42","","","","","","","","","","","","","","","",""
"","ISI","","html-keyboard-response","275","331027","0.0-1.0-381.0","0","0","79307","","null","","","null","42","NaN","","","","","","","","","","","","","","",""
"","S2","","html-keyboard-response","276","331279","0.0-1.0-382.0","0","0","79307","","null","","","null","42","","NaN","","","","","","","","","","","","","",""
"","response","","html-keyboard-response","277","331842","0.0-1.0-383.0-0.0","0","0","79307","","562","","","75","42","","","1","42","training","adjacent","FE","6","5","N.jpg","Q.jpg","1","0","0","",""
"","feedback","","html-keyboard-response","278","332842","0.0-1.0-384.0-0.0","0","0","79307","","null","","","null","42","","","","","","","","","","","","","","","",""
"","time_out","","html-keyboard-response","279","334844","0.0-1.0-386.0-0.0","0","0","79307","","null","","","null","42","","","","","","","","","","","","","","","",""
"","ITI","","html-keyboard-response","280","335845","0.0-1.0-387.0","0","0","79307","","null","","","null","42","","","","","","","","","","","","","","","NaN",""
"","S1","","html-keyboard-response","281","336096","0.0-1.0-389.0","0","0","79307","","null","","","null","43","","","","","","","","","","","","","","","",""
"","ISI","","html-keyboard-response","282","337098","0.0-1.0-390.0","0","0","79307","","null","","","null","43","NaN","","","","","","","","","","","","","","",""
"","S2","","html-keyboard-response","283","337349","0.0-1.0-391.0","0","0","79307","","null","","","null","43","","NaN","","","","","","","","","","","","","",""
"","response","","html-keyboard-response","284","337714","0.0-1.0-392.0-0.0","0","0","79307","","364","","","75","43","","","1","43","training","adjacent","CB","3","2","O.jpg","M.jpg","1","0","0","",""
"","feedback","","html-keyboard-response","285","338715","0.0-1.0-393.0-0.0","0","0","79307","","null","","","null","43","","","","","","","","","","","","","","","",""
"","time_out","","html-keyboard-response","286","340716","0.0-1.0-395.0-0.0","0","0","79307","","null","","","null","43","","","","","","","","","","","","","","","",""
"","ITI","","html-keyboard-response","287","341718","0.0-1.0-396.0","0","0","79307","","null","","","null","43","","","","","","","","","","","","","","","NaN",""
"","S1","","html-keyboard-response","288","341969","0.0-1.0-398.0","0","0","79307","","null","","","null","44","","","","","","","","","","","","","","","",""
"","ISI","","html-keyboard-response","289","342970","0.0-1.0-399.0","0","0","79307","","null","","","null","44","NaN","","","","","","","","","","","","","","",""
"","S2","","html-keyboard-response","290","343222","0.0-1.0-400.0","0","0","79307","","null","","","null","44","","NaN","","","","","","","","","","","","","",""
"","response","","html-keyboard-response","291","343708","0.0-1.0-401.0-0.0","0","0","79307","","485","","","68","44","","","1","44","training","adjacent","FE","6","5","N.jpg","Q.jpg","0","0","1","",""
"","feedback","","html-keyboard-response","292","344709","0.0-1.0-402.0-0.0","0","0","79307","","null","","","null","44","","","","","","","","","","","","","","","",""
"","ITI","","html-keyboard-response","293","345711","0.0-1.0-405.0","0","0","79307","","null","","","null","44","","","","","","","","","","","","","","","NaN",""
"","S1","","html-keyboard-response","294","345962","0.0-1.0-407.0","0","0","79307","","null","","","null","45","","","","","","","","","","","","","","","",""
"","ISI","","html-keyboard-response","295","346964","0.0-1.0-408.0","0","0","79307","","null","","","null","45","NaN","","","","","","","","","","","","","","",""
"","S2","","html-keyboard-response","296","347215","0.0-1.0-409.0","0","0","79307","","null","","","null","45","","NaN","","","","","","","","","","","","","",""
"","response","","html-keyboard-response","297","347818","0.0-1.0-410.0-0.0","0","0","79307","","601","","","75","45","","","1","45","training","adjacent","FG","6","7","N.jpg","L.jpg","1","1","1","",""
"","feedback","","html-keyboard-response","298","348819","0.0-1.0-411.0-0.0","0","0","79307","","null","","","null","45","","","","","","","","","","","","","","","",""
"","ITI","","html-keyboard-response","299","349821","0.0-1.0-414.0","0","0","79307","","null","","","null","45","","","","","","","","","","","","","","","NaN",""
"","S1","","html-keyboard-response","300","350072","0.0-1.0-416.0","0","0","79307","","null","","","null","46","","","","","","","","","","","","","","","",""
"","ISI","","html-keyboard-response","301","351073","0.0-1.0-417.0","0","0","79307","","null","","","null","46","NaN","","","","","","","","","","","","","","",""
"","S2","","html-keyboard-response","302","351324","0.0-1.0-418.0","0","0","79307","","null","","","null","46","","NaN","","","","","","","","","","","","","",""
"","response","","html-keyboard-response","303","351668","0.0-1.0-419.0-0.0","0","0","79307","","343","","","68","46","","","1","46","training","adjacent","DC","4","3","R.jpg","O.jpg","0","0","1","",""
"","feedback","","html-keyboard-response","304","352669","0.0-1.0-420.0-0.0","0","0","79307","","null","","","null","46","","","","","","","","","","","","","","","",""
"","ITI","","html-keyboard-response","305","353672","0.0-1.0-423.0","0","0","79307","","null","","","null","46","","","","","","","","","","","","","","","NaN",""
"","S1","","html-keyboard-response","306","353923","0.0-1.0-425.0","0","0","79307","","null","","","null","47","","","","","","","","","","","","","","","",""
"","ISI","","html-keyboard-response","307","354925","0.0-1.0-426.0","0","0","79307","","null","","","null","47","NaN","","","","","","","","","","","","","","",""
"","S2","","html-keyboard-response","308","355176","0.0-1.0-427.0","0","0","79307","","null","","","null","47","","NaN","","","","","","","","","","","","","",""
"","response","","html-keyboard-response","309","355543","0.0-1.0-428.0-0.0","0","0","79307","","366","","","68","47","","","1","47","training","adjacent","DE","4","5","R.jpg","Q.jpg","0","1","0","",""
"","feedback","","html-keyboard-response","310","356545","0.0-1.0-429.0-0.0","0","0","79307","","null","","","null","47","","","","","","","","","","","","","","","",""
"","time_out","","html-keyboard-response","311","358546","0.0-1.0-431.0-0.0","0","0","79307","","null","","","null","47","","","","","","","","","","","","","","","",""
"","ITI","","html-keyboard-response","312","359547","0.0-1.0-432.0","0","0","79307","","null","","","null","47","","","","","","","","","","","","","","","NaN",""
"","block_over","","html-keyboard-response","313","362685","0.0-1.0-433.0-0.0","0","0","79307","","3138","","","32","47","","","","","","","","","","","","","","","",""
"","S1","","html-keyboard-response","314","362936","0.0-1.0-434.0","0","0","79307","","null","","","null","48","","","","","","","","","","","","","","","",""
"","ISI","","html-keyboard-response","315","363938","0.0-1.0-435.0","0","0","79307","","null","","","null","48","NaN","","","","","","","","","","","","","","",""
"","S2","","html-keyboard-response","316","364190","0.0-1.0-436.0","0","0","79307","","null","","","null","48","","NaN","","","","","","","","","","","","","",""
"","response","","html-keyboard-response","317","364629","0.0-1.0-437.0-0.0","0","0","79307","","438","","","75","48","","","2","48","training","adjacent","ED","5","4","Q.jpg","R.jpg","1","0","0","",""
"","feedback","","html-keyboard-response","318","365633","0.0-1.0-438.0-0.0","0","0","79307","","null","","","null","48","","","","","","","","","","","","","","","",""
"","time_out","","html-keyboard-response","319","367635","0.0-1.0-440.0-0.0","0","0","79307","","null","","","null","48","","","","","","","","","","","","","","","",""
"","ITI","","html-keyboard-response","320","368637","0.0-1.0-441.0","0","0","79307","","null","","","null","48","","","","","","","","","","","","","","","NaN",""
"","S1","","html-keyboard-response","321","368888","0.0-1.0-443.0","0","0","79307","","null","","","null","49","","","","","","","","","","","","","","","",""
"","ISI","","html-keyboard-response","322","369890","0.0-1.0-444.0","0","0","79307","","null","","","null","49","NaN","","","","","","","","","","","","","","",""
"","S2","","html-keyboard-response","323","370142","0.0-1.0-445.0","0","0","79307","","null","","","null","49","","NaN","","","","","","","","","","","","","",""
"","response","","html-keyboard-response","324","370533","0.0-1.0-446.0-0.0","0","0","79307","","391","","","68","49","","","2","49","training","adjacent","CD","3","4","O.jpg","R.jpg","0","1","0","",""
"","feedback","","html-keyboard-response","325","371536","0.0-1.0-447.0-0.0","0","0","79307","","null","","","null","49","","","","","","","","","","","","","","","",""
"","time_out","","html-keyboard-response","326","373538","0.0-1.0-449.0-0.0","0","0","79307","","null","","","null","49","","","","","","","","","","","","","","","",""
"","ITI","","html-keyboard-response","327","374539","0.0-1.0-450.0","0","0","79307","","null","","","null","49","","","","","","","","","","","","","","","NaN",""
"","S1","","html-keyboard-response","328","374792","0.0-1.0-452.0","0","0","79307","","null","","","null","50","","","","","","","","","","","","","","","",""
"","ISI","","html-keyboard-response","329","375793","0.0-1.0-453.0","0","0","79307","","null","","","null","50","NaN","","","","","","","","","","","","","","",""
"","S2","","html-keyboard-response","330","376045","0.0-1.0-454.0","0","0","79307","","null","","","null","50","","NaN","","","","","","","","","","","","","",""
"","response","","html-keyboard-response","331","376418","0.0-1.0-455.0-0.0","0","0","79307","","373","","","68","50","","","2","50","training","adjacent","ED","5","4","Q.jpg","R.jpg","0","0","1","",""
"","feedback","","html-keyboard-response","332","377421","0.0-1.0-456.0-0.0","0","0","79307","","null","","","null","50","","","","","","","","","","","","","","","",""
"","ITI","","html-keyboard-response","333","378423","0.0-1.0-459.0","0","0","79307","","null","","","null","50","","","","","","","","","","","","","","","NaN",""
"","S1","","html-keyboard-response","334","378674","0.0-1.0-461.0","0","0","79307","","null","","","null","51","","","","","","","","","","","","","","","",""
"","ISI","","html-keyboard-response","335","379676","0.0-1.0-462.0","0","0","79307","","null","","","null","51","NaN","","","","","","","","","","","","","","",""
"","S2","","html-keyboard-response","336","379927","0.0-1.0-463.0","0","0","79307","","null","","","null","51","","NaN","","","","","","","","","","","","","",""
"","response","","html-keyboard-response","337","380232","0.0-1.0-464.0-0.0","0","0","79307","","304","","","68","51","","","2","51","training","adjacent","ED","5","4","Q.jpg","R.jpg","0","0","1","",""
"","feedback","","html-keyboard-response","338","381233","0.0-1.0-465.0-0.0","0","0","79307","","null","","","null","51","","","","","","","","","","","","","","","",""
"","ITI","","html-keyboard-response","339","382235","0.0-1.0-468.0","0","0","79307","","null","","","null","51","","","","","","","","","","","","","","","NaN",""
"","S1","","html-keyboard-response","340","382486","0.0-1.0-470.0","0","0","79307","","null","","","null","52","","","","","","","","","","","","","","","",""
"","ISI","","html-keyboard-response","341","383487","0.0-1.0-471.0","0","0","79307","","null","","","null","52","NaN","","","","","","","","","","","","","","",""
"","S2","","html-keyboard-response","342","383739","0.0-1.0-472.0","0","0","79307","","null","","","null","52","","NaN","","","","","","","","","","","","","",""
"","response","","html-keyboard-response","343","384119","0.0-1.0-473.0-0.0","0","0","79307","","380","","","75","52","","","2","52","training","adjacent","GF","7","6","L.jpg","N.jpg","1","0","0","",""
"","feedback","","html-keyboard-response","344","385121","0.0-1.0-474.0-0.0","0","0","79307","","null","","","null","52","","","","","","","","","","","","","","","",""
"","time_out","","html-keyboard-response","345","387122","0.0-1.0-476.0-0.0","0","0","79307","","null","","","null","52","","","","","","","","","","","","","","","",""
"","ITI","","html-keyboard-response","346","388124","0.0-1.0-477.0","0","0","79307","","null","","","null","52","","","","","","","","","","","","","","","NaN",""
"","S1","","html-keyboard-response","347","388375","0.0-1.0-479.0","0","0","79307","","null","","","null","53","","","","","","","","","","","","","","","",""
"","ISI","","html-keyboard-response","348","389376","0.0-1.0-480.0","0","0","79307","","null","","","null","53","NaN","","","","","","","","","","","","","","",""
"","S2","","html-keyboard-response","349","389628","0.0-1.0-481.0","0","0","79307","","null","","","null","53","","NaN","","","","","","","","","","","","","",""
"","response","","html-keyboard-response","350","390192","0.0-1.0-482.0-0.0","0","0","79307","","564","","","68","53","","","2","53","training","adjacent","BC","2","3","M.jpg","O.jpg","0","1","0","",""
"","feedback","","html-keyboard-response","351","391194","0.0-1.0-483.0-0.0","0","0","79307","","null","","","null","53","","","","","","","","","","","","","","","",""
"","time_out","","html-keyboard-response","352","393195","0.0-1.0-485.0-0.0","0","0","79307","","null","","","null","53","","","","","","","","","","","","","","","",""
"","ITI","","html-keyboard-response","353","394196","0.0-1.0-486.0","0","0","79307","","null","","","null","53","","","","","","","","","","","","","","","NaN",""
"","S1","","html-keyboard-response","354","394448","0.0-1.0-488.0","0","0","79307","","null","","","null","54","","","","","","","","","","","","","","","",""
"","ISI","","html-keyboard-response","355","395450","0.0-1.0-489.0","0","0","79307","","null","","","null","54","NaN","","","","","","","","","","","","","","",""
"","S2","","html-keyboard-response","356","395701","0.0-1.0-490.0","0","0","79307","","null","","","null","54","","NaN","","","","","","","","","","","","","",""
"","response","","html-keyboard-response","357","396181","0.0-1.0-491.0-0.0","0","0","79307","","480","","","75","54","","","2","54","training","adjacent","BA","2","1","M.jpg","P.jpg","1","0","0","",""
"","feedback","","html-keyboard-response","358","397182","0.0-1.0-492.0-0.0","0","0","79307","","null","","","null","54","","","","","","","","","","","","","","","",""
"","time_out","","html-keyboard-response","359","399184","0.0-1.0-494.0-0.0","0","0","79307","","null","","","null","54","","","","","","","","","","","","","","","",""
"","ITI","","html-keyboard-response","360","400186","0.0-1.0-495.0","0","0","79307","","null","","","null","54","","","","","","","","","","","","","","","NaN",""
"","S1","","html-keyboard-response","361","400437","0.0-1.0-497.0","0","0","79307","","null","","","null","55","","","","","","","","","","","","","","","",""
"","ISI","","html-keyboard-response","362","401438","0.0-1.0-498.0","0","0","79307","","null","","","null","55","NaN","","","","","","","","","","","","","","",""
"","S2","","html-keyboard-response","363","401690","0.0-1.0-499.0","0","0","79307","","null","","","null","55","","NaN","","","","","","","","","","","","","",""
"","response","","html-keyboard-response","364","402195","0.0-1.0-500.0-0.0","0","0","79307","","505","","","68","55","","","2","55","training","adjacent","DC","4","3","R.jpg","O.jpg","0","0","1","",""
"","feedback","","html-keyboard-response","365","403197","0.0-1.0-501.0-0.0","0","0","79307","","null","","","null","55","","","","","","","","","","","","","","","",""
"","ITI","","html-keyboard-response","366","404199","0.0-1.0-504.0","0","0","79307","","null","","","null","55","","","","","","","","","","","","","","","NaN",""
"","S1","","html-keyboard-response","367","404450","0.0-1.0-506.0","0","0","79307","","null","","","null","56","","","","","","","","","","","","","","","",""
"","ISI","","html-keyboard-response","368","405451","0.0-1.0-507.0","0","0","79307","","null","","","null","56","NaN","","","","","","","","","","","","","","",""
"","S2","","html-keyboard-response","369","405702","0.0-1.0-508.0","0","0","79307","","null","","","null","56","","NaN","","","","","","","","","","","","","",""
"","response","","html-keyboard-response","370","406307","0.0-1.0-509.0-0.0","0","0","79307","","604","","","68","56","","","2","56","training","adjacent","FE","6","5","N.jpg","Q.jpg","0","0","1","",""
"","feedback","","html-keyboard-response","371","407309","0.0-1.0-510.0-0.0","0","0","79307","","null","","","null","56","","","","","","","","","","","","","","","",""
"","ITI","","html-keyboard-response","372","408311","0.0-1.0-513.0","0","0","79307","","null","","","null","56","","","","","","","","","","","","","","","NaN",""
"","S1","","html-keyboard-response","373","408562","0.0-1.0-515.0","0","0","79307","","null","","","null","57","","","","","","","","","","","","","","","",""
"","ISI","","html-keyboard-response","374","409563","0.0-1.0-516.0","0","0","79307","","null","","","null","57","NaN","","","","","","","","","","","","","","",""
"","S2","","html-keyboard-response","375","409815","0.0-1.0-517.0","0","0","79307","","null","","","null","57","","NaN","","","","","","","","","","","","","",""
"","response","","html-keyboard-response","376","410206","0.0-1.0-518.0-0.0","0","0","79307","","391","","","75","57","","","2","57","training","adjacent","EF","5","6","Q.jpg","N.jpg","1","1","1","",""
"","feedback","","html-keyboard-response","377","411207","0.0-1.0-519.0-0.0","0","0","79307","","null","","","null","57","","","","","","","","","","","","","","","",""
"","ITI","","html-keyboard-response","378","412208","0.0-1.0-522.0","0","0","79307","","null","","","null","57","","","","","","","","","","","","","","","NaN",""
"","S1","","html-keyboard-response","379","412459","0.0-1.0-524.0","0","0","79307","","null","","","null","58","","","","","","","","","","","","","","","",""
"","ISI","","html-keyboard-response","380","413461","0.0-1.0-525.0","0","0","79307","","null","","","null","58","NaN","","","","","","","","","","","","","","",""
"","S2","","html-keyboard-response","381","413712","0.0-1.0-526.0","0","0","79307","","null","","","null","58","","NaN","","","","","","","","","","","","","",""
"","response","","html-keyboard-response","382","414014","0.0-1.0-527.0-0.0","0","0","79307","","302","","","75","58","","","2","58","training","adjacent","AB","1","2","P.jpg","M.jpg","1","1","1","",""
"","feedback","","html-keyboard-response","383","415016","0.0-1.0-528.0-0.0","0","0","79307","","null","","","null","58","","","","","","","","","","","","","","","",""
"","ITI","","html-keyboard-response","384","416017","0.0-1.0-531.0","0","0","79307","","null","","","null","58","","","","","","","","","","","","","","","NaN",""
"","S1","","html-keyboard-response","385","416268","0.0-1.0-533.0","0","0","79307","","null","","","null","59","","","","","","","","","","","","","","","",""
"","ISI","","html-keyboard-response","386","417269","0.0-1.0-534.0","0","0","79307","","null","","","null","59","NaN","","","","","","","","","","","","","","",""
"","S2","","html-keyboard-response","387","417521","0.0-1.0-535.0","0","0","79307","","null","","","null","59","","NaN","","","","","","","","","","","","","",""
"","response","","html-keyboard-response","388","417974","0.0-1.0-536.0-0.0","0","0","79307","","452","","","68","59","","","2","59","training","adjacent","DC","4","3","R.jpg","O.jpg","0","0","1","",""
"","feedback","","html-keyboard-response","389","418975","0.0-1.0-537.0-0.0","0","0","79307","","null","","","null","59","","","","","","","","","","","","","","","",""
"","ITI","","html-keyboard-response","390","419977","0.0-1.0-540.0","0","0","79307","","null","","","null","59","","","","","","","","","","","","","","","NaN",""
"","S1","","html-keyboard-response","391","420228","0.0-1.0-542.0","0","0","79307","","null","","","null","60","","","","","","","","","","","","","","","",""
"","ISI","","html-keyboard-response","392","421230","0.0-1.0-543.0","0","0","79307","","null","","","null","60","NaN","","","","","","","","","","","","","","",""
"","S2","","html-keyboard-response","393","421482","0.0-1.0-544.0","0","0","79307","","null","","","null","60","","NaN","","","","","","","","","","","","","",""
"","response","","html-keyboard-response","394","422126","0.0-1.0-545.0-0.0","0","0","79307","","644","","","68","60","","","2","60","training","adjacent","DE","4","5","R.jpg","Q.jpg","0","1","0","",""
"","feedback","","html-keyboard-response","395","423128","0.0-1.0-546.0-0.0","0","0","79307","","null","","","null","60","","","","","","","","","","","","","","","",""
"","time_out","","html-keyboard-response","396","425129","0.0-1.0-548.0-0.0","0","0","79307","","null","","","null","60","","","","","","","","","","","","","","","",""
"","ITI","","html-keyboard-response","397","426131","0.0-1.0-549.0","0","0","79307","","null","","","null","60","","","","","","","","","","","","","","","NaN",""
"","S1","","html-keyboard-response","398","426383","0.0-1.0-551.0","0","0","79307","","null","","","null","61","","","","","","","","","","","","","","","",""
"","ISI","","html-keyboard-response","399","427385","0.0-1.0-552.0","0","0","79307","","null","","","null","61","NaN","","","","","","","","","","","","","","",""
"","S2","","html-keyboard-response","400","427636","0.0-1.0-553.0","0","0","79307","","null","","","null","61","","NaN","","","","","","","","","","","","","",""
"","response","","html-keyboard-response","401","428008","0.0-1.0-554.0-0.0","0","0","79307","","372","","","75","61","","","2","61","training","adjacent","FG","6","7","N.jpg","L.jpg","1","1","1","",""
"","feedback","","html-keyboard-response","402","429010","0.0-1.0-555.0-0.0","0","0","79307","","null","","","null","61","","","","","","","","","","","","","","","",""
"","ITI","","html-keyboard-response","403","430011","0.0-1.0-558.0","0","0","79307","","null","","","null","61","","","","","","","","","","","","","","","NaN",""
"","S1","","html-keyboard-response","404","430262","0.0-1.0-560.0","0","0","79307","","null","","","null","62","","","","","","","","","","","","","","","",""
"","ISI","","html-keyboard-response","405","431264","0.0-1.0-561.0","0","0","79307","","null","","","null","62","NaN","","","","","","","","","","","","","","",""
"","S2","","html-keyboard-response","406","431515","0.0-1.0-562.0","0","0","79307","","null","","","null","62","","NaN","","","","","","","","","","","","","",""
"","response","","html-keyboard-response","407","431949","0.0-1.0-563.0-0.0","0","0","79307","","432","","","68","62","","","2","62","training","adjacent","DC","4","3","R.jpg","O.jpg","0","0","1","",""
"","feedback","","html-keyboard-response","408","432950","0.0-1.0-564.0-0.0","0","0","79307","","null","","","null","62","","","","","","","","","","","","","","","",""
"","ITI","","html-keyboard-response","409","433952","0.0-1.0-567.0","0","0","79307","","null","","","null","62","","","","","","","","","","","","","","","NaN",""
"","S1","","html-keyboard-response","410","434203","0.0-1.0-569.0","0","0","79307","","null","","","null","63","","","","","","","","","","","","","","","",""
"","ISI","","html-keyboard-response","411","435205","0.0-1.0-570.0","0","0","79307","","null","","","null","63","NaN","","","","","","","","","","","","","","",""
"","S2","","html-keyboard-response","412","435457","0.0-1.0-571.0","0","0","79307","","null","","","null","63","","NaN","","","","","","","","","","","","","",""
"","response","","html-keyboard-response","413","435883","0.0-1.0-572.0-0.0","0","0","79307","","426","","","75","63","","","2","63","training","adjacent","AB","1","2","P.jpg","M.jpg","1","1","1","",""
"","feedback","","html-keyboard-response","414","436885","0.0-1.0-573.0-0.0","0","0","79307","","null","","","null","63","","","","","","","","","","","","","","","",""
"","ITI","","html-keyboard-response","415","437887","0.0-1.0-576.0","0","0","79307","","null","","","null","63","","","","","","","","","","","","","","","NaN",""
"","S1","","html-keyboard-response","416","438138","0.0-1.0-578.0","0","0","79307","","null","","","null","64","","","","","","","","","","","","","","","",""
"","ISI","","html-keyboard-response","417","439139","0.0-1.0-579.0","0","0","79307","","null","","","null","64","NaN","","","","","","","","","","","","","","",""
"","S2","","html-keyboard-response","418","439390","0.0-1.0-580.0","0","0","79307","","null","","","null","64","","NaN","","","","","","","","","","","","","",""
"","response","","html-keyboard-response","419","439892","0.0-1.0-581.0-0.0","0","0","79307","","501","","","68","64","","","2","64","training","adjacent","FE","6","5","N.jpg","Q.jpg","0","0","1","",""
"","feedback","","html-keyboard-response","420","440894","0.0-1.0-582.0-0.0","0","0","79307","","null","","","null","64","","","","","","","","","","","","","","","",""
"","ITI","","html-keyboard-response","421","441897","0.0-1.0-585.0","0","0","79307","","null","","","null","64","","","","","","","","","","","","","","","NaN",""
"","S1","","html-keyboard-response","422","442157","0.0-1.0-587.0","0","0","79307","","null","","","null","65","","","","","","","","","","","","","","","",""
"","ISI","","html-keyboard-response","423","443160","0.0-1.0-588.0","0","0","79307","","null","","","null","65","NaN","","","","","","","","","","","","","","",""
"","S2","","html-keyboard-response","424","443411","0.0-1.0-589.0","0","0","79307","","null","","","null","65","","NaN","","","","","","","","","","","","","",""
"","response","","html-keyboard-response","425","443757","0.0-1.0-590.0-0.0","0","0","79307","","346","","","75","65","","","2","65","training","adjacent","AB","1","2","P.jpg","M.jpg","1","1","1","",""
"","feedback","","html-keyboard-response","426","444758","0.0-1.0-591.0-0.0","0","0","79307","","null","","","null","65","","","","","","","","","","","","","","","",""
"","ITI","","html-keyboard-response","427","445760","0.0-1.0-594.0","0","0","79307","","null","","","null","65","","","","","","","","","","","","","","","NaN",""
"","S1","","html-keyboard-response","428","446011","0.0-1.0-596.0","0","0","79307","","null","","","null","66","","","","","","","","","","","","","","","",""
"","ISI","","html-keyboard-response","429","447012","0.0-1.0-597.0","0","0","79307","","null","","","null","66","NaN","","","","","","","","","","","","","","",""
"","S2","","html-keyboard-response","430","447263","0.0-1.0-598.0","0","0","79307","","null","","","null","66","","NaN","","","","","","","","","","","","","",""
"","response","","html-keyboard-response","431","447635","0.0-1.0-599.0-0.0","0","0","79307","","371","","","75","66","","","2","66","training","adjacent","CB","3","2","O.jpg","M.jpg","1","0","0","",""
"","feedback","","html-keyboard-response","432","448637","0.0-1.0-600.0-0.0","0","0","79307","","null","","","null","66","","","","","","","","","","","","","","","",""
"","time_out","","html-keyboard-response","433","450639","0.0-1.0-602.0-0.0","0","0","79307","","null","","","null","66","","","","","","","","","","","","","","","",""
"","ITI","","html-keyboard-response","434","451640","0.0-1.0-603.0","0","0","79307","","null","","","null","66","","","","","","","","","","","","","","","NaN",""
"","S1","","html-keyboard-response","435","451892","0.0-1.0-605.0","0","0","79307","","null","","","null","67","","","","","","","","","","","","","","","",""
"","ISI","","html-keyboard-response","436","452893","0.0-1.0-606.0","0","0","79307","","null","","","null","67","NaN","","","","","","","","","","","","","","",""
"","S2","","html-keyboard-response","437","453144","0.0-1.0-607.0","0","0","79307","","null","","","null","67","","NaN","","","","","","","","","","","","","",""
"","response","","html-keyboard-response","438","453523","0.0-1.0-608.0-0.0","0","0","79307","","377","","","75","67","","","2","67","training","adjacent","FE","6","5","N.jpg","Q.jpg","1","0","0","",""
"","feedback","","html-keyboard-response","439","454537","0.0-1.0-609.0-0.0","0","0","79307","","null","","","null","67","","","","","","","","","","","","","","","",""
"","time_out","","html-keyboard-response","440","456538","0.0-1.0-611.0-0.0","0","0","79307","","null","","","null","67","","","","","","","","","","","","","","","",""
"","ITI","","html-keyboard-response","441","457540","0.0-1.0-612.0","0","0","79307","","null","","","null","67","","","","","","","","","","","","","","","NaN",""
"","S1","","html-keyboard-response","442","457791","0.0-1.0-614.0","0","0","79307","","null","","","null","68","","","","","","","","","","","","","","","",""
"","ISI","","html-keyboard-response","443","458793","0.0-1.0-615.0","0","0","79307","","null","","","null","68","NaN","","","","","","","","","","","","","","",""
"","S2","","html-keyboard-response","444","459044","0.0-1.0-616.0","0","0","79307","","null","","","null","68","","NaN","","","","","","","","","","","","","",""
"","response","","html-keyboard-response","445","459396","0.0-1.0-617.0-0.0","0","0","79307","","352","","","68","68","","","2","68","training","adjacent","EF","5","6","Q.jpg","N.jpg","0","1","0","",""
"","feedback","","html-keyboard-response","446","460398","0.0-1.0-618.0-0.0","0","0","79307","","null","","","null","68","","","","","","","","","","","","","","","",""
"","time_out","","html-keyboard-response","447","462399","0.0-1.0-620.0-0.0","0","0","79307","","null","","","null","68","","","","","","","","","","","","","","","",""
"","ITI","","html-keyboard-response","448","463401","0.0-1.0-621.0","0","0","79307","","null","","","null","68","","","","","","","","","","","","","","","NaN",""
"","S1","","html-keyboard-response","449","463653","0.0-1.0-623.0","0","0","79307","","null","","","null","69","","","","","","","","","","","","","","","",""
"","ISI","","html-keyboard-response","450","464653","0.0-1.0-624.0","0","0","79307","","null","","","null","69","NaN","","","","","","","","","","","","","","",""
"","S2","","html-keyboard-response","451","464904","0.0-1.0-625.0","0","0","79307","","null","","","null","69","","NaN","","","","","","","","","","","","","",""
"","response","","html-keyboard-response","452","465237","0.0-1.0-626.0-0.0","0","0","79307","","331","","","68","69","","","2","69","training","adjacent","ED","5","4","Q.jpg","R.jpg","0","0","1","",""
"","feedback","","html-keyboard-response","453","466238","0.0-1.0-627.0-0.0","0","0","79307","","null","","","null","69","","","","","","","","","","","","","","","",""
"","ITI","","html-keyboard-response","454","467240","0.0-1.0-630.0","0","0","79307","","null","","","null","69","","","","","","","","","","","","","","","NaN",""
"","S1","","html-keyboard-response","455","467491","0.0-1.0-632.0","0","0","79307","","null","","","null","70","","","","","","","","","","","","","","","",""
"","ISI","","html-keyboard-response","456","468492","0.0-1.0-633.0","0","0","79307","","null","","","null","70","NaN","","","","","","","","","","","","","","",""
"","S2","","html-keyboard-response","457","468744","0.0-1.0-634.0","0","0","79307","","null","","","null","70","","NaN","","","","","","","","","","","","","",""
"","response","","html-keyboard-response","458","469136","0.0-1.0-635.0-0.0","0","0","79307","","391","","","68","70","","","2","70","training","adjacent","BA","2","1","M.jpg","P.jpg","0","0","1","",""
"","feedback","","html-keyboard-response","459","470138","0.0-1.0-636.0-0.0","0","0","79307","","null","","","null","70","","","","","","","","","","","","","","","",""
"","ITI","","html-keyboard-response","460","471140","0.0-1.0-639.0","0","0","79307","","null","","","null","70","","","","","","","","","","","","","","","NaN",""
"","S1","","html-keyboard-response","461","471392","0.0-1.0-641.0","0","0","79307","","null","","","null","71","","","","","","","","","","","","","","","",""
"","ISI","","html-keyboard-response","462","472394","0.0-1.0-642.0","0","0","79307","","null","","","null","71","NaN","","","","","","","","","","","","","","",""
"","S2","","html-keyboard-response","463","472645","0.0-1.0-643.0","0","0","79307","","null","","","null","71","","NaN","","","","","","","","","","","","","",""
"","response","","html-keyboard-response","464","473070","0.0-1.0-644.0-0.0","0","0","79307","","425","","","68","71","","","2","71","training","adjacent","FG","6","7","N.jpg","L.jpg","0","1","0","",""
"","feedback","","html-keyboard-response","465","474072","0.0-1.0-645.0-0.0","0","0","79307","","null","","","null","71","","","","","","","","","","","","","","","",""
"","time_out","","html-keyboard-response","466","476073","0.0-1.0-647.0-0.0","0","0","79307","","null","","","null","71","","","","","","","","","","","","","","","",""
"","ITI","","html-keyboard-response","467","477075","0.0-1.0-648.0","0","0","79307","","null","","","null","71","","","","","","","","","","","","","","","NaN",""
"","S1","","html-keyboard-response","468","477326","0.0-1.0-650.0","0","0","79307","","null","","","null","72","","","","","","","","","","","","","","","",""
"","ISI","","html-keyboard-response","469","478329","0.0-1.0-651.0","0","0","79307","","null","","","null","72","NaN","","","","","","","","","","","","","","",""
"","S2","","html-keyboard-response","470","478580","0.0-1.0-652.0","0","0","79307","","null","","","null","72","","NaN","","","","","","","","","","","","","",""
"","response","","html-keyboard-response","471","478939","0.0-1.0-653.0-0.0","0","0","79307","","358","","","68","72","","","2","72","training","adjacent","DE","4","5","R.jpg","Q.jpg","0","1","0","",""
"","feedback","","html-keyboard-response","472","479941","0.0-1.0-654.0-0.0","0","0","79307","","null","","","null","72","","","","","","","","","","","","","","","",""
"","time_out","","html-keyboard-response","473","481943","0.0-1.0-656.0-0.0","0","0","79307","","null","","","null","72","","","","","","","","","","","","","","","",""
"","ITI","","html-keyboard-response","474","482944","0.0-1.0-657.0","0","0","79307","","null","","","null","72","","","","","","","","","","","","","","","NaN",""
"","S1","","html-keyboard-response","475","483196","0.0-1.0-659.0","0","0","79307","","null","","","null","73","","","","","","","","","","","","","","","",""
"","ISI","","html-keyboard-response","476","484198","0.0-1.0-660.0","0","0","79307","","null","","","null","73","NaN","","","","","","","","","","","","","","",""
"","S2","","html-keyboard-response","477","484449","0.0-1.0-661.0","0","0","79307","","null","","","null","73","","NaN","","","","","","","","","","","","","",""
"","response","","html-keyboard-response","478","484711","0.0-1.0-662.0-0.0","0","0","79307","","261","","","75","73","","","2","73","training","adjacent","DE","4","5","R.jpg","Q.jpg","1","1","1","",""
"","feedback","","html-keyboard-response","479","485713","0.0-1.0-663.0-0.0","0","0","79307","","null","","","null","73","","","","","","","","","","","","","","","",""
"","ITI","","html-keyboard-response","480","486715","0.0-1.0-666.0","0","0","79307","","null","","","null","73","","","","","","","","","","","","","","","NaN",""
"","S1","","html-keyboard-response","481","486967","0.0-1.0-668.0","0","0","79307","","null","","","null","74","","","","","","","","","","","","","","","",""
"","ISI","","html-keyboard-response","482","487968","0.0-1.0-669.0","0","0","79307","","null","","","null","74","NaN","","","","","","","","","","","","","","",""
"","S2","","html-keyboard-response","483","488220","0.0-1.0-670.0","0","0","79307","","null","","","null","74","","NaN","","","","","","","","","","","","","",""
"","response","","html-keyboard-response","484","488357","0.0-1.0-671.0-0.0","0","0","79307","","137","","","68","74","","","2","74","training","adjacent","CB","3","2","O.jpg","M.jpg","0","0","1","",""
"","feedback","","html-keyboard-response","485","489359","0.0-1.0-672.0-0.0","0","0","79307","","null","","","null","74","","","","","","","","","","","","","","","",""
"","ITI","","html-keyboard-response","486","490362","0.0-1.0-675.0","0","0","79307","","null","","","null","74","","","","","","","","","","","","","","","NaN",""
"","S1","","html-keyboard-response","487","490613","0.0-1.0-677.0","0","0","79307","","null","","","null","75","","","","","","","","","","","","","","","",""
"","ISI","","html-keyboard-response","488","491615","0.0-1.0-678.0","0","0","79307","","null","","","null","75","NaN","","","","","","","","","","","","","","",""
"","S2","","html-keyboard-response","489","491866","0.0-1.0-679.0","0","0","79307","","null","","","null","75","","NaN","","","","","","","","","","","","","",""
"","response","","html-keyboard-response","490","492199","0.0-1.0-680.0-0.0","0","0","79307","","331","","","75","75","","","2","75","training","adjacent","GF","7","6","L.jpg","N.jpg","1","0","0","",""
"","feedback","","html-keyboard-response","491","493201","0.0-1.0-681.0-0.0","0","0","79307","","null","","","null","75","","","","","","","","","","","","","","","",""
"","time_out","","html-keyboard-response","492","495202","0.0-1.0-683.0-0.0","0","0","79307","","null","","","null","75","","","","","","","","","","","","","","","",""
"","ITI","","html-keyboard-response","493","496204","0.0-1.0-684.0","0","0","79307","","null","","","null","75","","","","","","","","","","","","","","","NaN",""
"","S1","","html-keyboard-response","494","496456","0.0-1.0-686.0","0","0","79307","","null","","","null","76","","","","","","","","","","","","","","","",""
"","ISI","","html-keyboard-response","495","497458","0.0-1.0-687.0","0","0","79307","","null","","","null","76","NaN","","","","","","","","","","","","","","",""
"","S2","","html-keyboard-response","496","497709","0.0-1.0-688.0","0","0","79307","","null","","","null","76","","NaN","","","","","","","","","","","","","",""
"","response","","html-keyboard-response","497","498175","0.0-1.0-689.0-0.0","0","0","79307","","466","","","75","76","","","2","76","training","adjacent","EF","5","6","Q.jpg","N.jpg","1","1","1","",""
"","feedback","","html-keyboard-response","498","499177","0.0-1.0-690.0-0.0","0","0","79307","","null","","","null","76","","","","","","","","","","","","","","","",""
"","ITI","","html-keyboard-response","499","500179","0.0-1.0-693.0","0","0","79307","","null","","","null","76","","","","","","","","","","","","","","","NaN",""
"","S1","","html-keyboard-response","500","500430","0.0-1.0-695.0","0","0","79307","","null","","","null","77","","","","","","","","","","","","","","","",""
"","ISI","","html-keyboard-response","501","501431","0.0-1.0-696.0","0","0","79307","","null","","","null","77","NaN","","","","","","","","","","","","","","",""
"","S2","","html-keyboard-response","502","501682","0.0-1.0-697.0","0","0","79307","","null","","","null","77","","NaN","","","","","","","","","","","","","",""
"","response","","html-keyboard-response","503","502030","0.0-1.0-698.0-0.0","0","0","79307","","348","","","75","77","","","2","77","training","adjacent","DC","4","3","R.jpg","O.jpg","1","0","0","",""
"","feedback","","html-keyboard-response","504","503033","0.0-1.0-699.0-0.0","0","0","79307","","null","","","null","77","","","","","","","","","","","","","","","",""
"","time_out","","html-keyboard-response","505","505035","0.0-1.0-701.0-0.0","0","0","79307","","null","","","null","77","","","","","","","","","","","","","","","",""
"","ITI","","html-keyboard-response","506","506037","0.0-1.0-702.0","0","0","79307","","null","","","null","77","","","","","","","","","","","","","","","NaN",""
"","S1","","html-keyboard-response","507","506288","0.0-1.0-704.0","0","0","79307","","null","","","null","78","","","","","","","","","","","","","","","",""
"","ISI","","html-keyboard-response","508","507289","0.0-1.0-705.0","0","0","79307","","null","","","null","78","NaN","","","","","","","","","","","","","","",""
"","S2","","html-keyboard-response","509","507541","0.0-1.0-706.0","0","0","79307","","null","","","null","78","","NaN","","","","","","","","","","","","","",""
"","response","","html-keyboard-response","510","507945","0.0-1.0-707.0-0.0","0","0","79307","","403","","","68","78","","","2","78","training","adjacent","FE","6","5","N.jpg","Q.jpg","0","0","1","",""
"","feedback","","html-keyboard-response","511","508946","0.0-1.0-708.0-0.0","0","0","79307","","null","","","null","78","","","","","","","","","","","","","","","",""
"","ITI","","html-keyboard-response","512","509948","0.0-1.0-711.0","0","0","79307","","null","","","null","78","","","","","","","","","","","","","","","NaN",""
"","S1","","html-keyboard-response","513","510199","0.0-1.0-713.0","0","0","79307","","null","","","null","79","","","","","","","","","","","","","","","",""
"","ISI","","html-keyboard-response","514","511201","0.0-1.0-714.0","0","0","79307","","null","","","null","79","NaN","","","","","","","","","","","","","","",""
"","S2","","html-keyboard-response","515","511453","0.0-1.0-715.0","0","0","79307","","null","","","null","79","","NaN","","","","","","","","","","","","","",""
"","response","","html-keyboard-response","516","511851","0.0-1.0-716.0-0.0","0","0","79307","","397","","","68","79","","","2","79","training","adjacent","CD","3","4","O.jpg","R.jpg","0","1","0","",""
"","feedback","","html-keyboard-response","517","512854","0.0-1.0-717.0-0.0","0","0","79307","","null","","","null","79","","","","","","","","","","","","","","","",""
"","time_out","","html-keyboard-response","518","514856","0.0-1.0-719.0-0.0","0","0","79307","","null","","","null","79","","","","","","","","","","","","","","","",""
"","ITI","","html-keyboard-response","519","515858","0.0-1.0-720.0","0","0","79307","","null","","","null","79","","","","","","","","","","","","","","","NaN",""
"","S1","","html-keyboard-response","520","516110","0.0-1.0-722.0","0","0","79307","","null","","","null","80","","","","","","","","","","","","","","","",""
"","ISI","","html-keyboard-response","521","517110","0.0-1.0-723.0","0","0","79307","","null","","","null","80","NaN","","","","","","","","","","","","","","",""
"","S2","","html-keyboard-response","522","517362","0.0-1.0-724.0","0","0","79307","","null","","","null","80","","NaN","","","","","","","","","","","","","",""
"","response","","html-keyboard-response","523","517668","0.0-1.0-725.0-0.0","0","0","79307","","305","","","75","80","","","2","80","training","adjacent","CD","3","4","O.jpg","R.jpg","1","1","1","",""
"","feedback","","html-keyboard-response","524","518671","0.0-1.0-726.0-0.0","0","0","79307","","null","","","null","80","","","","","","","","","","","","","","","",""
"","ITI","","html-keyboard-response","525","519672","0.0-1.0-729.0","0","0","79307","","null","","","null","80","","","","","","","","","","","","","","","NaN",""
"","S1","","html-keyboard-response","526","519923","0.0-1.0-731.0","0","0","79307","","null","","","null","81","","","","","","","","","","","","","","","",""
"","ISI","","html-keyboard-response","527","520924","0.0-1.0-732.0","0","0","79307","","null","","","null","81","NaN","","","","","","","","","","","","","","",""
"","S2","","html-keyboard-response","528","521176","0.0-1.0-733.0","0","0","79307","","null","","","null","81","","NaN","","","","","","","","","","","","","",""
"","response","","html-keyboard-response","529","521438","0.0-1.0-734.0-0.0","0","0","79307","","261","","","75","81","","","2","81","training","adjacent","BC","2","3","M.jpg","O.jpg","1","1","1","",""
"","feedback","","html-keyboard-response","530","522439","0.0-1.0-735.0-0.0","0","0","79307","","null","","","null","81","","","","","","","","","","","","","","","",""
"","ITI","","html-keyboard-response","531","523441","0.0-1.0-738.0","0","0","79307","","null","","","null","81","","","","","","","","","","","","","","","NaN",""
"","S1","","html-keyboard-response","532","523692","0.0-1.0-740.0","0","0","79307","","null","","","null","82","","","","","","","","","","","","","","","",""
"","ISI","","html-keyboard-response","533","524695","0.0-1.0-741.0","0","0","79307","","null","","","null","82","NaN","","","","","","","","","","","","","","",""
"","S2","","html-keyboard-response","534","524947","0.0-1.0-742.0","0","0","79307","","null","","","null","82","","NaN","","","","","","","","","","","","","",""
"","response","","html-keyboard-response","535","525257","0.0-1.0-743.0-0.0","0","0","79307","","310","","","68","82","","","2","82","training","adjacent","EF","5","6","Q.jpg","N.jpg","0","1","0","",""
"","feedback","","html-keyboard-response","536","526259","0.0-1.0-744.0-0.0","0","0","79307","","null","","","null","82","","","","","","","","","","","","","","","",""
"","time_out","","html-keyboard-response","537","528260","0.0-1.0-746.0-0.0","0","0","79307","","null","","","null","82","","","","","","","","","","","","","","","",""
"","ITI","","html-keyboard-response","538","529261","0.0-1.0-747.0","0","0","79307","","null","","","null","82","","","","","","","","","","","","","","","NaN",""
"","S1","","html-keyboard-response","539","529513","0.0-1.0-749.0","0","0","79307","","null","","","null","83","","","","","","","","","","","","","","","",""
"","ISI","","html-keyboard-response","540","530514","0.0-1.0-750.0","0","0","79307","","null","","","null","83","NaN","","","","","","","","","","","","","","",""
"","S2","","html-keyboard-response","541","530766","0.0-1.0-751.0","0","0","79307","","null","","","null","83","","NaN","","","","","","","","","","","","","",""
"","response","","html-keyboard-response","542","530884","0.0-1.0-752.0-0.0","0","0","79307","","117","","","75","83","","","2","83","training","adjacent","GF","7","6","L.jpg","N.jpg","1","0","0","",""
"","feedback","","html-keyboard-response","543","531886","0.0-1.0-753.0-0.0","0","0","79307","","null","","","null","83","","","","","","","","","","","","","","","",""
"","time_out","","html-keyboard-response","544","533887","0.0-1.0-755.0-0.0","0","0","79307","","null","","","null","83","","","","","","","","","","","","","","","",""
"","ITI","","html-keyboard-response","545","534888","0.0-1.0-756.0","0","0","79307","","null","","","null","83","","","","","","","","","","","","","","","NaN",""
"","S1","","html-keyboard-response","546","535139","0.0-1.0-758.0","0","0","79307","","null","","","null","84","","","","","","","","","","","","","","","",""
"","ISI","","html-keyboard-response","547","536140","0.0-1.0-759.0","0","0","79307","","null","","","null","84","NaN","","","","","","","","","","","","","","",""
"","S2","","html-keyboard-response","548","536391","0.0-1.0-760.0","0","0","79307","","null","","","null","84","","NaN","","","","","","","","","","","","","",""
"","response","","html-keyboard-response","549","536796","0.0-1.0-761.0-0.0","0","0","79307","","404","","","68","84","","","2","84","training","adjacent","FG","6","7","N.jpg","L.jpg","0","1","0","",""
"","feedback","","html-keyboard-response","550","537798","0.0-1.0-762.0-0.0","0","0","79307","","null","","","null","84","","","","","","","","","","","","","","","",""
"","time_out","","html-keyboard-response","551","539799","0.0-1.0-764.0-0.0","0","0","79307","","null","","","null","84","","","","","","","","","","","","","","","",""
"","ITI","","html-keyboard-response","552","540801","0.0-1.0-765.0","0","0","79307","","null","","","null","84","","","","","","","","","","","","","","","NaN",""
"","S1","","html-keyboard-response","553","541052","0.0-1.0-767.0","0","0","79307","","null","","","null","85","","","","","","","","","","","","","","","",""
"","ISI","","html-keyboard-response","554","542053","0.0-1.0-768.0","0","0","79307","","null","","","null","85","NaN","","","","","","","","","","","","","","",""
"","S2","","html-keyboard-response","555","542304","0.0-1.0-769.0","0","0","79307","","null","","","null","85","","NaN","","","","","","","","","","","","","",""
"","response","","html-keyboard-response","556","542632","0.0-1.0-770.0-0.0","0","0","79307","","327","","","75","85","","","2","85","training","adjacent","BA","2","1","M.jpg","P.jpg","1","0","0","",""
"","feedback","","html-keyboard-response","557","543634","0.0-1.0-771.0-0.0","0","0","79307","","null","","","null","85","","","","","","","","","","","","","","","",""
"","time_out","","html-keyboard-response","558","545636","0.0-1.0-773.0-0.0","0","0","79307","","null","","","null","85","","","","","","","","","","","","","","","",""
"","ITI","","html-keyboard-response","559","546638","0.0-1.0-774.0","0","0","79307","","null","","","null","85","","","","","","","","","","","","","","","NaN",""
"","S1","","html-keyboard-response","560","546889","0.0-1.0-776.0","0","0","79307","","null","","","null","86","","","","","","","","","","","","","","","",""
"","ISI","","html-keyboard-response","561","547891","0.0-1.0-777.0","0","0","79307","","null","","","null","86","NaN","","","","","","","","","","","","","","",""
"","S2","","html-keyboard-response","562","548143","0.0-1.0-778.0","0","0","79307","","null","","","null","86","","NaN","","","","","","","","","","","","","",""
"","response","","html-keyboard-response","563","548463","0.0-1.0-779.0-0.0","0","0","79307","","319","","","68","86","","","2","86","training","adjacent","FG","6","7","N.jpg","L.jpg","0","1","0","",""
"","feedback","","html-keyboard-response","564","549465","0.0-1.0-780.0-0.0","0","0","79307","","null","","","null","86","","","","","","","","","","","","","","","",""
"","time_out","","html-keyboard-response","565","551467","0.0-1.0-782.0-0.0","0","0","79307","","null","","","null","86","","","","","","","","","","","","","","","",""
"","ITI","","html-keyboard-response","566","552468","0.0-1.0-783.0","0","0","79307","","null","","","null","86","","","","","","","","","","","","","","","NaN",""
"","S1","","html-keyboard-response","567","552720","0.0-1.0-785.0","0","0","79307","","null","","","null","87","","","","","","","","","","","","","","","",""
"","ISI","","html-keyboard-response","568","553721","0.0-1.0-786.0","0","0","79307","","null","","","null","87","NaN","","","","","","","","","","","","","","",""
"","S2","","html-keyboard-response","569","553973","0.0-1.0-787.0","0","0","79307","","null","","","null","87","","NaN","","","","","","","","","","","","","",""
"","response","","html-keyboard-response","570","554722","0.0-1.0-788.0-0.0","0","0","79307","","749","","","75","87","","","2","87","training","adjacent","CB","3","2","O.jpg","M.jpg","1","0","0","",""
"","feedback","","html-keyboard-response","571","555737","0.0-1.0-789.0-0.0","0","0","79307","","null","","","null","87","","","","","","","","","","","","","","","",""
"","time_out","","html-keyboard-response","572","557739","0.0-1.0-791.0-0.0","0","0","79307","","null","","","null","87","","","","","","","","","","","","","","","",""
"","ITI","","html-keyboard-response","573","558740","0.0-1.0-792.0","0","0","79307","","null","","","null","87","","","","","","","","","","","","","","","NaN",""
"","S1","","html-keyboard-response","574","558991","0.0-1.0-794.0","0","0","79307","","null","","","null","88","","","","","","","","","","","","","","","",""
"","ISI","","html-keyboard-response","575","559993","0.0-1.0-795.0","0","0","79307","","null","","","null","88","NaN","","","","","","","","","","","","","","",""
"","S2","","html-keyboard-response","576","560244","0.0-1.0-796.0","0","0","79307","","null","","","null","88","","NaN","","","","","","","","","","","","","",""
"","response","","html-keyboard-response","577","560524","0.0-1.0-797.0-0.0","0","0","79307","","278","","","75","88","","","2","88","training","adjacent","BA","2","1","M.jpg","P.jpg","1","0","0","",""
"","feedback","","html-keyboard-response","578","561527","0.0-1.0-798.0-0.0","0","0","79307","","null","","","null","88","","","","","","","","","","","","","","","",""
"","time_out","","html-keyboard-response","579","563528","0.0-1.0-800.0-0.0","0","0","79307","","null","","","null","88","","","","","","","","","","","","","","","",""
"","ITI","","html-keyboard-response","580","564530","0.0-1.0-801.0","0","0","79307","","null","","","null","88","","","","","","","","","","","","","","","NaN",""
