"success","ttype","start_time","trial_type","trial_index","time_elapsed","internal_node_id","warning","missed_checkup","PID","view_history","rt","responses","repeat_instructions","key_press","index","keypress_isi","keypress_S2","block","trial_num","phase","group_type","pair_type","S1_stim","S2_stim","S1_img","S2_img","S1_chosen","S1_higher","accuracy","keypress_iti","total_bonus_tally"
"true","full_screen","d04062023hr1956","fullscreen","0","10955","0.0-0.0","0","0","14860","","","","","","","","","","","","","","","","","","","","","",""
"","instructions","","instructions","1","41882","0.0-1.0-0.0-0.0","0","0","14860","[{""page_index"":0,""viewing_time"":5787},{""page_index"":1,""viewing_time"":16747},{""page_index"":2,""viewing_time"":7253},{""page_index"":3,""viewing_time"":1133}]","30920","","","","","","","","","","","","","","","","","","","",""
"","comprehension_check","","survey-multi-choice","2","64315","0.0-1.0-0.0-1.0","0","0","14860","","22429","{""Q0"":""True"",""Q1"":""D"",""Q2"":""Only when the screen 'MAKE A CHOICE' is shown"",""Q3"":""Green mark"",""Q4"":""either D or K""}","1","","","","","","","","","","","","","","","","","",""
"","missed_instruction_checkup","","html-keyboard-response","3","66665","0.0-1.0-0.0-2.0-0.0","0","1","14860","","2345","","","32","","","","","","","","","","","","","","","","",""
"","instructions","","instructions","4","79701","0.0-1.0-0.1-0.1","0","0","14860","[{""page_index"":0,""viewing_time"":2000},{""page_index"":1,""viewing_time"":7321},{""page_index"":2,""viewing_time"":2520},{""page_index"":3,""viewing_time"":1192}]","13033","","","","","","","","","","","","","","","","","","","",""
"","comprehension_check","","survey-multi-choice","5","90382","0.0-1.0-0.1-1.1","0","0","14860","","10676","{""Q0"":""True"",""Q1"":""D"",""Q2"":""Once the second image appears and while the screen 'MAKE A CHOICE' is shown"",""Q3"":""Green mark"",""Q4"":""either D or K""}","0","","","","","","","","","","","","","","","","","",""
"","start_exp","","html-keyboard-response","6","91765","0.0-1.0-1.0","0","0","14860","","1380","","","32","","","","","","","","","","","","","","","","",""
"","S1","","html-keyboard-response","7","91929","0.0-1.0-2.0","0","0","14860","","null","","","null","0","","","","","","","","","","","","","","","",""
"","ISI","","html-keyboard-response","8","93943","0.0-1.0-3.0","0","0","14860","","null","","","null","0","NaN","","","","","","","","","","","","","","",""
"","S2","","html-keyboard-response","9","94103","0.0-1.0-4.0","0","0","14860","","null","","","null","0","","NaN","","","","","","","","","","","","","",""
"","response","","html-keyboard-response","10","95966","0.0-1.0-5.0-0.0","0","0","14860","","null","","","null","0","","","1","0","training","adjacent","GF","7","6","L.jpg","R.jpg","NaN","0","0","",""
"","too_slow_prompt","","html-keyboard-response","11","96975","0.0-1.0-7.0-0.0","1","0","14860","","null","","","null","","","","","","","","","","","","","","","","",""
"","time_out","","html-keyboard-response","12","98985","0.0-1.0-8.0-0.0","0","0","14860","","null","","","null","0","","","","","","","","","","","","","","","",""
"","ITI","","html-keyboard-response","13","99995","0.0-1.0-9.0","0","0","14860","","null","","","null","0","","","","","","","","","","","","","","","NaN",""
"","S1","","html-keyboard-response","14","100155","0.0-1.0-11.0","0","0","14860","","null","","","null","1","","","","","","","","","","","","","","","",""
"","ISI","","html-keyboard-response","15","102166","0.0-1.0-12.0","0","0","14860","","292","","","75","1","k","","","","","","","","","","","","","","",""
"","S2","","html-keyboard-response","16","102326","0.0-1.0-13.0","0","0","14860","","null","","","null","1","","NaN","","","","","","","","","","","","","",""
"","response","","html-keyboard-response","17","103010","0.0-1.0-14.0-0.0","0","0","14860","","681","","","75","1","","","1","1","training","adjacent","CB","3","2","Q.jpg","P.jpg","0","0","1","",""
"","feedback","","html-keyboard-response","18","104016","0.0-1.0-15.0-0.0","0","0","14860","","null","","","null","1","","","","","","","","","","","","","","","",""
"","ITI","","html-keyboard-response","19","105020","0.0-1.0-18.0","0","0","14860","","null","","","null","1","","","","","","","","","","","","","","","NaN",""
"","S1","","html-keyboard-response","20","105180","0.0-1.0-20.0","0","0","14860","","null","","","null","2","","","","","","","","","","","","","","","",""
"","ISI","","html-keyboard-response","21","107192","0.0-1.0-21.0","0","0","14860","","null","","","null","2","NaN","","","","","","","","","","","","","","",""
"","S2","","html-keyboard-response","22","107351","0.0-1.0-22.0","0","0","14860","","null","","","null","2","","NaN","","","","","","","","","","","","","",""
"","response","","html-keyboard-response","23","107608","0.0-1.0-23.0-0.0","0","0","14860","","254","","","68","2","","","1","2","training","adjacent","BA","2","1","P.jpg","O.jpg","1","0","0","",""
"","feedback","","html-keyboard-response","24","108612","0.0-1.0-24.0-0.0","0","0","14860","","null","","","null","2","","","","","","","","","","","","","","","",""
"","time_out","","html-keyboard-response","25","110618","0.0-1.0-26.0-0.0","0","0","14860","","null","","","null","2","","","","","","","","","","","","","","","",""
"","ITI","","html-keyboard-response","26","111625","0.0-1.0-27.0","0","0","14860","","null","","","null","2","","","","","","","","","","","","","","","NaN",""
"","S1","","html-keyboard-response","27","111785","0.0-1.0-29.0","0","0","14860","","null","","","null","3","","","","","","","","","","","","","","","",""
"","ISI","","html-keyboard-response","28","113796","0.0-1.0-30.0","0","0","14860","","null","","","null","3","NaN","","","","","","","","","","","","","","",""
"","S2","","html-keyboard-response","29","113957","0.0-1.0-31.0","0","0","14860","","null","","","null","3","","NaN","","","","","","","","","","","","","",""
"","response","","html-keyboard-response","30","114212","0.0-1.0-32.0-0.0","0","0","14860","","251","","","75","3","","","1","3","training","adjacent","FE","6","5","R.jpg","N.jpg","0","0","1","",""
"","feedback","","html-keyboard-response","31","115220","0.0-1.0-33.0-0.0","0","0","14860","","null","","","null","3","","","","","","","","","","","","","","","",""
"","ITI","","html-keyboard-response","32","116226","0.0-1.0-36.0","0","0","14860","","null","","","null","3","","","","","","","","","","","","","","","NaN",""
"","S1","","html-keyboard-response","33","116387","0.0-1.0-38.0","0","0","14860","","null","","","null","4","","","","","","","","","","","","","","","",""
"","ISI","","html-keyboard-response","34","118402","0.0-1.0-39.0","0","0","14860","","null","","","null","4","NaN","","","","","","","","","","","","","","",""
"","S2","","html-keyboard-response","35","118563","0.0-1.0-40.0","0","0","14860","","null","","","null","4","","NaN","","","","","","","","","","","","","",""
"","response","","html-keyboard-response","36","118773","0.0-1.0-41.0-0.0","0","0","14860","","208","","","75","4","","","1","4","training","adjacent","FE","6","5","R.jpg","N.jpg","0","0","1","",""
"","feedback","","html-keyboard-response","37","119790","0.0-1.0-42.0-0.0","0","0","14860","","null","","","null","4","","","","","","","","","","","","","","","",""
"","ITI","","html-keyboard-response","38","120795","0.0-1.0-45.0","0","0","14860","","null","","","null","4","","","","","","","","","","","","","","","NaN",""
"","S1","","html-keyboard-response","39","120955","0.0-1.0-47.0","0","0","14860","","null","","","null","5","","","","","","","","","","","","","","","",""
"","ISI","","html-keyboard-response","40","122964","0.0-1.0-48.0","0","0","14860","","null","","","null","5","NaN","","","","","","","","","","","","","","",""
"","S2","","html-keyboard-response","41","123125","0.0-1.0-49.0","0","0","14860","","null","","","null","5","","NaN","","","","","","","","","","","","","",""
"","response","","html-keyboard-response","42","123539","0.0-1.0-50.0-0.0","0","0","14860","","412","","","75","5","","","1","5","training","adjacent","FE","6","5","R.jpg","N.jpg","0","0","1","",""
"","feedback","","html-keyboard-response","43","124544","0.0-1.0-51.0-0.0","0","0","14860","","null","","","null","5","","","","","","","","","","","","","","","",""
"","ITI","","html-keyboard-response","44","125552","0.0-1.0-54.0","0","0","14860","","null","","","null","5","","","","","","","","","","","","","","","NaN",""
"","S1","","html-keyboard-response","45","125713","0.0-1.0-56.0","0","0","14860","","null","","","null","6","","","","","","","","","","","","","","","",""
"","ISI","","html-keyboard-response","46","127728","0.0-1.0-57.0","0","0","14860","","null","","","null","6","NaN","","","","","","","","","","","","","","",""
"","S2","","html-keyboard-response","47","127888","0.0-1.0-58.0","0","0","14860","","null","","","null","6","","NaN","","","","","","","","","","","","","",""
"","response","","html-keyboard-response","48","128079","0.0-1.0-59.0-0.0","0","0","14860","","188","","","75","6","","","1","6","training","adjacent","EF","5","6","N.jpg","R.jpg","0","1","0","",""
"","feedback","","html-keyboard-response","49","129086","0.0-1.0-60.0-0.0","0","0","14860","","null","","","null","6","","","","","","","","","","","","","","","",""
"","time_out","","html-keyboard-response","50","131097","0.0-1.0-62.0-0.0","0","0","14860","","null","","","null","6","","","","","","","","","","","","","","","",""
"","ITI","","html-keyboard-response","51","132104","0.0-1.0-63.0","0","0","14860","","null","","","null","6","","","","","","","","","","","","","","","NaN",""
"","S1","","html-keyboard-response","52","132264","0.0-1.0-65.0","0","0","14860","","null","","","null","7","","","","","","","","","","","","","","","",""
"","ISI","","html-keyboard-response","53","134277","0.0-1.0-66.0","0","0","14860","","null","","","null","7","NaN","","","","","","","","","","","","","","",""
"","S2","","html-keyboard-response","54","134436","0.0-1.0-67.0","0","0","14860","","null","","","null","7","","NaN","","","","","","","","","","","","","",""
"","response","","html-keyboard-response","55","134717","0.0-1.0-68.0-0.0","0","0","14860","","279","","","68","7","","","1","7","training","adjacent","BC","2","3","P.jpg","Q.jpg","1","1","1","",""
"","feedback","","html-keyboard-response","56","135730","0.0-1.0-69.0-0.0","0","0","14860","","null","","","null","7","","","","","","","","","","","","","","","",""
"","ITI","","html-keyboard-response","57","136737","0.0-1.0-72.0","0","0","14860","","null","","","null","7","","","","","","","","","","","","","","","NaN",""
"","S1","","html-keyboard-response","58","136898","0.0-1.0-74.0","0","0","14860","","null","","","null","8","","","","","","","","","","","","","","","",""
"","ISI","","html-keyboard-response","59","138908","0.0-1.0-75.0","0","0","14860","","null","","","null","8","NaN","","","","","","","","","","","","","","",""
"","S2","","html-keyboard-response","60","139068","0.0-1.0-76.0","0","0","14860","","null","","","null","8","","NaN","","","","","","","","","","","","","",""
"","response","","html-keyboard-response","61","139895","0.0-1.0-77.0-0.0","0","0","14860","","823","","","75","8","","","1","8","training","adjacent","BA","2","1","P.jpg","O.jpg","0","0","1","",""
"","feedback","","html-keyboard-response","62","140903","0.0-1.0-78.0-0.0","0","0","14860","","null","","","null","8","","","","","","","","","","","","","","","",""
"","ITI","","html-keyboard-response","63","141909","0.0-1.0-81.0","0","0","14860","","null","","","null","8","","","","","","","","","","","","","","","NaN",""
"","S1","","html-keyboard-response","64","142071","0.0-1.0-83.0","0","0","14860","","null","","","null","9","","","","","","","","","","","","","","","",""
"","ISI","","html-keyboard-response","65","144079","0.0-1.0-84.0","0","0","14860","","null","","","null","9","NaN","","","","","","","","","","","","","","",""
"","S2","","html-keyboard-response","66","144240","0.0-1.0-85.0","0","0","14860","","null","","","null","9","","NaN","","","","","","","","","","","","","",""
"","response","","html-keyboard-response","67","144698","0.0-1.0-86.0-0.0","0","0","14860","","456","","","68","9","","","1","9","training","adjacent","BC","2","3","P.jpg","Q.jpg","1","1","1","",""
"","feedback","","html-keyboard-response","68","145710","0.0-1.0-87.0-0.0","0","0","14860","","null","","","null","9","","","","","","","","","","","","","","","",""
"","ITI","","html-keyboard-response","69","146715","0.0-1.0-90.0","0","0","14860","","null","","","null","9","","","","","","","","","","","","","","","NaN",""
"","S1","","html-keyboard-response","70","146874","0.0-1.0-92.0","0","0","14860","","null","","","null","10","","","","","","","","","","","","","","","",""
"","ISI","","html-keyboard-response","71","148882","0.0-1.0-93.0","0","0","14860","","null","","","null","10","NaN","","","","","","","","","","","","","","",""
"","S2","","html-keyboard-response","72","149043","0.0-1.0-94.0","0","0","14860","","null","","","null","10","","NaN","","","","","","","","","","","","","",""
"","response","","html-keyboard-response","73","149412","0.0-1.0-95.0-0.0","0","0","14860","","367","","","75","10","","","1","10","training","adjacent","CB","3","2","Q.jpg","P.jpg","0","0","1","",""
"","feedback","","html-keyboard-response","74","150432","0.0-1.0-96.0-0.0","0","0","14860","","null","","","null","10","","","","","","","","","","","","","","","",""
"","ITI","","html-keyboard-response","75","151451","0.0-1.0-99.0","0","0","14860","","null","","","null","10","","","","","","","","","","","","","","","NaN",""
"","S1","","html-keyboard-response","76","151610","0.0-1.0-101.0","0","0","14860","","null","","","null","11","","","","","","","","","","","","","","","",""
"","ISI","","html-keyboard-response","77","153623","0.0-1.0-102.0","0","0","14860","","null","","","null","11","NaN","","","","","","","","","","","","","","",""
"","S2","","html-keyboard-response","78","153783","0.0-1.0-103.0","0","0","14860","","null","","","null","11","","NaN","","","","","","","","","","","","","",""
"","response","","html-keyboard-response","79","154234","0.0-1.0-104.0-0.0","0","0","14860","","450","","","68","11","","","1","11","training","adjacent","FG","6","7","R.jpg","L.jpg","1","1","1","",""
"","feedback","","html-keyboard-response","80","155247","0.0-1.0-105.0-0.0","0","0","14860","","null","","","null","11","","","","","","","","","","","","","","","",""
"","ITI","","html-keyboard-response","81","156255","0.0-1.0-108.0","0","0","14860","","null","","","null","11","","","","","","","","","","","","","","","NaN",""
"","S1","","html-keyboard-response","82","156415","0.0-1.0-110.0","0","0","14860","","null","","","null","12","","","","","","","","","","","","","","","",""
"","ISI","","html-keyboard-response","83","158424","0.0-1.0-111.0","0","0","14860","","null","","","null","12","NaN","","","","","","","","","","","","","","",""
"","S2","","html-keyboard-response","84","158585","0.0-1.0-112.0","0","0","14860","","null","","","null","12","","NaN","","","","","","","","","","","","","",""
"","response","","html-keyboard-response","85","159234","0.0-1.0-113.0-0.0","0","0","14860","","647","","","75","12","","","1","12","training","adjacent","EF","5","6","N.jpg","R.jpg","0","1","0","",""
"","feedback","","html-keyboard-response","86","160239","0.0-1.0-114.0-0.0","0","0","14860","","null","","","null","12","","","","","","","","","","","","","","","",""
"","time_out","","html-keyboard-response","87","162254","0.0-1.0-116.0-0.0","0","0","14860","","null","","","null","12","","","","","","","","","","","","","","","",""
"","ITI","","html-keyboard-response","88","163262","0.0-1.0-117.0","0","0","14860","","null","","","null","12","","","","","","","","","","","","","","","NaN",""
"","S1","","html-keyboard-response","89","163422","0.0-1.0-119.0","0","0","14860","","null","","","null","13","","","","","","","","","","","","","","","",""
"","ISI","","html-keyboard-response","90","165435","0.0-1.0-120.0","0","0","14860","","null","","","null","13","NaN","","","","","","","","","","","","","","",""
"","S2","","html-keyboard-response","91","165595","0.0-1.0-121.0","0","0","14860","","null","","","null","13","","NaN","","","","","","","","","","","","","",""
"","response","","html-keyboard-response","92","166108","0.0-1.0-122.0-0.0","0","0","14860","","511","","","68","13","","","1","13","training","adjacent","DC","4","3","M.jpg","Q.jpg","1","0","0","",""
"","feedback","","html-keyboard-response","93","167116","0.0-1.0-123.0-0.0","0","0","14860","","null","","","null","13","","","","","","","","","","","","","","","",""
"","time_out","","html-keyboard-response","94","169131","0.0-1.0-125.0-0.0","0","0","14860","","null","","","null","13","","","","","","","","","","","","","","","",""
"","ITI","","html-keyboard-response","95","170136","0.0-1.0-126.0","0","0","14860","","null","","","null","13","","","","","","","","","","","","","","","NaN",""
"","S1","","html-keyboard-response","96","170296","0.0-1.0-128.0","0","0","14860","","null","","","null","14","","","","","","","","","","","","","","","",""
"","ISI","","html-keyboard-response","97","172309","0.0-1.0-129.0","0","0","14860","","null","","","null","14","NaN","","","","","","","","","","","","","","",""
"","S2","","html-keyboard-response","98","172468","0.0-1.0-130.0","0","0","14860","","null","","","null","14","","NaN","","","","","","","","","","","","","",""
"","response","","html-keyboard-response","99","172652","0.0-1.0-131.0-0.0","0","0","14860","","180","","","75","14","","","1","14","training","adjacent","GF","7","6","L.jpg","R.jpg","0","0","1","",""
"","feedback","","html-keyboard-response","100","173661","0.0-1.0-132.0-0.0","0","0","14860","","null","","","null","14","","","","","","","","","","","","","","","",""
"","ITI","","html-keyboard-response","101","174665","0.0-1.0-135.0","0","0","14860","","null","","","null","14","","","","","","","","","","","","","","","NaN",""
"","S1","","html-keyboard-response","102","174823","0.0-1.0-137.0","0","0","14860","","null","","","null","15","","","","","","","","","","","","","","","",""
"","ISI","","html-keyboard-response","103","176835","0.0-1.0-138.0","0","0","14860","","null","","","null","15","NaN","","","","","","","","","","","","","","",""
"","S2","","html-keyboard-response","104","176993","0.0-1.0-139.0","0","0","14860","","null","","","null","15","","NaN","","","","","","","","","","","","","",""
"","response","","html-keyboard-response","105","177183","0.0-1.0-140.0-0.0","0","0","14860","","185","","","75","15","","","1","15","training","adjacent","DC","4","3","M.jpg","Q.jpg","0","0","1","",""
"","feedback","","html-keyboard-response","106","178189","0.0-1.0-141.0-0.0","0","0","14860","","null","","","null","15","","","","","","","","","","","","","","","",""
"","ITI","","html-keyboard-response","107","179196","0.0-1.0-144.0","0","0","14860","","null","","","null","15","","","","","","","","","","","","","","","NaN",""
"","S1","","html-keyboard-response","108","179355","0.0-1.0-146.0","0","0","14860","","null","","","null","16","","","","","","","","","","","","","","","",""
"","ISI","","html-keyboard-response","109","181365","0.0-1.0-147.0","0","0","14860","","267","","","75","16","k","","","","","","","","","","","","","","",""
"","S2","","html-keyboard-response","110","181523","0.0-1.0-148.0","0","0","14860","","null","","","null","16","","NaN","","","","","","","","","","","","","",""
"","response","","html-keyboard-response","111","181861","0.0-1.0-149.0-0.0","0","0","14860","","336","","","68","16","","","1","16","training","adjacent","CD","3","4","Q.jpg","M.jpg","1","1","1","",""
"","feedback","","html-keyboard-response","112","182876","0.0-1.0-150.0-0.0","0","0","14860","","null","","","null","16","","","","","","","","","","","","","","","",""
"","ITI","","html-keyboard-response","113","183883","0.0-1.0-153.0","0","0","14860","","null","","","null","16","","","","","","","","","","","","","","","NaN",""
"","S1","","html-keyboard-response","114","184045","0.0-1.0-155.0","0","0","14860","","null","","","null","17","","","","","","","","","","","","","","","",""
"","ISI","","html-keyboard-response","115","186060","0.0-1.0-156.0","0","0","14860","","null","","","null","17","NaN","","","","","","","","","","","","","","",""
"","S2","","html-keyboard-response","116","186220","0.0-1.0-157.0","0","0","14860","","null","","","null","17","","NaN","","","","","","","","","","","","","",""
"","response","","html-keyboard-response","117","186718","0.0-1.0-158.0-0.0","0","0","14860","","497","","","68","17","","","1","17","training","adjacent","EF","5","6","N.jpg","R.jpg","1","1","1","",""
"","feedback","","html-keyboard-response","118","187736","0.0-1.0-159.0-0.0","0","0","14860","","null","","","null","17","","","","","","","","","","","","","","","",""
"","ITI","","html-keyboard-response","119","188744","0.0-1.0-162.0","0","0","14860","","null","","","null","17","","","","","","","","","","","","","","","NaN",""
"","S1","","html-keyboard-response","120","188903","0.0-1.0-164.0","0","0","14860","","null","","","null","18","","","","","","","","","","","","","","","",""
"","ISI","","html-keyboard-response","121","190915","0.0-1.0-165.0","0","0","14860","","null","","","null","18","NaN","","","","","","","","","","","","","","",""
"","S2","","html-keyboard-response","122","191074","0.0-1.0-166.0","0","0","14860","","null","","","null","18","","NaN","","","","","","","","","","","","","",""
"","response","","html-keyboard-response","123","191469","0.0-1.0-167.0-0.0","0","0","14860","","393","","","68","18","","","1","18","training","adjacent","EF","5","6","N.jpg","R.jpg","1","1","1","",""
"","feedback","","html-keyboard-response","124","192479","0.0-1.0-168.0-0.0","0","0","14860","","null","","","null","18","","","","","","","","","","","","","","","",""
"","ITI","","html-keyboard-response","125","193485","0.0-1.0-171.0","0","0","14860","","null","","","null","18","","","","","","","","","","","","","","","NaN",""
"","S1","","html-keyboard-response","126","193646","0.0-1.0-173.0","0","0","14860","","null","","","null","19","","","","","","","","","","","","","","","",""
"","ISI","","html-keyboard-response","127","195659","0.0-1.0-174.0","0","0","14860","","null","","","null","19","NaN","","","","","","","","","","","","","","",""
"","S2","","html-keyboard-response","128","195818","0.0-1.0-175.0","0","0","14860","","null","","","null","19","","NaN","","","","","","","","","","","","","",""
"","response","","html-keyboard-response","129","196154","0.0-1.0-176.0-0.0","0","0","14860","","332","","","75","19","","","1","19","training","adjacent","DE","4","5","M.jpg","N.jpg","0","1","0","",""
"","feedback","","html-keyboard-response","130","197161","0.0-1.0-177.0-0.0","0","0","14860","","null","","","null","19","","","","","","","","","","","","","","","",""
"","time_out","","html-keyboard-response","131","199174","0.0-1.0-179.0-0.0","0","0","14860","","null","","","null","19","","","","","","","","","","","","","","","",""
"","ITI","","html-keyboard-response","132","200178","0.0-1.0-180.0","0","0","14860","","null","","","null","19","","","","","","","","","","","","","","","NaN",""
"","S1","","html-keyboard-response","133","200336","0.0-1.0-182.0","0","0","14860","","null","","","null","20","","","","","","","","","","","","","","","",""
"","ISI","","html-keyboard-response","134","202343","0.0-1.0-183.0","0","0","14860","","null","","","null","20","NaN","","","","","","","","","","","","","","",""
"","S2","","html-keyboard-response","135","202502","0.0-1.0-184.0","0","0","14860","","null","","","null","20","","NaN","","","","","","","","","","","","","",""
"","response","","html-keyboard-response","136","202908","0.0-1.0-185.0-0.0","0","0","14860","","404","","","68","20","","","1","20","training","adjacent","CD","3","4","Q.jpg","M.jpg","1","1","1","",""
"","feedback","","html-keyboard-response","137","203915","0.0-1.0-186.0-0.0","0","0","14860","","null","","","null","20","","","","","","","","","","","","","","","",""
"","ITI","","html-keyboard-response","138","204920","0.0-1.0-189.0","0","0","14860","","null","","","null","20","","","","","","","","","","","","","","","NaN",""
"","S1","","html-keyboard-response","139","205080","0.0-1.0-191.0","0","0","14860","","null","","","null","21","","","","","","","","","","","","","","","",""
"","ISI","","html-keyboard-response","140","207096","0.0-1.0-192.0","0","0","14860","","null","","","null","21","NaN","","","","","","","","","","","","","","",""
"","S2","","html-keyboard-response","141","207255","0.0-1.0-193.0","0","0","14860","","null","","","null","21","","NaN","","","","","","","","","","","","","",""
"","response","","html-keyboard-response","142","207741","0.0-1.0-194.0-0.0","0","0","14860","","481","","","75","21","","","1","21","training","adjacent","AB","1","2","O.jpg","P.jpg","0","1","0","",""
"","feedback","","html-keyboard-response","143","208753","0.0-1.0-195.0-0.0","0","0","14860","","null","","","null","21","","","","","","","","","","","","","","","",""
"","time_out","","html-keyboard-response","144","210761","0.0-1.0-197.0-0.0","0","0","14860","","null","","","null","21","","","","","","","","","","","","","","","",""
"","ITI","","html-keyboard-response","145","211767","0.0-1.0-198.0","0","0","14860","","null","","","null","21","","","","","","","","","","","","","","","NaN",""
"","S1","","html-keyboard-response","146","211926","0.0-1.0-200.0","0","0","14860","","null","","","null","22","","","","","","","","","","","","","","","",""
"","ISI","","html-keyboard-response","147","213940","0.0-1.0-201.0","0","0","14860","","null","","","null","22","NaN","","","","","","","","","","","","","","",""
"","S2","","html-keyboard-response","148","214099","0.0-1.0-202.0","0","0","14860","","null","","","null","22","","NaN","","","","","","","","","","","","","",""
"","response","","html-keyboard-response","149","214603","0.0-1.0-203.0-0.0","0","0","14860","","502","","","75","22","","","1","22","training","adjacent","GF","7","6","L.jpg","R.jpg","0","0","1","",""
"","feedback","","html-keyboard-response","150","215614","0.0-1.0-204.0-0.0","0","0","14860","","null","","","null","22","","","","","","","","","","","","","","","",""
"","ITI","","html-keyboard-response","151","216619","0.0-1.0-207.0","0","0","14860","","null","","","null","22","","","","","","","","","","","","","","","NaN",""
"","S1","","html-keyboard-response","152","216777","0.0-1.0-209.0","0","0","14860","","null","","","null","23","","","","","","","","","","","","","","","",""
"","ISI","","html-keyboard-response","153","218783","0.0-1.0-210.0","0","0","14860","","null","","","null","23","NaN","","","","","","","","","","","","","","",""
"","S2","","html-keyboard-response","154","218944","0.0-1.0-211.0","0","0","14860","","null","","","null","23","","NaN","","","","","","","","","","","","","",""
"","response","","html-keyboard-response","155","219313","0.0-1.0-212.0-0.0","0","0","14860","","365","","","68","23","","","1","23","training","adjacent","ED","5","4","N.jpg","M.jpg","1","0","0","",""
"","feedback","","html-keyboard-response","156","220318","0.0-1.0-213.0-0.0","0","0","14860","","null","","","null","23","","","","","","","","","","","","","","","",""
"","time_out","","html-keyboard-response","157","222328","0.0-1.0-215.0-0.0","0","0","14860","","null","","","null","23","","","","","","","","","","","","","","","",""
"","ITI","","html-keyboard-response","158","223336","0.0-1.0-216.0","0","0","14860","","null","","","null","23","","","","","","","","","","","","","","","NaN",""
"","S1","","html-keyboard-response","159","223495","0.0-1.0-218.0","0","0","14860","","null","","","null","24","","","","","","","","","","","","","","","",""
"","ISI","","html-keyboard-response","160","225510","0.0-1.0-219.0","0","0","14860","","null","","","null","24","NaN","","","","","","","","","","","","","","",""
"","S2","","html-keyboard-response","161","225669","0.0-1.0-220.0","0","0","14860","","null","","","null","24","","NaN","","","","","","","","","","","","","",""
"","response","","html-keyboard-response","162","225941","0.0-1.0-221.0-0.0","0","0","14860","","269","","","68","24","","","1","24","training","adjacent","BA","2","1","P.jpg","O.jpg","1","0","0","",""
"","feedback","","html-keyboard-response","163","226948","0.0-1.0-222.0-0.0","0","0","14860","","null","","","null","24","","","","","","","","","","","","","","","",""
"","time_out","","html-keyboard-response","164","228962","0.0-1.0-224.0-0.0","0","0","14860","","null","","","null","24","","","","","","","","","","","","","","","",""
"","ITI","","html-keyboard-response","165","229970","0.0-1.0-225.0","0","0","14860","","null","","","null","24","","","","","","","","","","","","","","","NaN",""
"","S1","","html-keyboard-response","166","230129","0.0-1.0-227.0","0","0","14860","","null","","","null","25","","","","","","","","","","","","","","","",""
"","ISI","","html-keyboard-response","167","232136","0.0-1.0-228.0","0","0","14860","","null","","","null","25","NaN","","","","","","","","","","","","","","",""
"","S2","","html-keyboard-response","168","232293","0.0-1.0-229.0","0","0","14860","","null","","","null","25","","NaN","","","","","","","","","","","","","",""
"","response","","html-keyboard-response","169","232639","0.0-1.0-230.0-0.0","0","0","14860","","343","","","68","25","","","1","25","training","adjacent","BA","2","1","P.jpg","O.jpg","1","0","0","",""
"","feedback","","html-keyboard-response","170","233649","0.0-1.0-231.0-0.0","0","0","14860","","null","","","null","25","","","","","","","","","","","","","","","",""
"","time_out","","html-keyboard-response","171","235663","0.0-1.0-233.0-0.0","0","0","14860","","null","","","null","25","","","","","","","","","","","","","","","",""
"","ITI","","html-keyboard-response","172","236671","0.0-1.0-234.0","0","0","14860","","null","","","null","25","","","","","","","","","","","","","","","NaN",""
"","S1","","html-keyboard-response","173","236831","0.0-1.0-236.0","0","0","14860","","null","","","null","26","","","","","","","","","","","","","","","",""
"","ISI","","html-keyboard-response","174","238841","0.0-1.0-237.0","0","0","14860","","null","","","null","26","NaN","","","","","","","","","","","","","","",""
"","S2","","html-keyboard-response","175","239002","0.0-1.0-238.0","0","0","14860","","null","","","null","26","","NaN","","","","","","","","","","","","","",""
"","response","","html-keyboard-response","176","239450","0.0-1.0-239.0-0.0","0","0","14860","","447","","","68","26","","","1","26","training","adjacent","ED","5","4","N.jpg","M.jpg","1","0","0","",""
"","feedback","","html-keyboard-response","177","240453","0.0-1.0-240.0-0.0","0","0","14860","","null","","","null","26","","","","","","","","","","","","","","","",""
"","time_out","","html-keyboard-response","178","242463","0.0-1.0-242.0-0.0","0","0","14860","","null","","","null","26","","","","","","","","","","","","","","","",""
"","ITI","","html-keyboard-response","179","243483","0.0-1.0-243.0","0","0","14860","","null","","","null","26","","","","","","","","","","","","","","","NaN",""
"","S1","","html-keyboard-response","180","243641","0.0-1.0-245.0","0","0","14860","","null","","","null","27","","","","","","","","","","","","","","","",""
"","ISI","","html-keyboard-response","181","245653","0.0-1.0-246.0","0","0","14860","","null","","","null","27","NaN","","","","","","","","","","","","","","",""
"","S2","","html-keyboard-response","182","245813","0.0-1.0-247.0","0","0","14860","","null","","","null","27","","NaN","","","","","","","","","","","","","",""
"","response","","html-keyboard-response","183","246342","0.0-1.0-248.0-0.0","0","0","14860","","527","","","68","27","","","1","27","training","adjacent","ED","5","4","N.jpg","M.jpg","1","0","0","",""
"","feedback","","html-keyboard-response","184","247348","0.0-1.0-249.0-0.0","0","0","14860","","null","","","null","27","","","","","","","","","","","","","","","",""
"","time_out","","html-keyboard-response","185","249357","0.0-1.0-251.0-0.0","0","0","14860","","null","","","null","27","","","","","","","","","","","","","","","",""
"","ITI","","html-keyboard-response","186","250363","0.0-1.0-252.0","0","0","14860","","null","","","null","27","","","","","","","","","","","","","","","NaN",""
"","S1","","html-keyboard-response","187","250523","0.0-1.0-254.0","0","0","14860","","null","","","null","28","","","","","","","","","","","","","","","",""
"","ISI","","html-keyboard-response","188","252537","0.0-1.0-255.0","0","0","14860","","null","","","null","28","NaN","","","","","","","","","","","","","","",""
"","S2","","html-keyboard-response","189","252697","0.0-1.0-256.0","0","0","14860","","null","","","null","28","","NaN","","","","","","","","","","","","","",""
"","response","","html-keyboard-response","190","253206","0.0-1.0-257.0-0.0","0","0","14860","","506","","","68","28","","","1","28","training","adjacent","GF","7","6","L.jpg","R.jpg","1","0","0","",""
"","feedback","","html-keyboard-response","191","254213","0.0-1.0-258.0-0.0","0","0","14860","","null","","","null","28","","","","","","","","","","","","","","","",""
"","time_out","","html-keyboard-response","192","256225","0.0-1.0-260.0-0.0","0","0","14860","","null","","","null","28","","","","","","","","","","","","","","","",""
"","ITI","","html-keyboard-response","193","257231","0.0-1.0-261.0","0","0","14860","","null","","","null","28","","","","","","","","","","","","","","","NaN",""
"","S1","","html-keyboard-response","194","257391","0.0-1.0-263.0","0","0","14860","","null","","","null","29","","","","","","","","","","","","","","","",""
"","ISI","","html-keyboard-response","195","259400","0.0-1.0-264.0","0","0","14860","","null","","","null","29","NaN","","","","","","","","","","","","","","",""
"","S2","","html-keyboard-response","196","259559","0.0-1.0-265.0","0","0","14860","","null","","","null","29","","NaN","","","","","","","","","","","","","",""
"","response","","html-keyboard-response","197","260336","0.0-1.0-266.0-0.0","0","0","14860","","775","","","68","29","","","1","29","training","adjacent","CB","3","2","Q.jpg","P.jpg","1","0","0","",""
"","feedback","","html-keyboard-response","198","261347","0.0-1.0-267.0-0.0","0","0","14860","","null","","","null","29","","","","","","","","","","","","","","","",""
"","time_out","","html-keyboard-response","199","263357","0.0-1.0-269.0-0.0","0","0","14860","","null","","","null","29","","","","","","","","","","","","","","","",""
"","ITI","","html-keyboard-response","200","264364","0.0-1.0-270.0","0","0","14860","","null","","","null","29","","","","","","","","","","","","","","","NaN",""
"","S1","","html-keyboard-response","201","264524","0.0-1.0-272.0","0","0","14860","","null","","","null","30","","","","","","","","","","","","","","","",""
"","ISI","","html-keyboard-response","202","266535","0.0-1.0-273.0","0","0","14860","","null","","","null","30","NaN","","","","","","","","","","","","","","",""
"","S2","","html-keyboard-response","203","266695","0.0-1.0-274.0","0","0","14860","","null","","","null","30","","NaN","","","","","","","","","","","","","",""
"","response","","html-keyboard-response","204","267292","0.0-1.0-275.0-0.0","0","0","14860","","594","","","75","30","","","1","30","training","adjacent","AB","1","2","O.jpg","P.jpg","0","1","0","",""
"","feedback","","html-keyboard-response","205","268310","0.0-1.0-276.0-0.0","0","0","14860","","null","","","null","30","","","","","","","","","","","","","","","",""
"","time_out","","html-keyboard-response","206","270323","0.0-1.0-278.0-0.0","0","0","14860","","null","","","null","30","","","","","","","","","","","","","","","",""
"","ITI","","html-keyboard-response","207","271328","0.0-1.0-279.0","0","0","14860","","null","","","null","30","","","","","","","","","","","","","","","NaN",""
"","S1","","html-keyboard-response","208","271488","0.0-1.0-281.0","0","0","14860","","null","","","null","31","","","","","","","","","","","","","","","",""
"","ISI","","html-keyboard-response","209","273501","0.0-1.0-282.0","0","0","14860","","null","","","null","31","NaN","","","","","","","","","","","","","","",""
"","S2","","html-keyboard-response","210","273660","0.0-1.0-283.0","0","0","14860","","null","","","null","31","","NaN","","","","","","","","","","","","","",""
"","response","","html-keyboard-response","211","273887","0.0-1.0-284.0-0.0","0","0","14860","","224","","","68","31","","","1","31","training","adjacent","BC","2","3","P.jpg","Q.jpg","1","1","1","",""
"","feedback","","html-keyboard-response","212","274894","0.0-1.0-285.0-0.0","0","0","14860","","null","","","null","31","","","","","","","","","","","","","","","",""
"","ITI","","html-keyboard-response","213","275900","0.0-1.0-288.0","0","0","14860","","null","","","null","31","","","","","","","","","","","","","","","NaN",""
"","S1","","html-keyboard-response","214","276060","0.0-1.0-290.0","0","0","14860","","null","","","null","32","","","","","","","","","","","","","","","",""
"","ISI","","html-keyboard-response","215","278072","0.0-1.0-291.0","0","0","14860","","null","","","null","32","NaN","","","","","","","","","","","","","","",""
"","S2","","html-keyboard-response","216","278230","0.0-1.0-292.0","0","0","14860","","null","","","null","32","","NaN","","","","","","","","","","","","","",""
"","response","","html-keyboard-response","217","278864","0.0-1.0-293.0-0.0","0","0","14860","","631","","","75","32","","","1","32","training","adjacent","CD","3","4","Q.jpg","M.jpg","0","1","0","",""
"","feedback","","html-keyboard-response","218","279873","0.0-1.0-294.0-0.0","0","0","14860","","null","","","null","32","","","","","","","","","","","","","","","",""
"","time_out","","html-keyboard-response","219","281887","0.0-1.0-296.0-0.0","0","0","14860","","null","","","null","32","","","","","","","","","","","","","","","",""
"","ITI","","html-keyboard-response","220","282894","0.0-1.0-297.0","0","0","14860","","null","","","null","32","","","","","","","","","","","","","","","NaN",""
"","S1","","html-keyboard-response","221","283054","0.0-1.0-299.0","0","0","14860","","null","","","null","33","","","","","","","","","","","","","","","",""
"","ISI","","html-keyboard-response","222","285063","0.0-1.0-300.0","0","0","14860","","null","","","null","33","NaN","","","","","","","","","","","","","","",""
"","S2","","html-keyboard-response","223","285224","0.0-1.0-301.0","0","0","14860","","null","","","null","33","","NaN","","","","","","","","","","","","","",""
"","response","","html-keyboard-response","224","285476","0.0-1.0-302.0-0.0","0","0","14860","","251","","","68","33","","","1","33","training","adjacent","DC","4","3","M.jpg","Q.jpg","1","0","0","",""
"","feedback","","html-keyboard-response","225","286486","0.0-1.0-303.0-0.0","0","0","14860","","null","","","null","33","","","","","","","","","","","","","","","",""
"","time_out","","html-keyboard-response","226","288502","0.0-1.0-305.0-0.0","0","0","14860","","null","","","null","33","","","","","","","","","","","","","","","",""
"","ITI","","html-keyboard-response","227","289508","0.0-1.0-306.0","0","0","14860","","null","","","null","33","","","","","","","","","","","","","","","NaN",""
"","S1","","html-keyboard-response","228","289669","0.0-1.0-308.0","0","0","14860","","null","","","null","34","","","","","","","","","","","","","","","",""
"","ISI","","html-keyboard-response","229","291681","0.0-1.0-309.0","0","0","14860","","null","","","null","34","NaN","","","","","","","","","","","","","","",""
"","S2","","html-keyboard-response","230","291841","0.0-1.0-310.0","0","0","14860","","null","","","null","34","","NaN","","","","","","","","","","","","","",""
"","response","","html-keyboard-response","231","292320","0.0-1.0-311.0-0.0","0","0","14860","","477","","","68","34","","","1","34","training","adjacent","CB","3","2","Q.jpg","P.jpg","1","0","0","",""
"","feedback","","html-keyboard-response","232","293326","0.0-1.0-312.0-0.0","0","0","14860","","null","","","null","34","","","","","","","","","","","","","","","",""
"","time_out","","html-keyboard-response","233","295336","0.0-1.0-314.0-0.0","0","0","14860","","null","","","null","34","","","","","","","","","","","","","","","",""
"","ITI","","html-keyboard-response","234","296343","0.0-1.0-315.0","0","0","14860","","null","","","null","34","","","","","","","","","","","","","","","NaN",""
"","S1","","html-keyboard-response","235","296503","0.0-1.0-317.0","0","0","14860","","null","","","null","35","","","","","","","","","","","","","","","",""
"","ISI","","html-keyboard-response","236","298515","0.0-1.0-318.0","0","0","14860","","null","","","null","35","NaN","","","","","","","","","","","","","","",""
"","S2","","html-keyboard-response","237","298676","0.0-1.0-319.0","0","0","14860","","null","","","null","35","","NaN","","","","","","","","","","","","","",""
"","response","","html-keyboard-response","238","299187","0.0-1.0-320.0-0.0","0","0","14860","","508","","","68","35","","","1","35","training","adjacent","ED","5","4","N.jpg","M.jpg","1","0","0","",""
"","feedback","","html-keyboard-response","239","300193","0.0-1.0-321.0-0.0","0","0","14860","","null","","","null","35","","","","","","","","","","","","","","","",""
"","time_out","","html-keyboard-response","240","302204","0.0-1.0-323.0-0.0","0","0","14860","","null","","","null","35","","","","","","","","","","","","","","","",""
"","ITI","","html-keyboard-response","241","303210","0.0-1.0-324.0","0","0","14860","","null","","","null","35","","","","","","","","","","","","","","","NaN",""
"","S1","","html-keyboard-response","242","303370","0.0-1.0-326.0","0","0","14860","","null","","","null","36","","","","","","","","","","","","","","","",""
"","ISI","","html-keyboard-response","243","305384","0.0-1.0-327.0","0","0","14860","","null","","","null","36","NaN","","","","","","","","","","","","","","",""
"","S2","","html-keyboard-response","244","305544","0.0-1.0-328.0","0","0","14860","","null","","","null","36","","NaN","","","","","","","","","","","","","",""
"","response","","html-keyboard-response","245","306025","0.0-1.0-329.0-0.0","0","0","14860","","478","","","68","36","","","1","36","training","adjacent","DC","4","3","M.jpg","Q.jpg","1","0","0","",""
"","feedback","","html-keyboard-response","246","307043","0.0-1.0-330.0-0.0","0","0","14860","","null","","","null","36","","","","","","","","","","","","","","","",""
"","time_out","","html-keyboard-response","247","309055","0.0-1.0-332.0-0.0","0","0","14860","","null","","","null","36","","","","","","","","","","","","","","","",""
"","ITI","","html-keyboard-response","248","310061","0.0-1.0-333.0","0","0","14860","","null","","","null","36","","","","","","","","","","","","","","","NaN",""
"","S1","","html-keyboard-response","249","310221","0.0-1.0-335.0","0","0","14860","","null","","","null","37","","","","","","","","","","","","","","","",""
"","ISI","","html-keyboard-response","250","312235","0.0-1.0-336.0","0","0","14860","","null","","","null","37","NaN","","","","","","","","","","","","","","",""
"","S2","","html-keyboard-response","251","312394","0.0-1.0-337.0","0","0","14860","","null","","","null","37","","NaN","","","","","","","","","","","","","",""
"","response","","html-keyboard-response","252","312919","0.0-1.0-338.0-0.0","0","0","14860","","521","","","75","37","","","1","37","training","adjacent","BC","2","3","P.jpg","Q.jpg","0","1","0","",""
"","feedback","","html-keyboard-response","253","313926","0.0-1.0-339.0-0.0","0","0","14860","","null","","","null","37","","","","","","","","","","","","","","","",""
"","time_out","","html-keyboard-response","254","315938","0.0-1.0-341.0-0.0","0","0","14860","","null","","","null","37","","","","","","","","","","","","","","","",""
"","ITI","","html-keyboard-response","255","316946","0.0-1.0-342.0","0","0","14860","","null","","","null","37","","","","","","","","","","","","","","","NaN",""
"","S1","","html-keyboard-response","256","317106","0.0-1.0-344.0","0","0","14860","","null","","","null","38","","","","","","","","","","","","","","","",""
"","ISI","","html-keyboard-response","257","319116","0.0-1.0-345.0","0","0","14860","","null","","","null","38","NaN","","","","","","","","","","","","","","",""
"","S2","","html-keyboard-response","258","319277","0.0-1.0-346.0","0","0","14860","","null","","","null","38","","NaN","","","","","","","","","","","","","",""
"","response","","html-keyboard-response","259","319861","0.0-1.0-347.0-0.0","0","0","14860","","583","","","75","38","","","1","38","training","adjacent","AB","1","2","O.jpg","P.jpg","0","1","0","",""
"","feedback","","html-keyboard-response","260","320876","0.0-1.0-348.0-0.0","0","0","14860","","null","","","null","38","","","","","","","","","","","","","","","",""
"","time_out","","html-keyboard-response","261","322887","0.0-1.0-350.0-0.0","0","0","14860","","null","","","null","38","","","","","","","","","","","","","","","",""
"","ITI","","html-keyboard-response","262","323904","0.0-1.0-351.0","0","0","14860","","null","","","null","38","","","","","","","","","","","","","","","NaN",""
"","S1","","html-keyboard-response","263","324063","0.0-1.0-353.0","0","0","14860","","null","","","null","39","","","","","","","","","","","","","","","",""
"","ISI","","html-keyboard-response","264","326072","0.0-1.0-354.0","0","0","14860","","null","","","null","39","NaN","","","","","","","","","","","","","","",""
"","S2","","html-keyboard-response","265","326231","0.0-1.0-355.0","0","0","14860","","null","","","null","39","","NaN","","","","","","","","","","","","","",""
"","response","","html-keyboard-response","266","326655","0.0-1.0-356.0-0.0","0","0","14860","","421","","","68","39","","","1","39","training","adjacent","DE","4","5","M.jpg","N.jpg","1","1","1","",""
"","feedback","","html-keyboard-response","267","327667","0.0-1.0-357.0-0.0","0","0","14860","","null","","","null","39","","","","","","","","","","","","","","","",""
"","ITI","","html-keyboard-response","268","328673","0.0-1.0-360.0","0","0","14860","","null","","","null","39","","","","","","","","","","","","","","","NaN",""
"","S1","","html-keyboard-response","269","328831","0.0-1.0-362.0","0","0","14860","","null","","","null","40","","","","","","","","","","","","","","","",""
"","ISI","","html-keyboard-response","270","330843","0.0-1.0-363.0","0","0","14860","","null","","","null","40","NaN","","","","","","","","","","","","","","",""
"","S2","","html-keyboard-response","271","331000","0.0-1.0-364.0","0","0","14860","","null","","","null","40","","NaN","","","","","","","","","","","","","",""
"","response","","html-keyboard-response","272","331472","0.0-1.0-365.0-0.0","0","0","14860","","469","","","75","40","","","1","40","training","adjacent","CD","3","4","Q.jpg","M.jpg","0","1","0","",""
"","feedback","","html-keyboard-response","273","332483","0.0-1.0-366.0-0.0","0","0","14860","","null","","","null","40","","","","","","","","","","","","","","","",""
"","time_out","","html-keyboard-response","274","334493","0.0-1.0-368.0-0.0","0","0","14860","","null","","","null","40","","","","","","","","","","","","","","","",""
"","ITI","","html-keyboard-response","275","335500","0.0-1.0-369.0","0","0","14860","","null","","","null","40","","","","","","","","","","","","","","","NaN",""
"","S1","","html-keyboard-response","276","335659","0.0-1.0-371.0","0","0","14860","","null","","","null","41","","","","","","","","","","","","","","","",""
"","ISI","","html-keyboard-response","277","337674","0.0-1.0-372.0","0","0","14860","","null","","","null","41","NaN","","","","","","","","","","","","","","",""
"","S2","","html-keyboard-response","278","337833","0.0-1.0-373.0","0","0","14860","","null","","","null","41","","NaN","","","","","","","","","","","","","",""
"","response","","html-keyboard-response","279","338252","0.0-1.0-374.0-0.0","0","0","14860","","415","","","75","41","","","1","41","training","adjacent","FE","6","5","R.jpg","N.jpg","0","0","1","",""
"","feedback","","html-keyboard-response","280","339268","0.0-1.0-375.0-0.0","0","0","14860","","null","","","null","41","","","","","","","","","","","","","","","",""
"","ITI","","html-keyboard-response","281","340276","0.0-1.0-378.0","0","0","14860","","null","","","null","41","","","","","","","","","","","","","","","NaN",""
"","S1","","html-keyboard-response","282","340434","0.0-1.0-380.0","0","0","14860","","null","","","null","42","","","","","","","","","","","","","","","",""
"","ISI","","html-keyboard-response","283","342437","0.0-1.0-381.0","0","0","14860","","null","","","null","42","NaN","","","","","","","","","","","","","","",""
"","S2","","html-keyboard-response","284","342598","0.0-1.0-382.0","0","0","14860","","null","","","null","42","","NaN","","","","","","","","","","","","","",""
"","response","","html-keyboard-response","285","343031","0.0-1.0-383.0-0.0","0","0","14860","","430","","","68","42","","","1","42","training","adjacent","DE","4","5","M.jpg","N.jpg","1","1","1","",""
"","feedback","","html-keyboard-response","286","344036","0.0-1.0-384.0-0.0","0","0","14860","","null","","","null","42","","","","","","","","","","","","","","","",""
"","ITI","","html-keyboard-response","287","345044","0.0-1.0-387.0","0","0","14860","","null","","","null","42","","","","","","","","","","","","","","","NaN",""
"","S1","","html-keyboard-response","288","345203","0.0-1.0-389.0","0","0","14860","","null","","","null","43","","","","","","","","","","","","","","","",""
"","ISI","","html-keyboard-response","289","347216","0.0-1.0-390.0","0","0","14860","","null","","","null","43","NaN","","","","","","","","","","","","","","",""
"","S2","","html-keyboard-response","290","347375","0.0-1.0-391.0","0","0","14860","","null","","","null","43","","NaN","","","","","","","","","","","","","",""
"","response","","html-keyboard-response","291","347661","0.0-1.0-392.0-0.0","0","0","14860","","282","","","75","43","","","1","43","training","adjacent","DE","4","5","M.jpg","N.jpg","0","1","0","",""
"","feedback","","html-keyboard-response","292","348665","0.0-1.0-393.0-0.0","0","0","14860","","null","","","null","43","","","","","","","","","","","","","","","",""
"","time_out","","html-keyboard-response","293","350679","0.0-1.0-395.0-0.0","0","0","14860","","null","","","null","43","","","","","","","","","","","","","","","",""
"","ITI","","html-keyboard-response","294","351687","0.0-1.0-396.0","0","0","14860","","null","","","null","43","","","","","","","","","","","","","","","NaN",""
"","S1","","html-keyboard-response","295","351847","0.0-1.0-398.0","0","0","14860","","null","","","null","44","","","","","","","","","","","","","","","",""
"","ISI","","html-keyboard-response","296","353859","0.0-1.0-399.0","0","0","14860","","null","","","null","44","NaN","","","","","","","","","","","","","","",""
"","S2","","html-keyboard-response","297","354019","0.0-1.0-400.0","0","0","14860","","null","","","null","44","","NaN","","","","","","","","","","","","","",""
"","response","","html-keyboard-response","298","355136","0.0-1.0-401.0-0.0","0","0","14860","","1115","","","75","44","","","1","44","training","adjacent","FG","6","7","R.jpg","L.jpg","0","1","0","",""
"","feedback","","html-keyboard-response","299","356143","0.0-1.0-402.0-0.0","0","0","14860","","null","","","null","44","","","","","","","","","","","","","","","",""
"","time_out","","html-keyboard-response","300","358156","0.0-1.0-404.0-0.0","0","0","14860","","null","","","null","44","","","","","","","","","","","","","","","",""
"","ITI","","html-keyboard-response","301","359164","0.0-1.0-405.0","0","0","14860","","null","","","null","44","","","","","","","","","","","","","","","NaN",""
"","S1","","html-keyboard-response","302","359325","0.0-1.0-407.0","0","0","14860","","null","","","null","45","","","","","","","","","","","","","","","",""
"","ISI","","html-keyboard-response","303","361341","0.0-1.0-408.0","0","0","14860","","null","","","null","45","NaN","","","","","","","","","","","","","","",""
"","S2","","html-keyboard-response","304","361500","0.0-1.0-409.0","0","0","14860","","null","","","null","45","","NaN","","","","","","","","","","","","","",""
"","response","","html-keyboard-response","305","362070","0.0-1.0-410.0-0.0","0","0","14860","","568","","","68","45","","","1","45","training","adjacent","FG","6","7","R.jpg","L.jpg","1","1","1","",""
"","feedback","","html-keyboard-response","306","363084","0.0-1.0-411.0-0.0","0","0","14860","","null","","","null","45","","","","","","","","","","","","","","","",""
"","ITI","","html-keyboard-response","307","364088","0.0-1.0-414.0","0","0","14860","","null","","","null","45","","","","","","","","","","","","","","","NaN",""
"","S1","","html-keyboard-response","308","364247","0.0-1.0-416.0","0","0","14860","","null","","","null","46","","","","","","","","","","","","","","","",""
"","ISI","","html-keyboard-response","309","366260","0.0-1.0-417.0","0","0","14860","","null","","","null","46","NaN","","","","","","","","","","","","","","",""
"","S2","","html-keyboard-response","310","366420","0.0-1.0-418.0","0","0","14860","","null","","","null","46","","NaN","","","","","","","","","","","","","",""
"","response","","html-keyboard-response","311","367013","0.0-1.0-419.0-0.0","0","0","14860","","590","","","68","46","","","1","46","training","adjacent","FG","6","7","R.jpg","L.jpg","1","1","1","",""
"","feedback","","html-keyboard-response","312","368018","0.0-1.0-420.0-0.0","0","0","14860","","null","","","null","46","","","","","","","","","","","","","","","",""
"","ITI","","html-keyboard-response","313","369037","0.0-1.0-423.0","0","0","14860","","null","","","null","46","","","","","","","","","","","","","","","NaN",""
"","S1","","html-keyboard-response","314","369197","0.0-1.0-425.0","0","0","14860","","null","","","null","47","","","","","","","","","","","","","","","",""
"","ISI","","html-keyboard-response","315","371211","0.0-1.0-426.0","0","0","14860","","null","","","null","47","NaN","","","","","","","","","","","","","","",""
"","S2","","html-keyboard-response","316","371371","0.0-1.0-427.0","0","0","14860","","null","","","null","47","","NaN","","","","","","","","","","","","","",""
"","response","","html-keyboard-response","317","372116","0.0-1.0-428.0-0.0","0","0","14860","","742","","","75","47","","","1","47","training","adjacent","AB","1","2","O.jpg","P.jpg","0","1","0","",""
"","feedback","","html-keyboard-response","318","373131","0.0-1.0-429.0-0.0","0","0","14860","","null","","","null","47","","","","","","","","","","","","","","","",""
"","time_out","","html-keyboard-response","319","375143","0.0-1.0-431.0-0.0","0","0","14860","","null","","","null","47","","","","","","","","","","","","","","","",""
"","ITI","","html-keyboard-response","320","376151","0.0-1.0-432.0","0","0","14860","","null","","","null","47","","","","","","","","","","","","","","","NaN",""
"","block_over","","html-keyboard-response","321","380158","0.0-1.0-433.0-0.0","0","0","14860","","4002","","","32","47","","","","","","","","","","","","","","","",""
"","S1","","html-keyboard-response","322","380320","0.0-1.0-434.0","0","0","14860","","null","","","null","48","","","","","","","","","","","","","","","",""
"","ISI","","html-keyboard-response","323","382330","0.0-1.0-435.0","0","0","14860","","682","","","68","48","d","","","","","","","","","","","","","","",""
"","S2","","html-keyboard-response","324","382490","0.0-1.0-436.0","0","0","14860","","null","","","null","48","","NaN","","","","","","","","","","","","","",""
"","response","","html-keyboard-response","325","383066","0.0-1.0-437.0-0.0","0","0","14860","","573","","","68","48","","","2","48","training","adjacent","BA","2","1","P.jpg","O.jpg","1","0","0","",""
"","feedback","","html-keyboard-response","326","384074","0.0-1.0-438.0-0.0","0","0","14860","","null","","","null","48","","","","","","","","","","","","","","","",""
"","time_out","","html-keyboard-response","327","386087","0.0-1.0-440.0-0.0","0","0","14860","","null","","","null","48","","","","","","","","","","","","","","","",""
"","ITI","","html-keyboard-response","328","387095","0.0-1.0-441.0","0","0","14860","","null","","","null","48","","","","","","","","","","","","","","","NaN",""
"","S1","","html-keyboard-response","329","387255","0.0-1.0-443.0","0","0","14860","","null","","","null","49","","","","","","","","","","","","","","","",""
"","ISI","","html-keyboard-response","330","389267","0.0-1.0-444.0","0","0","14860","","null","","","null","49","NaN","","","","","","","","","","","","","","",""
"","S2","","html-keyboard-response","331","389428","0.0-1.0-445.0","0","0","14860","","null","","","null","49","","NaN","","","","","","","","","","","","","",""
"","response","","html-keyboard-response","332","390009","0.0-1.0-446.0-0.0","0","0","14860","","578","","","68","49","","","2","49","training","adjacent","CD","3","4","Q.jpg","M.jpg","1","1","1","",""
"","feedback","","html-keyboard-response","333","391027","0.0-1.0-447.0-0.0","0","0","14860","","null","","","null","49","","","","","","","","","","","","","","","",""
"","ITI","","html-keyboard-response","334","392035","0.0-1.0-450.0","0","0","14860","","null","","","null","49","","","","","","","","","","","","","","","NaN",""
"","S1","","html-keyboard-response","335","392195","0.0-1.0-452.0","0","0","14860","","null","","","null","50","","","","","","","","","","","","","","","",""
"","ISI","","html-keyboard-response","336","394206","0.0-1.0-453.0","0","0","14860","","null","","","null","50","NaN","","","","","","","","","","","","","","",""
"","S2","","html-keyboard-response","337","394368","0.0-1.0-454.0","0","0","14860","","null","","","null","50","","NaN","","","","","","","","","","","","","",""
"","response","","html-keyboard-response","338","394874","0.0-1.0-455.0-0.0","0","0","14860","","504","","","68","50","","","2","50","training","adjacent","CD","3","4","Q.jpg","M.jpg","1","1","1","",""
"","feedback","","html-keyboard-response","339","395886","0.0-1.0-456.0-0.0","0","0","14860","","null","","","null","50","","","","","","","","","","","","","","","",""
"","ITI","","html-keyboard-response","340","396893","0.0-1.0-459.0","0","0","14860","","null","","","null","50","","","","","","","","","","","","","","","NaN",""
"","S1","","html-keyboard-response","341","397054","0.0-1.0-461.0","0","0","14860","","null","","","null","51","","","","","","","","","","","","","","","",""
"","ISI","","html-keyboard-response","342","399065","0.0-1.0-462.0","0","0","14860","","null","","","null","51","NaN","","","","","","","","","","","","","","",""
"","S2","","html-keyboard-response","343","399224","0.0-1.0-463.0","0","0","14860","","null","","","null","51","","NaN","","","","","","","","","","","","","",""
"","response","","html-keyboard-response","344","400504","0.0-1.0-464.0-0.0","0","0","14860","","1278","","","75","51","","","2","51","training","adjacent","BA","2","1","P.jpg","O.jpg","0","0","1","",""
"","feedback","","html-keyboard-response","345","401508","0.0-1.0-465.0-0.0","0","0","14860","","null","","","null","51","","","","","","","","","","","","","","","",""
"","ITI","","html-keyboard-response","346","402517","0.0-1.0-468.0","0","0","14860","","null","","","null","51","","","","","","","","","","","","","","","NaN",""
"","S1","","html-keyboard-response","347","402676","0.0-1.0-470.0","0","0","14860","","null","","","null","52","","","","","","","","","","","","","","","",""
"","ISI","","html-keyboard-response","348","404686","0.0-1.0-471.0","0","0","14860","","null","","","null","52","NaN","","","","","","","","","","","","","","",""
"","S2","","html-keyboard-response","349","404846","0.0-1.0-472.0","0","0","14860","","null","","","null","52","","NaN","","","","","","","","","","","","","",""
"","response","","html-keyboard-response","350","405807","0.0-1.0-473.0-0.0","0","0","14860","","958","","","68","52","","","2","52","training","adjacent","CB","3","2","Q.jpg","P.jpg","1","0","0","",""
"","feedback","","html-keyboard-response","351","406824","0.0-1.0-474.0-0.0","0","0","14860","","null","","","null","52","","","","","","","","","","","","","","","",""
"","time_out","","html-keyboard-response","352","408830","0.0-1.0-476.0-0.0","0","0","14860","","null","","","null","52","","","","","","","","","","","","","","","",""
"","ITI","","html-keyboard-response","353","409834","0.0-1.0-477.0","0","0","14860","","null","","","null","52","","","","","","","","","","","","","","","NaN",""
"","S1","","html-keyboard-response","354","409993","0.0-1.0-479.0","0","0","14860","","null","","","null","53","","","","","","","","","","","","","","","",""
"","ISI","","html-keyboard-response","355","412004","0.0-1.0-480.0","0","0","14860","","null","","","null","53","NaN","","","","","","","","","","","","","","",""
"","S2","","html-keyboard-response","356","412164","0.0-1.0-481.0","0","0","14860","","null","","","null","53","","NaN","","","","","","","","","","","","","",""
"","response","","html-keyboard-response","357","412786","0.0-1.0-482.0-0.0","0","0","14860","","620","","","68","53","","","2","53","training","adjacent","BC","2","3","P.jpg","Q.jpg","1","1","1","",""
"","feedback","","html-keyboard-response","358","413794","0.0-1.0-483.0-0.0","0","0","14860","","null","","","null","53","","","","","","","","","","","","","","","",""
"","ITI","","html-keyboard-response","359","414800","0.0-1.0-486.0","0","0","14860","","null","","","null","53","","","","","","","","","","","","","","","NaN",""
"","S1","","html-keyboard-response","360","414958","0.0-1.0-488.0","0","0","14860","","null","","","null","54","","","","","","","","","","","","","","","",""
"","ISI","","html-keyboard-response","361","416969","0.0-1.0-489.0","0","0","14860","","null","","","null","54","NaN","","","","","","","","","","","","","","",""
"","S2","","html-keyboard-response","362","417128","0.0-1.0-490.0","0","0","14860","","null","","","null","54","","NaN","","","","","","","","","","","","","",""
"","response","","html-keyboard-response","363","418091","0.0-1.0-491.0-0.0","0","0","14860","","960","","","75","54","","","2","54","training","adjacent","CB","3","2","Q.jpg","P.jpg","0","0","1","",""
"","feedback","","html-keyboard-response","364","419095","0.0-1.0-492.0-0.0","0","0","14860","","null","","","null","54","","","","","","","","","","","","","","","",""
"","ITI","","html-keyboard-response","365","420099","0.0-1.0-495.0","0","0","14860","","null","","","null","54","","","","","","","","","","","","","","","NaN",""
"","S1","","html-keyboard-response","366","420259","0.0-1.0-497.0","0","0","14860","","null","","","null","55","","","","","","","","","","","","","","","",""
"","ISI","","html-keyboard-response","367","422272","0.0-1.0-498.0","0","0","14860","","null","","","null","55","NaN","","","","","","","","","","","","","","",""
"","S2","","html-keyboard-response","368","422432","0.0-1.0-499.0","0","0","14860","","null","","","null","55","","NaN","","","","","","","","","","","","","",""
"","response","","html-keyboard-response","369","423317","0.0-1.0-500.0-0.0","0","0","14860","","883","","","68","55","","","2","55","training","adjacent","AB","1","2","O.jpg","P.jpg","1","1","1","",""
"","feedback","","html-keyboard-response","370","424327","0.0-1.0-501.0-0.0","0","0","14860","","null","","","null","55","","","","","","","","","","","","","","","",""
"","ITI","","html-keyboard-response","371","425332","0.0-1.0-504.0","0","0","14860","","null","","","null","55","","","","","","","","","","","","","","","NaN",""
"","S1","","html-keyboard-response","372","425493","0.0-1.0-506.0","0","0","14860","","null","","","null","56","","","","","","","","","","","","","","","",""
"","ISI","","html-keyboard-response","373","427503","0.0-1.0-507.0","0","0","14860","","null","","","null","56","NaN","","","","","","","","","","","","","","",""
"","S2","","html-keyboard-response","374","427663","0.0-1.0-508.0","0","0","14860","","null","","","null","56","","NaN","","","","","","","","","","","","","",""
"","response","","html-keyboard-response","375","428272","0.0-1.0-509.0-0.0","0","0","14860","","605","","","68","56","","","2","56","training","adjacent","FG","6","7","R.jpg","L.jpg","1","1","1","",""
"","feedback","","html-keyboard-response","376","429281","0.0-1.0-510.0-0.0","0","0","14860","","null","","","null","56","","","","","","","","","","","","","","","",""
"","ITI","","html-keyboard-response","377","430286","0.0-1.0-513.0","0","0","14860","","null","","","null","56","","","","","","","","","","","","","","","NaN",""
"","S1","","html-keyboard-response","378","430446","0.0-1.0-515.0","0","0","14860","","null","","","null","57","","","","","","","","","","","","","","","",""
"","ISI","","html-keyboard-response","379","432460","0.0-1.0-516.0","0","0","14860","","null","","","null","57","NaN","","","","","","","","","","","","","","",""
"","S2","","html-keyboard-response","380","432620","0.0-1.0-517.0","0","0","14860","","null","","","null","57","","NaN","","","","","","","","","","","","","",""
"","response","","html-keyboard-response","381","433074","0.0-1.0-518.0-0.0","0","0","14860","","451","","","68","57","","","2","57","training","adjacent","AB","1","2","O.jpg","P.jpg","1","1","1","",""
"","feedback","","html-keyboard-response","382","434091","0.0-1.0-519.0-0.0","0","0","14860","","null","","","null","57","","","","","","","","","","","","","","","",""
"","ITI","","html-keyboard-response","383","435099","0.0-1.0-522.0","0","0","14860","","null","","","null","57","","","","","","","","","","","","","","","NaN",""
"","S1","","html-keyboard-response","384","435259","0.0-1.0-524.0","0","0","14860","","null","","","null","58","","","","","","","","","","","","","","","",""
"","ISI","","html-keyboard-response","385","437270","0.0-1.0-525.0","0","0","14860","","null","","","null","58","NaN","","","","","","","","","","","","","","",""
"","S2","","html-keyboard-response","386","437430","0.0-1.0-526.0","0","0","14860","","null","","","null","58","","NaN","","","","","","","","","","","","","",""
"","response","","html-keyboard-response","387","438278","0.0-1.0-527.0-0.0","0","0","14860","","846","","","75","58","","","2","58","training","adjacent","FE","6","5","R.jpg","N.jpg","0","0","1","",""
"","feedback","","html-keyboard-response","388","439294","0.0-1.0-528.0-0.0","0","0","14860","","null","","","null","58","","","","","","","","","","","","","","","",""
"","ITI","","html-keyboard-response","389","440302","0.0-1.0-531.0","0","0","14860","","null","","","null","58","","","","","","","","","","","","","","","NaN",""
"","S1","","html-keyboard-response","390","440461","0.0-1.0-533.0","0","0","14860","","null","","","null","59","","","","","","","","","","","","","","","",""
"","ISI","","html-keyboard-response","391","442469","0.0-1.0-534.0","0","0","14860","","null","","","null","59","NaN","","","","","","","","","","","","","","",""
"","S2","","html-keyboard-response","392","442629","0.0-1.0-535.0","0","0","14860","","null","","","null","59","","NaN","","","","","","","","","","","","","",""
"","response","","html-keyboard-response","393","443239","0.0-1.0-536.0-0.0","0","0","14860","","608","","","68","59","","","2","59","training","adjacent","CD","3","4","Q.jpg","M.jpg","1","1","1","",""
"","feedback","","html-keyboard-response","394","444252","0.0-1.0-537.0-0.0","0","0","14860","","null","","","null","59","","","","","","","","","","","","","","","",""
"","ITI","","html-keyboard-response","395","445257","0.0-1.0-540.0","0","0","14860","","null","","","null","59","","","","","","","","","","","","","","","NaN",""
"","S1","","html-keyboard-response","396","445417","0.0-1.0-542.0","0","0","14860","","null","","","null","60","","","","","","","","","","","","","","","",""
"","ISI","","html-keyboard-response","397","447431","0.0-1.0-543.0","0","0","14860","","null","","","null","60","NaN","","","","","","","","","","","","","","",""
"","S2","","html-keyboard-response","398","447591","0.0-1.0-544.0","0","0","14860","","null","","","null","60","","NaN","","","","","","","","","","","","","",""
"","response","","html-keyboard-response","399","448217","0.0-1.0-545.0-0.0","0","0","14860","","622","","","75","60","","","2","60","training","adjacent","BA","2","1","P.jpg","O.jpg","0","0","1","",""
"","feedback","","html-keyboard-response","400","449223","0.0-1.0-546.0-0.0","0","0","14860","","null","","","null","60","","","","","","","","","","","","","","","",""
"","ITI","","html-keyboard-response","401","450231","0.0-1.0-549.0","0","0","14860","","null","","","null","60","","","","","","","","","","","","","","","NaN",""
"","S1","","html-keyboard-response","402","450391","0.0-1.0-551.0","0","0","14860","","null","","","null","61","","","","","","","","","","","","","","","",""
"","ISI","","html-keyboard-response","403","452403","0.0-1.0-552.0","0","0","14860","","null","","","null","61","NaN","","","","","","","","","","","","","","",""
"","S2","","html-keyboard-response","404","452563","0.0-1.0-553.0","0","0","14860","","null","","","null","61","","NaN","","","","","","","","","","","","","",""
"","response","","html-keyboard-response","405","453514","0.0-1.0-554.0-0.0","0","0","14860","","949","","","68","61","","","2","61","training","adjacent","AB","1","2","O.jpg","P.jpg","1","1","1","",""
"","feedback","","html-keyboard-response","406","454529","0.0-1.0-555.0-0.0","0","0","14860","","null","","","null","61","","","","","","","","","","","","","","","",""
"","ITI","","html-keyboard-response","407","455536","0.0-1.0-558.0","0","0","14860","","null","","","null","61","","","","","","","","","","","","","","","NaN",""
"","S1","","html-keyboard-response","408","455696","0.0-1.0-560.0","0","0","14860","","null","","","null","62","","","","","","","","","","","","","","","",""
"","ISI","","html-keyboard-response","409","457702","0.0-1.0-561.0","0","0","14860","","null","","","null","62","NaN","","","","","","","","","","","","","","",""
"","S2","","html-keyboard-response","410","457862","0.0-1.0-562.0","0","0","14860","","null","","","null","62","","NaN","","","","","","","","","","","","","",""
"","response","","html-keyboard-response","411","458329","0.0-1.0-563.0-0.0","0","0","14860","","464","","","75","62","","","2","62","training","adjacent","DE","4","5","M.jpg","N.jpg","0","1","0","",""
"","feedback","","html-keyboard-response","412","459334","0.0-1.0-564.0-0.0","0","0","14860","","null","","","null","62","","","","","","","","","","","","","","","",""
"","time_out","","html-keyboard-response","413","461344","0.0-1.0-566.0-0.0","0","0","14860","","null","","","null","62","","","","","","","","","","","","","","","",""
"","ITI","","html-keyboard-response","414","462349","0.0-1.0-567.0","0","0","14860","","null","","","null","62","","","","","","","","","","","","","","","NaN",""
"","S1","","html-keyboard-response","415","462509","0.0-1.0-569.0","0","0","14860","","null","","","null","63","","","","","","","","","","","","","","","",""
"","ISI","","html-keyboard-response","416","464522","0.0-1.0-570.0","0","0","14860","","null","","","null","63","NaN","","","","","","","","","","","","","","",""
"","S2","","html-keyboard-response","417","464682","0.0-1.0-571.0","0","0","14860","","null","","","null","63","","NaN","","","","","","","","","","","","","",""
"","response","","html-keyboard-response","418","465107","0.0-1.0-572.0-0.0","0","0","14860","","422","","","68","63","","","2","63","training","adjacent","AB","1","2","O.jpg","P.jpg","1","1","1","",""
"","feedback","","html-keyboard-response","419","466121","0.0-1.0-573.0-0.0","0","0","14860","","null","","","null","63","","","","","","","","","","","","","","","",""
"","ITI","","html-keyboard-response","420","467126","0.0-1.0-576.0","0","0","14860","","null","","","null","63","","","","","","","","","","","","","","","NaN",""
"","S1","","html-keyboard-response","421","467286","0.0-1.0-578.0","0","0","14860","","null","","","null","64","","","","","","","","","","","","","","","",""
"","ISI","","html-keyboard-response","422","469297","0.0-1.0-579.0","0","0","14860","","null","","","null","64","NaN","","","","","","","","","","","","","","",""
"","S2","","html-keyboard-response","423","469458","0.0-1.0-580.0","0","0","14860","","null","","","null","64","","NaN","","","","","","","","","","","","","",""
"","response","","html-keyboard-response","424","470369","0.0-1.0-581.0-0.0","0","0","14860","","909","","","68","64","","","2","64","training","adjacent","FG","6","7","R.jpg","L.jpg","1","1","1","",""
"","feedback","","html-keyboard-response","425","471376","0.0-1.0-582.0-0.0","0","0","14860","","null","","","null","64","","","","","","","","","","","","","","","",""
"","ITI","","html-keyboard-response","426","472380","0.0-1.0-585.0","0","0","14860","","null","","","null","64","","","","","","","","","","","","","","","NaN",""
"","S1","","html-keyboard-response","427","472539","0.0-1.0-587.0","0","0","14860","","null","","","null","65","","","","","","","","","","","","","","","",""
"","ISI","","html-keyboard-response","428","474556","0.0-1.0-588.0","0","0","14860","","null","","","null","65","NaN","","","","","","","","","","","","","","",""
"","S2","","html-keyboard-response","429","474716","0.0-1.0-589.0","0","0","14860","","null","","","null","65","","NaN","","","","","","","","","","","","","",""
"","response","","html-keyboard-response","430","475526","0.0-1.0-590.0-0.0","0","0","14860","","808","","","75","65","","","2","65","training","adjacent","EF","5","6","N.jpg","R.jpg","0","1","0","",""
"","feedback","","html-keyboard-response","431","476539","0.0-1.0-591.0-0.0","0","0","14860","","null","","","null","65","","","","","","","","","","","","","","","",""
"","time_out","","html-keyboard-response","432","478546","0.0-1.0-593.0-0.0","0","0","14860","","null","","","null","65","","","","","","","","","","","","","","","",""
"","ITI","","html-keyboard-response","433","479553","0.0-1.0-594.0","0","0","14860","","null","","","null","65","","","","","","","","","","","","","","","NaN",""
"","S1","","html-keyboard-response","434","479712","0.0-1.0-596.0","0","0","14860","","null","","","null","66","","","","","","","","","","","","","","","",""
"","ISI","","html-keyboard-response","435","481724","0.0-1.0-597.0","0","0","14860","","null","","","null","66","NaN","","","","","","","","","","","","","","",""
"","S2","","html-keyboard-response","436","481884","0.0-1.0-598.0","0","0","14860","","null","","","null","66","","NaN","","","","","","","","","","","","","",""
"","response","","html-keyboard-response","437","482358","0.0-1.0-599.0-0.0","0","0","14860","","471","","","68","66","","","2","66","training","adjacent","FG","6","7","R.jpg","L.jpg","1","1","1","",""
"","feedback","","html-keyboard-response","438","483368","0.0-1.0-600.0-0.0","0","0","14860","","null","","","null","66","","","","","","","","","","","","","","","",""
"","ITI","","html-keyboard-response","439","484374","0.0-1.0-603.0","0","0","14860","","null","","","null","66","","","","","","","","","","","","","","","NaN",""
"","S1","","html-keyboard-response","440","484534","0.0-1.0-605.0","0","0","14860","","null","","","null","67","","","","","","","","","","","","","","","",""
"","ISI","","html-keyboard-response","441","486547","0.0-1.0-606.0","0","0","14860","","null","","","null","67","NaN","","","","","","","","","","","","","","",""
"","S2","","html-keyboard-response","442","486707","0.0-1.0-607.0","0","0","14860","","null","","","null","67","","NaN","","","","","","","","","","","","","",""
"","response","","html-keyboard-response","443","487274","0.0-1.0-608.0-0.0","0","0","14860","","565","","","75","67","","","2","67","training","adjacent","DE","4","5","M.jpg","N.jpg","0","1","0","",""
"","feedback","","html-keyboard-response","444","488289","0.0-1.0-609.0-0.0","0","0","14860","","null","","","null","67","","","","","","","","","","","","","","","",""
"","time_out","","html-keyboard-response","445","490302","0.0-1.0-611.0-0.0","0","0","14860","","null","","","null","67","","","","","","","","","","","","","","","",""
"","ITI","","html-keyboard-response","446","491311","0.0-1.0-612.0","0","0","14860","","null","","","null","67","","","","","","","","","","","","","","","NaN",""
"","S1","","html-keyboard-response","447","491470","0.0-1.0-614.0","0","0","14860","","null","","","null","68","","","","","","","","","","","","","","","",""
"","ISI","","html-keyboard-response","448","493485","0.0-1.0-615.0","0","0","14860","","null","","","null","68","NaN","","","","","","","","","","","","","","",""
"","S2","","html-keyboard-response","449","493644","0.0-1.0-616.0","0","0","14860","","null","","","null","68","","NaN","","","","","","","","","","","","","",""
"","response","","html-keyboard-response","450","494149","0.0-1.0-617.0-0.0","0","0","14860","","503","","","75","68","","","2","68","training","adjacent","DC","4","3","M.jpg","Q.jpg","0","0","1","",""
"","feedback","","html-keyboard-response","451","495160","0.0-1.0-618.0-0.0","0","0","14860","","null","","","null","68","","","","","","","","","","","","","","","",""
"","ITI","","html-keyboard-response","452","496166","0.0-1.0-621.0","0","0","14860","","null","","","null","68","","","","","","","","","","","","","","","NaN",""
"","S1","","html-keyboard-response","453","496326","0.0-1.0-623.0","0","0","14860","","null","","","null","69","","","","","","","","","","","","","","","",""
"","ISI","","html-keyboard-response","454","498338","0.0-1.0-624.0","0","0","14860","","null","","","null","69","NaN","","","","","","","","","","","","","","",""
"","S2","","html-keyboard-response","455","498498","0.0-1.0-625.0","0","0","14860","","null","","","null","69","","NaN","","","","","","","","","","","","","",""
"","response","","html-keyboard-response","456","499298","0.0-1.0-626.0-0.0","0","0","14860","","797","","","68","69","","","2","69","training","adjacent","BC","2","3","P.jpg","Q.jpg","1","1","1","",""
"","feedback","","html-keyboard-response","457","500316","0.0-1.0-627.0-0.0","0","0","14860","","null","","","null","69","","","","","","","","","","","","","","","",""
"","ITI","","html-keyboard-response","458","501334","0.0-1.0-630.0","0","0","14860","","null","","","null","69","","","","","","","","","","","","","","","NaN",""
"","S1","","html-keyboard-response","459","501494","0.0-1.0-632.0","0","0","14860","","null","","","null","70","","","","","","","","","","","","","","","",""
"","ISI","","html-keyboard-response","460","503507","0.0-1.0-633.0","0","0","14860","","null","","","null","70","NaN","","","","","","","","","","","","","","",""
"","S2","","html-keyboard-response","461","503668","0.0-1.0-634.0","0","0","14860","","null","","","null","70","","NaN","","","","","","","","","","","","","",""
"","response","","html-keyboard-response","462","504078","0.0-1.0-635.0-0.0","0","0","14860","","408","","","68","70","","","2","70","training","adjacent","ED","5","4","N.jpg","M.jpg","1","0","0","",""
"","feedback","","html-keyboard-response","463","505088","0.0-1.0-636.0-0.0","0","0","14860","","null","","","null","70","","","","","","","","","","","","","","","",""
"","time_out","","html-keyboard-response","464","507099","0.0-1.0-638.0-0.0","0","0","14860","","null","","","null","70","","","","","","","","","","","","","","","",""
"","ITI","","html-keyboard-response","465","508103","0.0-1.0-639.0","0","0","14860","","null","","","null","70","","","","","","","","","","","","","","","NaN",""
"","S1","","html-keyboard-response","466","508262","0.0-1.0-641.0","0","0","14860","","null","","","null","71","","","","","","","","","","","","","","","",""
"","ISI","","html-keyboard-response","467","510272","0.0-1.0-642.0","0","0","14860","","null","","","null","71","NaN","","","","","","","","","","","","","","",""
"","S2","","html-keyboard-response","468","510429","0.0-1.0-643.0","0","0","14860","","null","","","null","71","","NaN","","","","","","","","","","","","","",""
"","response","","html-keyboard-response","469","511427","0.0-1.0-644.0-0.0","0","0","14860","","995","","","75","71","","","2","71","training","adjacent","GF","7","6","L.jpg","R.jpg","0","0","1","",""
"","feedback","","html-keyboard-response","470","512443","0.0-1.0-645.0-0.0","0","0","14860","","null","","","null","71","","","","","","","","","","","","","","","",""
"","ITI","","html-keyboard-response","471","513448","0.0-1.0-648.0","0","0","14860","","null","","","null","71","","","","","","","","","","","","","","","NaN",""
"","S1","","html-keyboard-response","472","513608","0.0-1.0-650.0","0","0","14860","","null","","","null","72","","","","","","","","","","","","","","","",""
"","ISI","","html-keyboard-response","473","515622","0.0-1.0-651.0","0","0","14860","","null","","","null","72","NaN","","","","","","","","","","","","","","",""
"","S2","","html-keyboard-response","474","515780","0.0-1.0-652.0","0","0","14860","","null","","","null","72","","NaN","","","","","","","","","","","","","",""
"","response","","html-keyboard-response","475","516110","0.0-1.0-653.0-0.0","0","0","14860","","328","","","75","72","","","2","72","training","adjacent","DC","4","3","M.jpg","Q.jpg","0","0","1","",""
"","feedback","","html-keyboard-response","476","517128","0.0-1.0-654.0-0.0","0","0","14860","","null","","","null","72","","","","","","","","","","","","","","","",""
"","ITI","","html-keyboard-response","477","518136","0.0-1.0-657.0","0","0","14860","","null","","","null","72","","","","","","","","","","","","","","","NaN",""
"","S1","","html-keyboard-response","478","518295","0.0-1.0-659.0","0","0","14860","","null","","","null","73","","","","","","","","","","","","","","","",""
"","ISI","","html-keyboard-response","479","520304","0.0-1.0-660.0","0","0","14860","","null","","","null","73","NaN","","","","","","","","","","","","","","",""
"","S2","","html-keyboard-response","480","520463","0.0-1.0-661.0","0","0","14860","","null","","","null","73","","NaN","","","","","","","","","","","","","",""
"","response","","html-keyboard-response","481","521421","0.0-1.0-662.0-0.0","0","0","14860","","955","","","68","73","","","2","73","training","adjacent","BC","2","3","P.jpg","Q.jpg","1","1","1","",""
"","feedback","","html-keyboard-response","482","522429","0.0-1.0-663.0-0.0","0","0","14860","","null","","","null","73","","","","","","","","","","","","","","","",""
"","ITI","","html-keyboard-response","483","523437","0.0-1.0-666.0","0","0","14860","","null","","","null","73","","","","","","","","","","","","","","","NaN",""
"","S1","","html-keyboard-response","484","523595","0.0-1.0-668.0","0","0","14860","","null","","","null","74","","","","","","","","","","","","","","","",""
"","ISI","","html-keyboard-response","485","525608","0.0-1.0-669.0","0","0","14860","","null","","","null","74","NaN","","","","","","","","","","","","","","",""
"","S2","","html-keyboard-response","486","525768","0.0-1.0-670.0","0","0","14860","","null","","","null","74","","NaN","","","","","","","","","","","","","",""
"","response","","html-keyboard-response","487","526515","0.0-1.0-671.0-0.0","0","0","14860","","746","","","68","74","","","2","74","training","adjacent","GF","7","6","L.jpg","R.jpg","1","0","0","",""
"","feedback","","html-keyboard-response","488","527522","0.0-1.0-672.0-0.0","0","0","14860","","null","","","null","74","","","","","","","","","","","","","","","",""
"","time_out","","html-keyboard-response","489","529535","0.0-1.0-674.0-0.0","0","0","14860","","null","","","null","74","","","","","","","","","","","","","","","",""
"","ITI","","html-keyboard-response","490","530543","0.0-1.0-675.0","0","0","14860","","null","","","null","74","","","","","","","","","","","","","","","NaN",""
"","S1","","html-keyboard-response","491","530702","0.0-1.0-677.0","0","0","14860","","null","","","null","75","","","","","","","","","","","","","","","",""
"","ISI","","html-keyboard-response","492","532715","0.0-1.0-678.0","0","0","14860","","null","","","null","75","NaN","","","","","","","","","","","","","","",""
"","S2","","html-keyboard-response","493","532876","0.0-1.0-679.0","0","0","14860","","null","","","null","75","","NaN","","","","","","","","","","","","","",""
"","response","","html-keyboard-response","494","533805","0.0-1.0-680.0-0.0","0","0","14860","","927","","","68","75","","","2","75","training","adjacent","DE","4","5","M.jpg","N.jpg","1","1","1","",""
"","feedback","","html-keyboard-response","495","534824","0.0-1.0-681.0-0.0","0","0","14860","","null","","","null","75","","","","","","","","","","","","","","","",""
"","ITI","","html-keyboard-response","496","535832","0.0-1.0-684.0","0","0","14860","","null","","","null","75","","","","","","","","","","","","","","","NaN",""
"","S1","","html-keyboard-response","497","535991","0.0-1.0-686.0","0","0","14860","","null","","","null","76","","","","","","","","","","","","","","","",""
"","ISI","","html-keyboard-response","498","538003","0.0-1.0-687.0","0","0","14860","","null","","","null","76","NaN","","","","","","","","","","","","","","",""
"","S2","","html-keyboard-response","499","538164","0.0-1.0-688.0","0","0","14860","","null","","","null","76","","NaN","","","","","","","","","","","","","",""
"","response","","html-keyboard-response","500","539379","0.0-1.0-689.0-0.0","0","0","14860","","1212","","","75","76","","","2","76","training","adjacent","DE","4","5","M.jpg","N.jpg","0","1","0","",""
"","feedback","","html-keyboard-response","501","540385","0.0-1.0-690.0-0.0","0","0","14860","","null","","","null","76","","","","","","","","","","","","","","","",""
"","time_out","","html-keyboard-response","502","542396","0.0-1.0-692.0-0.0","0","0","14860","","null","","","null","76","","","","","","","","","","","","","","","",""
"","ITI","","html-keyboard-response","503","543404","0.0-1.0-693.0","0","0","14860","","null","","","null","76","","","","","","","","","","","","","","","NaN",""
"","S1","","html-keyboard-response","504","543563","0.0-1.0-695.0","0","0","14860","","null","","","null","77","","","","","","","","","","","","","","","",""
"","ISI","","html-keyboard-response","505","545573","0.0-1.0-696.0","0","0","14860","","null","","","null","77","NaN","","","","","","","","","","","","","","",""
"","S2","","html-keyboard-response","506","545733","0.0-1.0-697.0","0","0","14860","","null","","","null","77","","NaN","","","","","","","","","","","","","",""
"","response","","html-keyboard-response","507","546207","0.0-1.0-698.0-0.0","0","0","14860","","470","","","75","77","","","2","77","training","adjacent","GF","7","6","L.jpg","R.jpg","0","0","1","",""
"","feedback","","html-keyboard-response","508","547220","0.0-1.0-699.0-0.0","0","0","14860","","null","","","null","77","","","","","","","","","","","","","","","",""
"","ITI","","html-keyboard-response","509","548228","0.0-1.0-702.0","0","0","14860","","null","","","null","77","","","","","","","","","","","","","","","NaN",""
"","S1","","html-keyboard-response","510","548388","0.0-1.0-704.0","0","0","14860","","null","","","null","78","","","","","","","","","","","","","","","",""
"","ISI","","html-keyboard-response","511","550404","0.0-1.0-705.0","0","0","14860","","null","","","null","78","NaN","","","","","","","","","","","","","","",""
"","S2","","html-keyboard-response","512","550562","0.0-1.0-706.0","0","0","14860","","null","","","null","78","","NaN","","","","","","","","","","","","","",""
"","response","","html-keyboard-response","513","552419","0.0-1.0-707.0-0.0","0","0","14860","","null","","","null","78","","","2","78","training","adjacent","EF","5","6","N.jpg","R.jpg","NaN","1","0","",""
"","too_slow_prompt","","html-keyboard-response","514","553426","0.0-1.0-709.0-0.0","1","0","14860","","null","","","null","","","","","","","","","","","","","","","","",""
"","time_out","","html-keyboard-response","515","555440","0.0-1.0-710.0-0.0","0","0","14860","","null","","","null","78","","","","","","","","","","","","","","","",""
"","ITI","","html-keyboard-response","516","556447","0.0-1.0-711.0","0","0","14860","","null","","","null","78","","","","","","","","","","","","","","","NaN",""
"","S1","","html-keyboard-response","517","556609","0.0-1.0-713.0","0","0","14860","","null","","","null","79","","","","","","","","","","","","","","","",""
"","ISI","","html-keyboard-response","518","558623","0.0-1.0-714.0","0","0","14860","","null","","","null","79","NaN","","","","","","","","","","","","","","",""
"","S2","","html-keyboard-response","519","558782","0.0-1.0-715.0","0","0","14860","","null","","","null","79","","NaN","","","","","","","","","","","","","",""
"","response","","html-keyboard-response","520","559266","0.0-1.0-716.0-0.0","0","0","14860","","480","","","68","79","","","2","79","training","adjacent","FG","6","7","R.jpg","L.jpg","1","1","1","",""
"","feedback","","html-keyboard-response","521","560284","0.0-1.0-717.0-0.0","0","0","14860","","null","","","null","79","","","","","","","","","","","","","","","",""
"","ITI","","html-keyboard-response","522","561291","0.0-1.0-720.0","0","0","14860","","null","","","null","79","","","","","","","","","","","","","","","NaN",""
"","S1","","html-keyboard-response","523","561451","0.0-1.0-722.0","0","0","14860","","null","","","null","80","","","","","","","","","","","","","","","",""
"","ISI","","html-keyboard-response","524","563462","0.0-1.0-723.0","0","0","14860","","null","","","null","80","NaN","","","","","","","","","","","","","","",""
"","S2","","html-keyboard-response","525","563622","0.0-1.0-724.0","0","0","14860","","null","","","null","80","","NaN","","","","","","","","","","","","","",""
"","response","","html-keyboard-response","526","563921","0.0-1.0-725.0-0.0","0","0","14860","","296","","","75","80","","","2","80","training","adjacent","BA","2","1","P.jpg","O.jpg","0","0","1","",""
"","feedback","","html-keyboard-response","527","564929","0.0-1.0-726.0-0.0","0","0","14860","","null","","","null","80","","","","","","","","","","","","","","","",""
"","ITI","","html-keyboard-response","528","565935","0.0-1.0-729.0","0","0","14860","","null","","","null","80","","","","","","","","","","","","","","","NaN",""
"","S1","","html-keyboard-response","529","566096","0.0-1.0-731.0","0","0","14860","","null","","","null","81","","","","","","","","","","","","","","","",""
"","ISI","","html-keyboard-response","530","568107","0.0-1.0-732.0","0","0","14860","","null","","","null","81","NaN","","","","","","","","","","","","","","",""
"","S2","","html-keyboard-response","531","568268","0.0-1.0-733.0","0","0","14860","","null","","","null","81","","NaN","","","","","","","","","","","","","",""
"","response","","html-keyboard-response","532","568792","0.0-1.0-734.0-0.0","0","0","14860","","521","","","75","81","","","2","81","training","adjacent","BC","2","3","P.jpg","Q.jpg","0","1","0","",""
"","feedback","","html-keyboard-response","533","569801","0.0-1.0-735.0-0.0","0","0","14860","","null","","","null","81","","","","","","","","","","","","","","","",""
"","time_out","","html-keyboard-response","534","571814","0.0-1.0-737.0-0.0","0","0","14860","","null","","","null","81","","","","","","","","","","","","","","","",""
"","ITI","","html-keyboard-response","535","572822","0.0-1.0-738.0","0","0","14860","","null","","","null","81","","","","","","","","","","","","","","","NaN",""
"","S1","","html-keyboard-response","536","572982","0.0-1.0-740.0","0","0","14860","","null","","","null","82","","","","","","","","","","","","","","","",""
"","ISI","","html-keyboard-response","537","574993","0.0-1.0-741.0","0","0","14860","","null","","","null","82","NaN","","","","","","","","","","","","","","",""
"","S2","","html-keyboard-response","538","575154","0.0-1.0-742.0","0","0","14860","","null","","","null","82","","NaN","","","","","","","","","","","","","",""
"","response","","html-keyboard-response","539","575688","0.0-1.0-743.0-0.0","0","0","14860","","531","","","75","82","","","2","82","training","adjacent","GF","7","6","L.jpg","R.jpg","0","0","1","",""
"","feedback","","html-keyboard-response","540","576702","0.0-1.0-744.0-0.0","0","0","14860","","null","","","null","82","","","","","","","","","","","","","","","",""
"","ITI","","html-keyboard-response","541","577706","0.0-1.0-747.0","0","0","14860","","null","","","null","82","","","","","","","","","","","","","","","NaN",""
"","S1","","html-keyboard-response","542","577865","0.0-1.0-749.0","0","0","14860","","null","","","null","83","","","","","","","","","","","","","","","",""
"","ISI","","html-keyboard-response","543","579880","0.0-1.0-750.0","0","0","14860","","null","","","null","83","NaN","","","","","","","","","","","","","","",""
"","S2","","html-keyboard-response","544","580039","0.0-1.0-751.0","0","0","14860","","null","","","null","83","","NaN","","","","","","","","","","","","","",""
"","response","","html-keyboard-response","545","580629","0.0-1.0-752.0-0.0","0","0","14860","","588","","","75","83","","","2","83","training","adjacent","CB","3","2","Q.jpg","P.jpg","0","0","1","",""
"","feedback","","html-keyboard-response","546","581638","0.0-1.0-753.0-0.0","0","0","14860","","null","","","null","83","","","","","","","","","","","","","","","",""
"","ITI","","html-keyboard-response","547","582644","0.0-1.0-756.0","0","0","14860","","null","","","null","83","","","","","","","","","","","","","","","NaN",""
"","S1","","html-keyboard-response","548","582804","0.0-1.0-758.0","0","0","14860","","null","","","null","84","","","","","","","","","","","","","","","",""
"","ISI","","html-keyboard-response","549","584814","0.0-1.0-759.0","0","0","14860","","null","","","null","84","NaN","","","","","","","","","","","","","","",""
"","S2","","html-keyboard-response","550","584975","0.0-1.0-760.0","0","0","14860","","null","","","null","84","","NaN","","","","","","","","","","","","","",""
"","response","","html-keyboard-response","551","585537","0.0-1.0-761.0-0.0","0","0","14860","","558","","","68","84","","","2","84","training","adjacent","EF","5","6","N.jpg","R.jpg","1","1","1","",""
"","feedback","","html-keyboard-response","552","586542","0.0-1.0-762.0-0.0","0","0","14860","","null","","","null","84","","","","","","","","","","","","","","","",""
"","ITI","","html-keyboard-response","553","587560","0.0-1.0-765.0","0","0","14860","","null","","","null","84","","","","","","","","","","","","","","","NaN",""
"","S1","","html-keyboard-response","554","587720","0.0-1.0-767.0","0","0","14860","","null","","","null","85","","","","","","","","","","","","","","","",""
"","ISI","","html-keyboard-response","555","589732","0.0-1.0-768.0","0","0","14860","","null","","","null","85","NaN","","","","","","","","","","","","","","",""
"","S2","","html-keyboard-response","556","589891","0.0-1.0-769.0","0","0","14860","","null","","","null","85","","NaN","","","","","","","","","","","","","",""
"","response","","html-keyboard-response","557","590391","0.0-1.0-770.0-0.0","0","0","14860","","498","","","68","85","","","2","85","training","adjacent","EF","5","6","N.jpg","R.jpg","1","1","1","",""
"","feedback","","html-keyboard-response","558","591409","0.0-1.0-771.0-0.0","0","0","14860","","null","","","null","85","","","","","","","","","","","","","","","",""
"","ITI","","html-keyboard-response","559","592417","0.0-1.0-774.0","0","0","14860","","null","","","null","85","","","","","","","","","","","","","","","NaN",""
"","S1","","html-keyboard-response","560","592578","0.0-1.0-776.0","0","0","14860","","null","","","null","86","","","","","","","","","","","","","","","",""
"","ISI","","html-keyboard-response","561","594594","0.0-1.0-777.0","0","0","14860","","null","","","null","86","NaN","","","","","","","","","","","","","","",""
"","S2","","html-keyboard-response","562","594754","0.0-1.0-778.0","0","0","14860","","null","","","null","86","","NaN","","","","","","","","","","","","","",""
"","response","","html-keyboard-response","563","595340","0.0-1.0-779.0-0.0","0","0","14860","","584","","","68","86","","","2","86","training","adjacent","ED","5","4","N.jpg","M.jpg","1","0","0","",""
"","feedback","","html-keyboard-response","564","596347","0.0-1.0-780.0-0.0","0","0","14860","","null","","","null","86","","","","","","","","","","","","","","","",""
"","time_out","","html-keyboard-response","565","598352","0.0-1.0-782.0-0.0","0","0","14860","","null","","","null","86","","","","","","","","","","","","","","","",""
"","ITI","","html-keyboard-response","566","599355","0.0-1.0-783.0","0","0","14860","","null","","","null","86","","","","","","","","","","","","","","","NaN",""
"","S1","","html-keyboard-response","567","599515","0.0-1.0-785.0","0","0","14860","","null","","","null","87","","","","","","","","","","","","","","","",""
"","ISI","","html-keyboard-response","568","601527","0.0-1.0-786.0","0","0","14860","","null","","","null","87","NaN","","","","","","","","","","","","","","",""
"","S2","","html-keyboard-response","569","601687","0.0-1.0-787.0","0","0","14860","","null","","","null","87","","NaN","","","","","","","","","","","","","",""
"","response","","html-keyboard-response","570","602360","0.0-1.0-788.0-0.0","0","0","14860","","670","","","68","87","","","2","87","training","adjacent","CD","3","4","Q.jpg","M.jpg","1","1","1","",""
"","feedback","","html-keyboard-response","571","603365","0.0-1.0-789.0-0.0","0","0","14860","","null","","","null","87","","","","","","","","","","","","","","","",""
"","ITI","","html-keyboard-response","572","604377","0.0-1.0-792.0","0","0","14860","","null","","","null","87","","","","","","","","","","","","","","","NaN",""
"","S1","","html-keyboard-response","573","604536","0.0-1.0-794.0","0","0","14860","","null","","","null","88","","","","","","","","","","","","","","","",""
"","ISI","","html-keyboard-response","574","606550","0.0-1.0-795.0","0","0","14860","","null","","","null","88","NaN","","","","","","","","","","","","","","",""
"","S2","","html-keyboard-response","575","606709","0.0-1.0-796.0","0","0","14860","","null","","","null","88","","NaN","","","","","","","","","","","","","",""
"","response","","html-keyboard-response","576","607384","0.0-1.0-797.0-0.0","0","0","14860","","672","","","75","88","","","2","88","training","adjacent","ED","5","4","N.jpg","M.jpg","0","0","1","",""
"","feedback","","html-keyboard-response","577","608399","0.0-1.0-798.0-0.0","0","0","14860","","null","","","null","88","","","","","","","","","","","","","","","",""
"","ITI","","html-keyboard-response","578","609415","0.0-1.0-801.0","0","0","14860","","null","","","null","88","","","","","","","","","","","","","","","NaN",""
"","S1","","html-keyboard-response","579","609576","0.0-1.0-803.0","0","0","14860","","null","","","null","89","","","","","","","","","","","","","","","",""
"","ISI","","html-keyboard-response","580","611588","0.0-1.0-804.0","0","0","14860","","null","","","null","89","NaN","","","","","","","","","","","","","","",""
