"success","ttype","start_time","trial_type","trial_index","time_elapsed","internal_node_id","warning","missed_checkup","PID","view_history","rt","responses","repeat_instructions","key_press","index","keypress_isi","keypress_S2","block","trial_num","phase","group_type","pair_type","S1_stim","S2_stim","S1_img","S2_img","S1_chosen","S1_higher","accuracy","keypress_iti","total_bonus_tally"
"true","full_screen","d08012022hr2206","fullscreen","0","5595163","0.0-0.0","0","0","57161","","","","","","","","","","","","","","","","","","","","","",""
"","instructions","","instructions","1","5616003","0.0-1.0-0.0-0.0","0","0","57161","[{""page_index"":0,""viewing_time"":2571},{""page_index"":1,""viewing_time"":12984},{""page_index"":2,""viewing_time"":4280},{""page_index"":3,""viewing_time"":1000}]","20836","","","","","","","","","","","","","","","","","","","",""
"","comprehension_check","","survey-multi-choice","2","5628505","0.0-1.0-0.0-1.0","0","0","57161","","12496","{""Q0"":""True"",""Q1"":""K"",""Q2"":""When you see the prompt 'MAKE A CHOICE' after the second image was presented"",""Q3"":""Green mark"",""Q4"":""either D or K""}","0","","","","","","","","","","","","","","","","","",""
"","start_exp","","html-keyboard-response","3","5629615","0.0-1.0-1.0","0","0","57161","","1104","","","32","","","","","","","","","","","","","","","","",""
"","S1","","html-keyboard-response","4","5629876","0.0-1.0-2.0","0","0","57161","","null","","","null","0","","","","","","","","","","","","","","","",""
"","ISI","","html-keyboard-response","5","5631879","0.0-1.0-3.0","0","0","57161","","null","","","null","0","NaN","","","","","","","","","","","","","","",""
"","S2","","html-keyboard-response","6","5632136","0.0-1.0-4.0","0","0","57161","","null","","","null","0","","NaN","","","","","","","","","","","","","",""
"","response","","html-keyboard-response","7","5632681","0.0-1.0-5.0","0","0","57161","","542","","","75","0","","","1","0","training","adjacent","BA","2","1","R.jpg","P.jpg","1","0","0","",""
"","feedback","","html-keyboard-response","8","5633687","0.0-1.0-6.0-0.0","0","0","57161","","null","","","null","0","","","","","","","","","","","","","","","",""
"","time_out","","html-keyboard-response","9","5635694","0.0-1.0-8.0-0.0","0","0","57161","","null","","","null","0","","","","","","","","","","","","","","","",""
"","ITI","","html-keyboard-response","10","5636702","0.0-1.0-9.0","0","0","57161","","null","","","null","0","","","","","","","","","","","","","","","NaN",""
"","S1","","html-keyboard-response","11","5636958","0.0-1.0-11.0","0","0","57161","","null","","","null","1","","","","","","","","","","","","","","","",""
"","ISI","","html-keyboard-response","12","5638967","0.0-1.0-12.0","0","0","57161","","null","","","null","1","NaN","","","","","","","","","","","","","","",""
"","S2","","html-keyboard-response","13","5639223","0.0-1.0-13.0","0","0","57161","","null","","","null","1","","NaN","","","","","","","","","","","","","",""
"","response","","html-keyboard-response","14","5639470","0.0-1.0-14.0","0","0","57161","","244","","","68","1","","","1","1","training","adjacent","DC","4","3","M.jpg","N.jpg","0","0","1","",""
"","feedback","","html-keyboard-response","15","5640480","0.0-1.0-15.0-0.0","0","0","57161","","null","","","null","1","","","","","","","","","","","","","","","",""
"","ITI","","html-keyboard-response","16","5641482","0.0-1.0-18.0","0","0","57161","","null","","","null","1","","","","","","","","","","","","","","","NaN",""
"","S1","","html-keyboard-response","17","5641737","0.0-1.0-20.0","0","0","57161","","null","","","null","2","","","","","","","","","","","","","","","",""
"","ISI","","html-keyboard-response","18","5643745","0.0-1.0-21.0","0","0","57161","","null","","","null","2","NaN","","","","","","","","","","","","","","",""
"","S2","","html-keyboard-response","19","5644011","0.0-1.0-22.0","0","0","57161","","null","","","null","2","","NaN","","","","","","","","","","","","","",""
"","response","","html-keyboard-response","20","5644388","0.0-1.0-23.0","0","0","57161","","376","","","68","2","","","1","2","training","adjacent","ED","5","4","O.jpg","M.jpg","0","0","1","",""
"","feedback","","html-keyboard-response","21","5645392","0.0-1.0-24.0-0.0","0","0","57161","","null","","","null","2","","","","","","","","","","","","","","","",""
"","ITI","","html-keyboard-response","22","5646398","0.0-1.0-27.0","0","0","57161","","null","","","null","2","","","","","","","","","","","","","","","NaN",""
"","S1","","html-keyboard-response","23","5646658","0.0-1.0-29.0","0","0","57161","","null","","","null","3","","","","","","","","","","","","","","","",""
"","ISI","","html-keyboard-response","24","5648663","0.0-1.0-30.0","0","0","57161","","null","","","null","3","NaN","","","","","","","","","","","","","","",""
"","S2","","html-keyboard-response","25","5648922","0.0-1.0-31.0","0","0","57161","","null","","","null","3","","NaN","","","","","","","","","","","","","",""
"","response","","html-keyboard-response","26","5649378","0.0-1.0-32.0","0","0","57161","","455","","","68","3","","","1","3","training","adjacent","BC","2","3","R.jpg","N.jpg","0","1","0","",""
"","feedback","","html-keyboard-response","27","5650380","0.0-1.0-33.0-0.0","0","0","57161","","null","","","null","3","","","","","","","","","","","","","","","",""
"","time_out","","html-keyboard-response","28","5652383","0.0-1.0-35.0-0.0","0","0","57161","","null","","","null","3","","","","","","","","","","","","","","","",""
"","ITI","","html-keyboard-response","29","5653386","0.0-1.0-36.0","0","0","57161","","null","","","null","3","","","","","","","","","","","","","","","NaN",""
"","S1","","html-keyboard-response","30","5653643","0.0-1.0-38.0","0","0","57161","","null","","","null","4","","","","","","","","","","","","","","","",""
"","ISI","","html-keyboard-response","31","5655652","0.0-1.0-39.0","0","0","57161","","null","","","null","4","NaN","","","","","","","","","","","","","","",""
"","S2","","html-keyboard-response","32","5655910","0.0-1.0-40.0","0","0","57161","","null","","","null","4","","NaN","","","","","","","","","","","","","",""
"","response","","html-keyboard-response","33","5656092","0.0-1.0-41.0","0","0","57161","","180","","","75","4","","","1","4","training","adjacent","FE","6","5","Q.jpg","O.jpg","1","0","0","",""
"","feedback","","html-keyboard-response","34","5657105","0.0-1.0-42.0-0.0","0","0","57161","","null","","","null","4","","","","","","","","","","","","","","","",""
"","time_out","","html-keyboard-response","35","5659108","0.0-1.0-44.0-0.0","0","0","57161","","null","","","null","4","","","","","","","","","","","","","","","",""
"","ITI","","html-keyboard-response","36","5660112","0.0-1.0-45.0","0","0","57161","","null","","","null","4","","","","","","","","","","","","","","","NaN",""
"","S1","","html-keyboard-response","37","5660379","0.0-1.0-47.0","0","0","57161","","null","","","null","5","","","","","","","","","","","","","","","",""
"","ISI","","html-keyboard-response","38","5662389","0.0-1.0-48.0","0","0","57161","","null","","","null","5","NaN","","","","","","","","","","","","","","",""
"","S2","","html-keyboard-response","39","5662647","0.0-1.0-49.0","0","0","57161","","null","","","null","5","","NaN","","","","","","","","","","","","","",""
"","response","","html-keyboard-response","40","5662766","0.0-1.0-50.0","0","0","57161","","116","","","75","5","","","1","5","training","adjacent","BA","2","1","R.jpg","P.jpg","1","0","0","",""
"","feedback","","html-keyboard-response","41","5663776","0.0-1.0-51.0-0.0","0","0","57161","","null","","","null","5","","","","","","","","","","","","","","","",""
"","time_out","","html-keyboard-response","42","5665793","0.0-1.0-53.0-0.0","0","0","57161","","null","","","null","5","","","","","","","","","","","","","","","",""
"","ITI","","html-keyboard-response","43","5666803","0.0-1.0-54.0","0","0","57161","","null","","","null","5","","","","","","","","","","","","","","","NaN",""
"","S1","","html-keyboard-response","44","5667056","0.0-1.0-56.0","0","0","57161","","null","","","null","6","","","","","","","","","","","","","","","",""
"","ISI","","html-keyboard-response","45","5669060","0.0-1.0-57.0","0","0","57161","","null","","","null","6","NaN","","","","","","","","","","","","","","",""
"","S2","","html-keyboard-response","46","5669320","0.0-1.0-58.0","0","0","57161","","null","","","null","6","","NaN","","","","","","","","","","","","","",""
"","response","","html-keyboard-response","47","5670200","0.0-1.0-59.0","0","0","57161","","877","","","68","6","","","1","6","training","adjacent","FG","6","7","Q.jpg","L.jpg","0","1","0","",""
"","feedback","","html-keyboard-response","48","5671206","0.0-1.0-60.0-0.0","0","0","57161","","null","","","null","6","","","","","","","","","","","","","","","",""
"","time_out","","html-keyboard-response","49","5673210","0.0-1.0-62.0-0.0","0","0","57161","","null","","","null","6","","","","","","","","","","","","","","","",""
"","ITI","","html-keyboard-response","50","5674220","0.0-1.0-63.0","0","0","57161","","null","","","null","6","","","","","","","","","","","","","","","NaN",""
"","S1","","html-keyboard-response","51","5674488","0.0-1.0-65.0","0","0","57161","","null","","","null","7","","","","","","","","","","","","","","","",""
"","ISI","","html-keyboard-response","52","5676495","0.0-1.0-66.0","0","0","57161","","603","","","68","7","d","","","","","","","","","","","","","","",""
"","S2","","html-keyboard-response","53","5676754","0.0-1.0-67.0","0","0","57161","","null","","","null","7","","NaN","","","","","","","","","","","","","",""
"","response","","html-keyboard-response","54","5677200","0.0-1.0-68.0","0","0","57161","","441","","","75","7","","","1","7","training","adjacent","BA","2","1","R.jpg","P.jpg","1","0","0","",""
"","feedback","","html-keyboard-response","55","5678205","0.0-1.0-69.0-0.0","0","0","57161","","null","","","null","7","","","","","","","","","","","","","","","",""
"","time_out","","html-keyboard-response","56","5680212","0.0-1.0-71.0-0.0","0","0","57161","","null","","","null","7","","","","","","","","","","","","","","","",""
"","ITI","","html-keyboard-response","57","5681218","0.0-1.0-72.0","0","0","57161","","null","","","null","7","","","","","","","","","","","","","","","NaN",""
"","S1","","html-keyboard-response","58","5681472","0.0-1.0-74.0","0","0","57161","","null","","","null","8","","","","","","","","","","","","","","","",""
"","ISI","","html-keyboard-response","59","5683488","0.0-1.0-75.0","0","0","57161","","630","","","68","8","d","","","","","","","","","","","","","","",""
"","S2","","html-keyboard-response","60","5683748","0.0-1.0-76.0","0","0","57161","","null","","","null","8","","NaN","","","","","","","","","","","","","",""
"","response","","html-keyboard-response","61","5683892","0.0-1.0-77.0","0","0","57161","","142","","","68","8","","","1","8","training","adjacent","AB","1","2","P.jpg","R.jpg","0","1","0","",""
"","feedback","","html-keyboard-response","62","5684903","0.0-1.0-78.0-0.0","0","0","57161","","null","","","null","8","","","","","","","","","","","","","","","",""
"","time_out","","html-keyboard-response","63","5686907","0.0-1.0-80.0-0.0","0","0","57161","","null","","","null","8","","","","","","","","","","","","","","","",""
"","ITI","","html-keyboard-response","64","5687923","0.0-1.0-81.0","0","0","57161","","null","","","null","8","","","","","","","","","","","","","","","NaN",""
"","S1","","html-keyboard-response","65","5688180","0.0-1.0-83.0","0","0","57161","","null","","","null","9","","","","","","","","","","","","","","","",""
"","ISI","","html-keyboard-response","66","5690192","0.0-1.0-84.0","0","0","57161","","null","","","null","9","NaN","","","","","","","","","","","","","","",""
"","S2","","html-keyboard-response","67","5690450","0.0-1.0-85.0","0","0","57161","","null","","","null","9","","NaN","","","","","","","","","","","","","",""
"","response","","html-keyboard-response","68","5690713","0.0-1.0-86.0","0","0","57161","","261","","","75","9","","","1","9","training","adjacent","ED","5","4","O.jpg","M.jpg","1","0","0","",""
"","feedback","","html-keyboard-response","69","5691722","0.0-1.0-87.0-0.0","0","0","57161","","null","","","null","9","","","","","","","","","","","","","","","",""
"","time_out","","html-keyboard-response","70","5693733","0.0-1.0-89.0-0.0","0","0","57161","","null","","","null","9","","","","","","","","","","","","","","","",""
"","ITI","","html-keyboard-response","71","5694737","0.0-1.0-90.0","0","0","57161","","null","","","null","9","","","","","","","","","","","","","","","NaN",""
"","S1","","html-keyboard-response","72","5694991","0.0-1.0-92.0","0","0","57161","","null","","","null","10","","","","","","","","","","","","","","","",""
"","ISI","","html-keyboard-response","73","5696997","0.0-1.0-93.0","0","0","57161","","null","","","null","10","NaN","","","","","","","","","","","","","","",""
"","S2","","html-keyboard-response","74","5697255","0.0-1.0-94.0","0","0","57161","","null","","","null","10","","NaN","","","","","","","","","","","","","",""
"","response","","html-keyboard-response","75","5697677","0.0-1.0-95.0","0","0","57161","","419","","","75","10","","","1","10","training","adjacent","FG","6","7","Q.jpg","L.jpg","1","1","1","",""
"","feedback","","html-keyboard-response","76","5698688","0.0-1.0-96.0-0.0","0","0","57161","","null","","","null","10","","","","","","","","","","","","","","","",""
"","ITI","","html-keyboard-response","77","5699699","0.0-1.0-99.0","0","0","57161","","null","","","null","10","","","","","","","","","","","","","","","NaN",""
"","S1","","html-keyboard-response","78","5699953","0.0-1.0-101.0","0","0","57161","","null","","","null","11","","","","","","","","","","","","","","","",""
"","ISI","","html-keyboard-response","79","5701962","0.0-1.0-102.0","0","0","57161","","null","","","null","11","NaN","","","","","","","","","","","","","","",""
"","S2","","html-keyboard-response","80","5702219","0.0-1.0-103.0","0","0","57161","","null","","","null","11","","NaN","","","","","","","","","","","","","",""
"","response","","html-keyboard-response","81","5702605","0.0-1.0-104.0","0","0","57161","","383","","","75","11","","","1","11","training","adjacent","BA","2","1","R.jpg","P.jpg","1","0","0","",""
"","feedback","","html-keyboard-response","82","5703619","0.0-1.0-105.0-0.0","0","0","57161","","null","","","null","11","","","","","","","","","","","","","","","",""
"","time_out","","html-keyboard-response","83","5705628","0.0-1.0-107.0-0.0","0","0","57161","","null","","","null","11","","","","","","","","","","","","","","","",""
"","ITI","","html-keyboard-response","84","5706632","0.0-1.0-108.0","0","0","57161","","null","","","null","11","","","","","","","","","","","","","","","NaN",""
"","S1","","html-keyboard-response","85","5706886","0.0-1.0-110.0","0","0","57161","","null","","","null","12","","","","","","","","","","","","","","","",""
"","ISI","","html-keyboard-response","86","5708901","0.0-1.0-111.0","0","0","57161","","null","","","null","12","NaN","","","","","","","","","","","","","","",""
"","S2","","html-keyboard-response","87","5709157","0.0-1.0-112.0","0","0","57161","","null","","","null","12","","NaN","","","","","","","","","","","","","",""
"","response","","html-keyboard-response","88","5710595","0.0-1.0-113.0","0","0","57161","","1435","","","68","12","","","1","12","training","adjacent","CB","3","2","N.jpg","R.jpg","0","0","1","",""
"","feedback","","html-keyboard-response","89","5711603","0.0-1.0-114.0-0.0","0","0","57161","","null","","","null","12","","","","","","","","","","","","","","","",""
"","ITI","","html-keyboard-response","90","5712608","0.0-1.0-117.0","0","0","57161","","null","","","null","12","","","","","","","","","","","","","","","NaN",""
"","S1","","html-keyboard-response","91","5712863","0.0-1.0-119.0","0","0","57161","","null","","","null","13","","","","","","","","","","","","","","","",""
"","ISI","","html-keyboard-response","92","5714867","0.0-1.0-120.0","0","0","57161","","null","","","null","13","NaN","","","","","","","","","","","","","","",""
"","S2","","html-keyboard-response","93","5715123","0.0-1.0-121.0","0","0","57161","","null","","","null","13","","NaN","","","","","","","","","","","","","",""
"","response","","html-keyboard-response","94","5716950","0.0-1.0-122.0","0","0","57161","","1825","","","75","13","","","1","13","training","adjacent","FE","6","5","Q.jpg","O.jpg","1","0","0","",""
"","feedback","","html-keyboard-response","95","5717960","0.0-1.0-123.0-0.0","0","0","57161","","null","","","null","13","","","","","","","","","","","","","","","",""
"","time_out","","html-keyboard-response","96","5719970","0.0-1.0-125.0-0.0","0","0","57161","","null","","","null","13","","","","","","","","","","","","","","","",""
"","ITI","","html-keyboard-response","97","5720976","0.0-1.0-126.0","0","0","57161","","null","","","null","13","","","","","","","","","","","","","","","NaN",""
"","S1","","html-keyboard-response","98","5721232","0.0-1.0-128.0","0","0","57161","","null","","","null","14","","","","","","","","","","","","","","","",""
"","ISI","","html-keyboard-response","99","5723237","0.0-1.0-129.0","0","0","57161","","null","","","null","14","NaN","","","","","","","","","","","","","","",""
"","S2","","html-keyboard-response","100","5723498","0.0-1.0-130.0","0","0","57161","","null","","","null","14","","NaN","","","","","","","","","","","","","",""
"","response","","html-keyboard-response","101","5723908","0.0-1.0-131.0","0","0","57161","","407","","","75","14","","","1","14","training","adjacent","DC","4","3","M.jpg","N.jpg","1","0","0","",""
"","feedback","","html-keyboard-response","102","5724925","0.0-1.0-132.0-0.0","0","0","57161","","null","","","null","14","","","","","","","","","","","","","","","",""
"","time_out","","html-keyboard-response","103","5726935","0.0-1.0-134.0-0.0","0","0","57161","","null","","","null","14","","","","","","","","","","","","","","","",""
"","ITI","","html-keyboard-response","104","5727939","0.0-1.0-135.0","0","0","57161","","null","","","null","14","","","","","","","","","","","","","","","NaN",""
"","S1","","html-keyboard-response","105","5728198","0.0-1.0-137.0","0","0","57161","","null","","","null","15","","","","","","","","","","","","","","","",""
"","ISI","","html-keyboard-response","106","5730207","0.0-1.0-138.0","0","0","57161","","null","","","null","15","NaN","","","","","","","","","","","","","","",""
"","S2","","html-keyboard-response","107","5730468","0.0-1.0-139.0","0","0","57161","","null","","","null","15","","NaN","","","","","","","","","","","","","",""
"","response","","html-keyboard-response","108","5730994","0.0-1.0-140.0","0","0","57161","","523","","","68","15","","","1","15","training","adjacent","AB","1","2","P.jpg","R.jpg","0","1","0","",""
"","feedback","","html-keyboard-response","109","5732004","0.0-1.0-141.0-0.0","0","0","57161","","null","","","null","15","","","","","","","","","","","","","","","",""
"","time_out","","html-keyboard-response","110","5734008","0.0-1.0-143.0-0.0","0","0","57161","","null","","","null","15","","","","","","","","","","","","","","","",""
"","ITI","","html-keyboard-response","111","5735017","0.0-1.0-144.0","0","0","57161","","null","","","null","15","","","","","","","","","","","","","","","NaN",""
"","S1","","html-keyboard-response","112","5735272","0.0-1.0-146.0","0","0","57161","","null","","","null","16","","","","","","","","","","","","","","","",""
"","ISI","","html-keyboard-response","113","5737275","0.0-1.0-147.0","0","0","57161","","null","","","null","16","NaN","","","","","","","","","","","","","","",""
"","S2","","html-keyboard-response","114","5737534","0.0-1.0-148.0","0","0","57161","","null","","","null","16","","NaN","","","","","","","","","","","","","",""
"","response","","html-keyboard-response","115","5737649","0.0-1.0-149.0","0","0","57161","","111","","","68","16","","","1","16","training","adjacent","AB","1","2","P.jpg","R.jpg","0","1","0","",""
"","feedback","","html-keyboard-response","116","5738655","0.0-1.0-150.0-0.0","0","0","57161","","null","","","null","16","","","","","","","","","","","","","","","",""
"","time_out","","html-keyboard-response","117","5740664","0.0-1.0-152.0-0.0","0","0","57161","","null","","","null","16","","","","","","","","","","","","","","","",""
"","ITI","","html-keyboard-response","118","5741670","0.0-1.0-153.0","0","0","57161","","null","","","null","16","","","","","","","","","","","","","","","NaN",""
"","S1","","html-keyboard-response","119","5741926","0.0-1.0-155.0","0","0","57161","","null","","","null","17","","","","","","","","","","","","","","","",""
"","ISI","","html-keyboard-response","120","5743933","0.0-1.0-156.0","0","0","57161","","452","","","75","17","k","","","","","","","","","","","","","","",""
"","S2","","html-keyboard-response","121","5744193","0.0-1.0-157.0","0","0","57161","","null","","","null","17","","NaN","","","","","","","","","","","","","",""
"","response","","html-keyboard-response","122","5744320","0.0-1.0-158.0","0","0","57161","","124","","","75","17","","","1","17","training","adjacent","AB","1","2","P.jpg","R.jpg","1","1","1","",""
"","feedback","","html-keyboard-response","123","5745325","0.0-1.0-159.0-0.0","0","0","57161","","null","","","null","17","","","","","","","","","","","","","","","",""
"","ITI","","html-keyboard-response","124","5746335","0.0-1.0-162.0","0","0","57161","","null","","","null","17","","","","","","","","","","","","","","","NaN",""
"","S1","","html-keyboard-response","125","5746593","0.0-1.0-164.0","0","0","57161","","null","","","null","18","","","","","","","","","","","","","","","",""
"","ISI","","html-keyboard-response","126","5748602","0.0-1.0-165.0","0","0","57161","","null","","","null","18","NaN","","","","","","","","","","","","","","",""
"","S2","","html-keyboard-response","127","5748854","0.0-1.0-166.0","0","0","57161","","null","","","null","18","","NaN","","","","","","","","","","","","","",""
"","response","","html-keyboard-response","128","5749708","0.0-1.0-167.0","0","0","57161","","851","","","68","18","","","1","18","training","adjacent","DC","4","3","M.jpg","N.jpg","0","0","1","",""
"","feedback","","html-keyboard-response","129","5750711","0.0-1.0-168.0-0.0","0","0","57161","","null","","","null","18","","","","","","","","","","","","","","","",""
"","ITI","","html-keyboard-response","130","5751718","0.0-1.0-171.0","0","0","57161","","null","","","null","18","","","","","","","","","","","","","","","NaN",""
"","S1","","html-keyboard-response","131","5751973","0.0-1.0-173.0","0","0","57161","","null","","","null","19","","","","","","","","","","","","","","","",""
"","ISI","","html-keyboard-response","132","5753979","0.0-1.0-174.0","0","0","57161","","null","","","null","19","NaN","","","","","","","","","","","","","","",""
"","S2","","html-keyboard-response","133","5754234","0.0-1.0-175.0","0","0","57161","","null","","","null","19","","NaN","","","","","","","","","","","","","",""
"","response","","html-keyboard-response","134","5754622","0.0-1.0-176.0","0","0","57161","","386","","","75","19","","","1","19","training","adjacent","DE","4","5","M.jpg","O.jpg","1","1","1","",""
"","feedback","","html-keyboard-response","135","5755631","0.0-1.0-177.0-0.0","0","0","57161","","null","","","null","19","","","","","","","","","","","","","","","",""
"","ITI","","html-keyboard-response","136","5756641","0.0-1.0-180.0","0","0","57161","","null","","","null","19","","","","","","","","","","","","","","","NaN",""
"","S1","","html-keyboard-response","137","5756905","0.0-1.0-182.0","0","0","57161","","null","","","null","20","","","","","","","","","","","","","","","",""
"","ISI","","html-keyboard-response","138","5758913","0.0-1.0-183.0","0","0","57161","","null","","","null","20","NaN","","","","","","","","","","","","","","",""
"","S2","","html-keyboard-response","139","5759166","0.0-1.0-184.0","0","0","57161","","null","","","null","20","","NaN","","","","","","","","","","","","","",""
"","response","","html-keyboard-response","140","5759285","0.0-1.0-185.0","0","0","57161","","117","","","75","20","","","1","20","training","adjacent","CD","3","4","N.jpg","M.jpg","1","1","1","",""
"","feedback","","html-keyboard-response","141","5760289","0.0-1.0-186.0-0.0","0","0","57161","","null","","","null","20","","","","","","","","","","","","","","","",""
"","ITI","","html-keyboard-response","142","5761293","0.0-1.0-189.0","0","0","57161","","null","","","null","20","","","","","","","","","","","","","","","NaN",""
"","S1","","html-keyboard-response","143","5761552","0.0-1.0-191.0","0","0","57161","","null","","","null","21","","","","","","","","","","","","","","","",""
"","ISI","","html-keyboard-response","144","5763562","0.0-1.0-192.0","0","0","57161","","null","","","null","21","NaN","","","","","","","","","","","","","","",""
"","S2","","html-keyboard-response","145","5763816","0.0-1.0-193.0","0","0","57161","","null","","","null","21","","NaN","","","","","","","","","","","","","",""
"","response","","html-keyboard-response","146","5764037","0.0-1.0-194.0","0","0","57161","","219","","","68","21","","","1","21","training","adjacent","EF","5","6","O.jpg","Q.jpg","0","1","0","",""
"","feedback","","html-keyboard-response","147","5765042","0.0-1.0-195.0-0.0","0","0","57161","","null","","","null","21","","","","","","","","","","","","","","","",""
"","time_out","","html-keyboard-response","148","5767052","0.0-1.0-197.0-0.0","0","0","57161","","null","","","null","21","","","","","","","","","","","","","","","",""
"","ITI","","html-keyboard-response","149","5768057","0.0-1.0-198.0","0","0","57161","","null","","","null","21","","","","","","","","","","","","","","","NaN",""
"","S1","","html-keyboard-response","150","5768309","0.0-1.0-200.0","0","0","57161","","null","","","null","22","","","","","","","","","","","","","","","",""
"","ISI","","html-keyboard-response","151","5770315","0.0-1.0-201.0","0","0","57161","","null","","","null","22","NaN","","","","","","","","","","","","","","",""
"","S2","","html-keyboard-response","152","5770571","0.0-1.0-202.0","0","0","57161","","null","","","null","22","","NaN","","","","","","","","","","","","","",""
"","response","","html-keyboard-response","153","5771632","0.0-1.0-203.0","0","0","57161","","1057","","","68","22","","","1","22","training","adjacent","DC","4","3","M.jpg","N.jpg","0","0","1","",""
"","feedback","","html-keyboard-response","154","5772640","0.0-1.0-204.0-0.0","0","0","57161","","null","","","null","22","","","","","","","","","","","","","","","",""
"","ITI","","html-keyboard-response","155","5773645","0.0-1.0-207.0","0","0","57161","","null","","","null","22","","","","","","","","","","","","","","","NaN",""
"","S1","","html-keyboard-response","156","5773900","0.0-1.0-209.0","0","0","57161","","null","","","null","23","","","","","","","","","","","","","","","",""
"","ISI","","html-keyboard-response","157","5775912","0.0-1.0-210.0","0","0","57161","","null","","","null","23","NaN","","","","","","","","","","","","","","",""
"","S2","","html-keyboard-response","158","5776166","0.0-1.0-211.0","0","0","57161","","null","","","null","23","","NaN","","","","","","","","","","","","","",""
"","response","","html-keyboard-response","159","5776468","0.0-1.0-212.0","0","0","57161","","298","","","75","23","","","1","23","training","adjacent","DE","4","5","M.jpg","O.jpg","1","1","1","",""
"","feedback","","html-keyboard-response","160","5777479","0.0-1.0-213.0-0.0","0","0","57161","","null","","","null","23","","","","","","","","","","","","","","","",""
"","ITI","","html-keyboard-response","161","5778485","0.0-1.0-216.0","0","0","57161","","null","","","null","23","","","","","","","","","","","","","","","NaN",""
"","S1","","html-keyboard-response","162","5778740","0.0-1.0-218.0","0","0","57161","","null","","","null","24","","","","","","","","","","","","","","","",""
"","ISI","","html-keyboard-response","163","5780746","0.0-1.0-219.0","0","0","57161","","null","","","null","24","NaN","","","","","","","","","","","","","","",""
"","S2","","html-keyboard-response","164","5781002","0.0-1.0-220.0","0","0","57161","","null","","","null","24","","NaN","","","","","","","","","","","","","",""
"","response","","html-keyboard-response","165","5782011","0.0-1.0-221.0","0","0","57161","","1006","","","68","24","","","1","24","training","adjacent","CD","3","4","N.jpg","M.jpg","0","1","0","",""
"","feedback","","html-keyboard-response","166","5783018","0.0-1.0-222.0-0.0","0","0","57161","","null","","","null","24","","","","","","","","","","","","","","","",""
"","time_out","","html-keyboard-response","167","5785028","0.0-1.0-224.0-0.0","0","0","57161","","null","","","null","24","","","","","","","","","","","","","","","",""
"","ITI","","html-keyboard-response","168","5786030","0.0-1.0-225.0","0","0","57161","","null","","","null","24","","","","","","","","","","","","","","","NaN",""
"","S1","","html-keyboard-response","169","5786285","0.0-1.0-227.0","0","0","57161","","null","","","null","25","","","","","","","","","","","","","","","",""
"","ISI","","html-keyboard-response","170","5788293","0.0-1.0-228.0","0","0","57161","","null","","","null","25","NaN","","","","","","","","","","","","","","",""
"","S2","","html-keyboard-response","171","5788552","0.0-1.0-229.0","0","0","57161","","null","","","null","25","","NaN","","","","","","","","","","","","","",""
"","response","","html-keyboard-response","172","5790199","0.0-1.0-230.0","0","0","57161","","1645","","","68","25","","","1","25","training","adjacent","EF","5","6","O.jpg","Q.jpg","0","1","0","",""
"","feedback","","html-keyboard-response","173","5791207","0.0-1.0-231.0-0.0","0","0","57161","","null","","","null","25","","","","","","","","","","","","","","","",""
"","time_out","","html-keyboard-response","174","5793213","0.0-1.0-233.0-0.0","0","0","57161","","null","","","null","25","","","","","","","","","","","","","","","",""
"","ITI","","html-keyboard-response","175","5794218","0.0-1.0-234.0","0","0","57161","","null","","","null","25","","","","","","","","","","","","","","","NaN",""
"","S1","","html-keyboard-response","176","5794475","0.0-1.0-236.0","0","0","57161","","null","","","null","26","","","","","","","","","","","","","","","",""
"","ISI","","html-keyboard-response","177","5796485","0.0-1.0-237.0","0","0","57161","","null","","","null","26","NaN","","","","","","","","","","","","","","",""
"","S2","","html-keyboard-response","178","5796744","0.0-1.0-238.0","0","0","57161","","null","","","null","26","","NaN","","","","","","","","","","","","","",""
"","response","","html-keyboard-response","179","5797498","0.0-1.0-239.0","0","0","57161","","750","","","75","26","","","1","26","training","adjacent","FG","6","7","Q.jpg","L.jpg","1","1","1","",""
"","feedback","","html-keyboard-response","180","5798505","0.0-1.0-240.0-0.0","0","0","57161","","null","","","null","26","","","","","","","","","","","","","","","",""
"","ITI","","html-keyboard-response","181","5799508","0.0-1.0-243.0","0","0","57161","","null","","","null","26","","","","","","","","","","","","","","","NaN",""
"","S1","","html-keyboard-response","182","5799761","0.0-1.0-245.0","0","0","57161","","null","","","null","27","","","","","","","","","","","","","","","",""
"","ISI","","html-keyboard-response","183","5801769","0.0-1.0-246.0","0","0","57161","","null","","","null","27","NaN","","","","","","","","","","","","","","",""
"","S2","","html-keyboard-response","184","5802028","0.0-1.0-247.0","0","0","57161","","null","","","null","27","","NaN","","","","","","","","","","","","","",""
"","response","","html-keyboard-response","185","5802665","0.0-1.0-248.0","0","0","57161","","634","","","75","27","","","1","27","training","adjacent","GF","7","6","L.jpg","Q.jpg","1","0","0","",""
"","feedback","","html-keyboard-response","186","5803673","0.0-1.0-249.0-0.0","0","0","57161","","null","","","null","27","","","","","","","","","","","","","","","",""
"","time_out","","html-keyboard-response","187","5805676","0.0-1.0-251.0-0.0","0","0","57161","","null","","","null","27","","","","","","","","","","","","","","","",""
"","ITI","","html-keyboard-response","188","5806680","0.0-1.0-252.0","0","0","57161","","918","","","68","27","","","","","","","","","","","","","","","d",""
"","S1","","html-keyboard-response","189","5806935","0.0-1.0-254.0","0","0","57161","","null","","","null","28","","","","","","","","","","","","","","","",""
"","ISI","","html-keyboard-response","190","5808939","0.0-1.0-255.0","0","0","57161","","null","","","null","28","NaN","","","","","","","","","","","","","","",""
"","S2","","html-keyboard-response","191","5809194","0.0-1.0-256.0","0","0","57161","","null","","","null","28","","NaN","","","","","","","","","","","","","",""
"","response","","html-keyboard-response","192","5809992","0.0-1.0-257.0","0","0","57161","","794","","","75","28","","","1","28","training","adjacent","CB","3","2","N.jpg","R.jpg","1","0","0","",""
"","feedback","","html-keyboard-response","193","5810996","0.0-1.0-258.0-0.0","0","0","57161","","null","","","null","28","","","","","","","","","","","","","","","",""
"","time_out","","html-keyboard-response","194","5813011","0.0-1.0-260.0-0.0","0","0","57161","","null","","","null","28","","","","","","","","","","","","","","","",""
"","ITI","","html-keyboard-response","195","5814026","0.0-1.0-261.0","0","0","57161","","null","","","null","28","","","","","","","","","","","","","","","NaN",""
"","S1","","html-keyboard-response","196","5814285","0.0-1.0-263.0","0","0","57161","","null","","","null","29","","","","","","","","","","","","","","","",""
"","ISI","","html-keyboard-response","197","5816291","0.0-1.0-264.0","0","0","57161","","null","","","null","29","NaN","","","","","","","","","","","","","","",""
"","S2","","html-keyboard-response","198","5816549","0.0-1.0-265.0","0","0","57161","","null","","","null","29","","NaN","","","","","","","","","","","","","",""
"","response","","html-keyboard-response","199","5817478","0.0-1.0-266.0","0","0","57161","","927","","","68","29","","","1","29","training","adjacent","ED","5","4","O.jpg","M.jpg","0","0","1","",""
"","feedback","","html-keyboard-response","200","5818482","0.0-1.0-267.0-0.0","0","0","57161","","null","","","null","29","","","","","","","","","","","","","","","",""
"","ITI","","html-keyboard-response","201","5819486","0.0-1.0-270.0","0","0","57161","","null","","","null","29","","","","","","","","","","","","","","","NaN",""
"","S1","","html-keyboard-response","202","5819746","0.0-1.0-272.0","0","0","57161","","null","","","null","30","","","","","","","","","","","","","","","",""
"","ISI","","html-keyboard-response","203","5821755","0.0-1.0-273.0","0","0","57161","","null","","","null","30","NaN","","","","","","","","","","","","","","",""
"","S2","","html-keyboard-response","204","5822008","0.0-1.0-274.0","0","0","57161","","null","","","null","30","","NaN","","","","","","","","","","","","","",""
"","response","","html-keyboard-response","205","5822615","0.0-1.0-275.0","0","0","57161","","604","","","68","30","","","1","30","training","adjacent","DE","4","5","M.jpg","O.jpg","0","1","0","",""
"","feedback","","html-keyboard-response","206","5823625","0.0-1.0-276.0-0.0","0","0","57161","","null","","","null","30","","","","","","","","","","","","","","","",""
"","time_out","","html-keyboard-response","207","5825629","0.0-1.0-278.0-0.0","0","0","57161","","null","","","null","30","","","","","","","","","","","","","","","",""
"","ITI","","html-keyboard-response","208","5826633","0.0-1.0-279.0","0","0","57161","","null","","","null","30","","","","","","","","","","","","","","","NaN",""
"","S1","","html-keyboard-response","209","5826888","0.0-1.0-281.0","0","0","57161","","null","","","null","31","","","","","","","","","","","","","","","",""
"","ISI","","html-keyboard-response","210","5828893","0.0-1.0-282.0","0","0","57161","","null","","","null","31","NaN","","","","","","","","","","","","","","",""
"","S2","","html-keyboard-response","211","5829156","0.0-1.0-283.0","0","0","57161","","132","","","75","31","","k","","","","","","","","","","","","","",""
"","response","","html-keyboard-response","212","5831170","0.0-1.0-284.0","0","0","57161","","null","","","null","31","","","1","31","training","adjacent","GF","7","6","L.jpg","Q.jpg","NaN","0","0","",""
"","too_slow_prompt","","html-keyboard-response","213","5832187","0.0-1.0-286.0-0.0","1","0","57161","","null","","","null","","","","","","","","","","","","","","","","",""
"","time_out","","html-keyboard-response","214","5834191","0.0-1.0-287.0-0.0","0","0","57161","","null","","","null","31","","","","","","","","","","","","","","","",""
"","ITI","","html-keyboard-response","215","5835202","0.0-1.0-288.0","0","0","57161","","null","","","null","31","","","","","","","","","","","","","","","NaN",""
"","S1","","html-keyboard-response","216","5835463","0.0-1.0-290.0","0","0","57161","","null","","","null","32","","","","","","","","","","","","","","","",""
"","ISI","","html-keyboard-response","217","5837467","0.0-1.0-291.0","0","0","57161","","null","","","null","32","NaN","","","","","","","","","","","","","","",""
"","S2","","html-keyboard-response","218","5837723","0.0-1.0-292.0","0","0","57161","","null","","","null","32","","NaN","","","","","","","","","","","","","",""
"","response","","html-keyboard-response","219","5839091","0.0-1.0-293.0","0","0","57161","","1365","","","75","32","","","1","32","training","adjacent","EF","5","6","O.jpg","Q.jpg","1","1","1","",""
"","feedback","","html-keyboard-response","220","5840103","0.0-1.0-294.0-0.0","0","0","57161","","null","","","null","32","","","","","","","","","","","","","","","",""
"","ITI","","html-keyboard-response","221","5841119","0.0-1.0-297.0","0","0","57161","","null","","","null","32","","","","","","","","","","","","","","","NaN",""
"","S1","","html-keyboard-response","222","5841378","0.0-1.0-299.0","0","0","57161","","null","","","null","33","","","","","","","","","","","","","","","",""
"","ISI","","html-keyboard-response","223","5843384","0.0-1.0-300.0","0","0","57161","","1543","","","87","33","w","","","","","","","","","","","","","","",""
"","S2","","html-keyboard-response","224","5843643","0.0-1.0-301.0","0","0","57161","","null","","","null","33","","NaN","","","","","","","","","","","","","",""
"","response","","html-keyboard-response","225","5844869","0.0-1.0-302.0","0","0","57161","","1223","","","68","33","","","1","33","training","adjacent","BC","2","3","R.jpg","N.jpg","0","1","0","",""
"","feedback","","html-keyboard-response","226","5845880","0.0-1.0-303.0-0.0","0","0","57161","","null","","","null","33","","","","","","","","","","","","","","","",""
"","time_out","","html-keyboard-response","227","5847891","0.0-1.0-305.0-0.0","0","0","57161","","null","","","null","33","","","","","","","","","","","","","","","",""
"","ITI","","html-keyboard-response","228","5848901","0.0-1.0-306.0","0","0","57161","","null","","","null","33","","","","","","","","","","","","","","","NaN",""
"","S1","","html-keyboard-response","229","5849158","0.0-1.0-308.0","0","0","57161","","null","","","null","34","","","","","","","","","","","","","","","",""
"","ISI","","html-keyboard-response","230","5851165","0.0-1.0-309.0","0","0","57161","","null","","","null","34","NaN","","","","","","","","","","","","","","",""
"","S2","","html-keyboard-response","231","5851422","0.0-1.0-310.0","0","0","57161","","null","","","null","34","","NaN","","","","","","","","","","","","","",""
"","response","","html-keyboard-response","232","5851547","0.0-1.0-311.0","0","0","57161","","123","","","68","34","","","1","34","training","adjacent","BC","2","3","R.jpg","N.jpg","0","1","0","",""
"","feedback","","html-keyboard-response","233","5852563","0.0-1.0-312.0-0.0","0","0","57161","","null","","","null","34","","","","","","","","","","","","","","","",""
"","time_out","","html-keyboard-response","234","5854569","0.0-1.0-314.0-0.0","0","0","57161","","null","","","null","34","","","","","","","","","","","","","","","",""
"","ITI","","html-keyboard-response","235","5855573","0.0-1.0-315.0","0","0","57161","","null","","","null","34","","","","","","","","","","","","","","","NaN",""
"","S1","","html-keyboard-response","236","5855830","0.0-1.0-317.0","0","0","57161","","null","","","null","35","","","","","","","","","","","","","","","",""
"","ISI","","html-keyboard-response","237","5857842","0.0-1.0-318.0","0","0","57161","","null","","","null","35","NaN","","","","","","","","","","","","","","",""
"","S2","","html-keyboard-response","238","5858101","0.0-1.0-319.0","0","0","57161","","null","","","null","35","","NaN","","","","","","","","","","","","","",""
"","response","","html-keyboard-response","239","5858529","0.0-1.0-320.0","0","0","57161","","426","","","75","35","","","1","35","training","adjacent","BC","2","3","R.jpg","N.jpg","1","1","1","",""
"","feedback","","html-keyboard-response","240","5859537","0.0-1.0-321.0-0.0","0","0","57161","","null","","","null","35","","","","","","","","","","","","","","","",""
"","ITI","","html-keyboard-response","241","5860548","0.0-1.0-324.0","0","0","57161","","null","","","null","35","","","","","","","","","","","","","","","NaN",""
"","S1","","html-keyboard-response","242","5860802","0.0-1.0-326.0","0","0","57161","","null","","","null","36","","","","","","","","","","","","","","","",""
"","ISI","","html-keyboard-response","243","5862814","0.0-1.0-327.0","0","0","57161","","null","","","null","36","NaN","","","","","","","","","","","","","","",""
"","S2","","html-keyboard-response","244","5863071","0.0-1.0-328.0","0","0","57161","","null","","","null","36","","NaN","","","","","","","","","","","","","",""
"","response","","html-keyboard-response","245","5863416","0.0-1.0-329.0","0","0","57161","","343","","","68","36","","","1","36","training","adjacent","CD","3","4","N.jpg","M.jpg","0","1","0","",""
"","feedback","","html-keyboard-response","246","5864424","0.0-1.0-330.0-0.0","0","0","57161","","null","","","null","36","","","","","","","","","","","","","","","",""
"","time_out","","html-keyboard-response","247","5866429","0.0-1.0-332.0-0.0","0","0","57161","","null","","","null","36","","","","","","","","","","","","","","","",""
"","ITI","","html-keyboard-response","248","5867433","0.0-1.0-333.0","0","0","57161","","null","","","null","36","","","","","","","","","","","","","","","NaN",""
"","S1","","html-keyboard-response","249","5867689","0.0-1.0-335.0","0","0","57161","","null","","","null","37","","","","","","","","","","","","","","","",""
"","ISI","","html-keyboard-response","250","5869698","0.0-1.0-336.0","0","0","57161","","null","","","null","37","NaN","","","","","","","","","","","","","","",""
"","S2","","html-keyboard-response","251","5869956","0.0-1.0-337.0","0","0","57161","","null","","","null","37","","NaN","","","","","","","","","","","","","",""
"","response","","html-keyboard-response","252","5870052","0.0-1.0-338.0","0","0","57161","","93","","","68","37","","","1","37","training","adjacent","GF","7","6","L.jpg","Q.jpg","0","0","1","",""
"","feedback","","html-keyboard-response","253","5871059","0.0-1.0-339.0-0.0","0","0","57161","","null","","","null","37","","","","","","","","","","","","","","","",""
"","ITI","","html-keyboard-response","254","5872065","0.0-1.0-342.0","0","0","57161","","null","","","null","37","","","","","","","","","","","","","","","NaN",""
"","S1","","html-keyboard-response","255","5872322","0.0-1.0-344.0","0","0","57161","","null","","","null","38","","","","","","","","","","","","","","","",""
"","ISI","","html-keyboard-response","256","5874324","0.0-1.0-345.0","0","0","57161","","null","","","null","38","NaN","","","","","","","","","","","","","","",""
"","S2","","html-keyboard-response","257","5874580","0.0-1.0-346.0","0","0","57161","","null","","","null","38","","NaN","","","","","","","","","","","","","",""
"","response","","html-keyboard-response","258","5874666","0.0-1.0-347.0","0","0","57161","","83","","","75","38","","","1","38","training","adjacent","EF","5","6","O.jpg","Q.jpg","1","1","1","",""
"","feedback","","html-keyboard-response","259","5875671","0.0-1.0-348.0-0.0","0","0","57161","","null","","","null","38","","","","","","","","","","","","","","","",""
"","ITI","","html-keyboard-response","260","5876679","0.0-1.0-351.0","0","0","57161","","null","","","null","38","","","","","","","","","","","","","","","NaN",""
"","S1","","html-keyboard-response","261","5876936","0.0-1.0-353.0","0","0","57161","","null","","","null","39","","","","","","","","","","","","","","","",""
"","ISI","","html-keyboard-response","262","5878944","0.0-1.0-354.0","0","0","57161","","null","","","null","39","NaN","","","","","","","","","","","","","","",""
"","S2","","html-keyboard-response","263","5879209","0.0-1.0-355.0","0","0","57161","","null","","","null","39","","NaN","","","","","","","","","","","","","",""
"","response","","html-keyboard-response","264","5879313","0.0-1.0-356.0","0","0","57161","","102","","","68","39","","","1","39","training","adjacent","FG","6","7","Q.jpg","L.jpg","0","1","0","",""
"","feedback","","html-keyboard-response","265","5880318","0.0-1.0-357.0-0.0","0","0","57161","","null","","","null","39","","","","","","","","","","","","","","","",""
"","time_out","","html-keyboard-response","266","5882322","0.0-1.0-359.0-0.0","0","0","57161","","null","","","null","39","","","","","","","","","","","","","","","",""
"","ITI","","html-keyboard-response","267","5883332","0.0-1.0-360.0","0","0","57161","","null","","","null","39","","","","","","","","","","","","","","","NaN",""
"","S1","","html-keyboard-response","268","5883589","0.0-1.0-362.0","0","0","57161","","null","","","null","40","","","","","","","","","","","","","","","",""
"","ISI","","html-keyboard-response","269","5885596","0.0-1.0-363.0","0","0","57161","","null","","","null","40","NaN","","","","","","","","","","","","","","",""
"","S2","","html-keyboard-response","270","5885850","0.0-1.0-364.0","0","0","57161","","null","","","null","40","","NaN","","","","","","","","","","","","","",""
"","response","","html-keyboard-response","271","5885898","0.0-1.0-365.0","0","0","57161","","46","","","68","40","","","1","40","training","adjacent","CB","3","2","N.jpg","R.jpg","0","0","1","",""
"","feedback","","html-keyboard-response","272","5886914","0.0-1.0-366.0-0.0","0","0","57161","","null","","","null","40","","","","","","","","","","","","","","","",""
"","ITI","","html-keyboard-response","273","5887921","0.0-1.0-369.0","0","0","57161","","null","","","null","40","","","","","","","","","","","","","","","NaN",""
"","S1","","html-keyboard-response","274","5888177","0.0-1.0-371.0","0","0","57161","","null","","","null","41","","","","","","","","","","","","","","","",""
"","ISI","","html-keyboard-response","275","5890185","0.0-1.0-372.0","0","0","57161","","null","","","null","41","NaN","","","","","","","","","","","","","","",""
"","S2","","html-keyboard-response","276","5890438","0.0-1.0-373.0","0","0","57161","","null","","","null","41","","NaN","","","","","","","","","","","","","",""
"","response","","html-keyboard-response","277","5891078","0.0-1.0-374.0","0","0","57161","","637","","","75","41","","","1","41","training","adjacent","CB","3","2","N.jpg","R.jpg","1","0","0","",""
"","feedback","","html-keyboard-response","278","5892085","0.0-1.0-375.0-0.0","0","0","57161","","null","","","null","41","","","","","","","","","","","","","","","",""
"","time_out","","html-keyboard-response","279","5894088","0.0-1.0-377.0-0.0","0","0","57161","","null","","","null","41","","","","","","","","","","","","","","","",""
"","ITI","","html-keyboard-response","280","5895091","0.0-1.0-378.0","0","0","57161","","null","","","null","41","","","","","","","","","","","","","","","NaN",""
"","S1","","html-keyboard-response","281","5895346","0.0-1.0-380.0","0","0","57161","","null","","","null","42","","","","","","","","","","","","","","","",""
"","ISI","","html-keyboard-response","282","5897352","0.0-1.0-381.0","0","0","57161","","null","","","null","42","NaN","","","","","","","","","","","","","","",""
"","S2","","html-keyboard-response","283","5897610","0.0-1.0-382.0","0","0","57161","","null","","","null","42","","NaN","","","","","","","","","","","","","",""
"","response","","html-keyboard-response","284","5897989","0.0-1.0-383.0","0","0","57161","","378","","","75","42","","","1","42","training","adjacent","GF","7","6","L.jpg","Q.jpg","1","0","0","",""
"","feedback","","html-keyboard-response","285","5898996","0.0-1.0-384.0-0.0","0","0","57161","","null","","","null","42","","","","","","","","","","","","","","","",""
"","time_out","","html-keyboard-response","286","5901002","0.0-1.0-386.0-0.0","0","0","57161","","null","","","null","42","","","","","","","","","","","","","","","",""
"","ITI","","html-keyboard-response","287","5902007","0.0-1.0-387.0","0","0","57161","","null","","","null","42","","","","","","","","","","","","","","","NaN",""
"","S1","","html-keyboard-response","288","5902263","0.0-1.0-389.0","0","0","57161","","null","","","null","43","","","","","","","","","","","","","","","",""
"","ISI","","html-keyboard-response","289","5904276","0.0-1.0-390.0","0","0","57161","","163","","","75","43","k","","","","","","","","","","","","","","",""
"","S2","","html-keyboard-response","290","5904531","0.0-1.0-391.0","0","0","57161","","null","","","null","43","","NaN","","","","","","","","","","","","","",""
"","response","","html-keyboard-response","291","5904587","0.0-1.0-392.0","0","0","57161","","53","","","75","43","","","1","43","training","adjacent","ED","5","4","O.jpg","M.jpg","1","0","0","",""
"","feedback","","html-keyboard-response","292","5905590","0.0-1.0-393.0-0.0","0","0","57161","","null","","","null","43","","","","","","","","","","","","","","","",""
"","time_out","","html-keyboard-response","293","5907601","0.0-1.0-395.0-0.0","0","0","57161","","null","","","null","43","","","","","","","","","","","","","","","",""
"","ITI","","html-keyboard-response","294","5908610","0.0-1.0-396.0","0","0","57161","","null","","","null","43","","","","","","","","","","","","","","","NaN",""
"","S1","","html-keyboard-response","295","5908868","0.0-1.0-398.0","0","0","57161","","null","","","null","44","","","","","","","","","","","","","","","",""
"","ISI","","html-keyboard-response","296","5910879","0.0-1.0-399.0","0","0","57161","","null","","","null","44","NaN","","","","","","","","","","","","","","",""
"","S2","","html-keyboard-response","297","5911136","0.0-1.0-400.0","0","0","57161","","null","","","null","44","","NaN","","","","","","","","","","","","","",""
"","response","","html-keyboard-response","298","5911244","0.0-1.0-401.0","0","0","57161","","106","","","68","44","","","1","44","training","adjacent","FE","6","5","Q.jpg","O.jpg","0","0","1","",""
"","feedback","","html-keyboard-response","299","5912249","0.0-1.0-402.0-0.0","0","0","57161","","null","","","null","44","","","","","","","","","","","","","","","",""
"","ITI","","html-keyboard-response","300","5913253","0.0-1.0-405.0","0","0","57161","","null","","","null","44","","","","","","","","","","","","","","","NaN",""
"","S1","","html-keyboard-response","301","5913513","0.0-1.0-407.0","0","0","57161","","null","","","null","45","","","","","","","","","","","","","","","",""
"","ISI","","html-keyboard-response","302","5915518","0.0-1.0-408.0","0","0","57161","","null","","","null","45","NaN","","","","","","","","","","","","","","",""
"","S2","","html-keyboard-response","303","5915775","0.0-1.0-409.0","0","0","57161","","null","","","null","45","","NaN","","","","","","","","","","","","","",""
"","response","","html-keyboard-response","304","5916329","0.0-1.0-410.0","0","0","57161","","551","","","75","45","","","1","45","training","adjacent","FE","6","5","Q.jpg","O.jpg","1","0","0","",""
"","feedback","","html-keyboard-response","305","5917336","0.0-1.0-411.0-0.0","0","0","57161","","null","","","null","45","","","","","","","","","","","","","","","",""
"","time_out","","html-keyboard-response","306","5919342","0.0-1.0-413.0-0.0","0","0","57161","","null","","","null","45","","","","","","","","","","","","","","","",""
"","ITI","","html-keyboard-response","307","5920347","0.0-1.0-414.0","0","0","57161","","null","","","null","45","","","","","","","","","","","","","","","NaN",""
"","S1","","html-keyboard-response","308","5920603","0.0-1.0-416.0","0","0","57161","","null","","","null","46","","","","","","","","","","","","","","","",""
"","ISI","","html-keyboard-response","309","5922608","0.0-1.0-417.0","0","0","57161","","null","","","null","46","NaN","","","","","","","","","","","","","","",""
"","S2","","html-keyboard-response","310","5922863","0.0-1.0-418.0","0","0","57161","","null","","","null","46","","NaN","","","","","","","","","","","","","",""
"","response","","html-keyboard-response","311","5923188","0.0-1.0-419.0","0","0","57161","","323","","","75","46","","","1","46","training","adjacent","DE","4","5","M.jpg","O.jpg","1","1","1","",""
"","feedback","","html-keyboard-response","312","5924195","0.0-1.0-420.0-0.0","0","0","57161","","null","","","null","46","","","","","","","","","","","","","","","",""
"","ITI","","html-keyboard-response","313","5925198","0.0-1.0-423.0","0","0","57161","","null","","","null","46","","","","","","","","","","","","","","","NaN",""
"","S1","","html-keyboard-response","314","5925455","0.0-1.0-425.0","0","0","57161","","null","","","null","47","","","","","","","","","","","","","","","",""
"","ISI","","html-keyboard-response","315","5927462","0.0-1.0-426.0","0","0","57161","","null","","","null","47","NaN","","","","","","","","","","","","","","",""
"","S2","","html-keyboard-response","316","5927719","0.0-1.0-427.0","0","0","57161","","null","","","null","47","","NaN","","","","","","","","","","","","","",""
"","response","","html-keyboard-response","317","5928038","0.0-1.0-428.0","0","0","57161","","317","","","68","47","","","1","47","training","adjacent","CD","3","4","N.jpg","M.jpg","0","1","0","",""
"","feedback","","html-keyboard-response","318","5929043","0.0-1.0-429.0-0.0","0","0","57161","","null","","","null","47","","","","","","","","","","","","","","","",""
"","time_out","","html-keyboard-response","319","5931053","0.0-1.0-431.0-0.0","0","0","57161","","null","","","null","47","","","","","","","","","","","","","","","",""
"","ITI","","html-keyboard-response","320","5932058","0.0-1.0-432.0","0","0","57161","","null","","","null","47","","","","","","","","","","","","","","","NaN",""
"","block_over","","html-keyboard-response","321","8816839","0.0-1.0-433.0-0.0","0","0","57161","","2884777","","","32","47","","","","","","","","","","","","","","","",""
"","S1","","html-keyboard-response","322","8817098","0.0-1.0-434.0","0","0","57161","","null","","","null","48","","","","","","","","","","","","","","","",""
"","ISI","","html-keyboard-response","323","8819106","0.0-1.0-435.0","0","0","57161","","null","","","null","48","NaN","","","","","","","","","","","","","","",""
"","S2","","html-keyboard-response","324","8819362","0.0-1.0-436.0","0","0","57161","","null","","","null","48","","NaN","","","","","","","","","","","","","",""
"","response","","html-keyboard-response","325","8819639","0.0-1.0-437.0","0","0","57161","","274","","","75","48","","","2","48","training","adjacent","FE","6","5","Q.jpg","O.jpg","1","0","0","",""
"","feedback","","html-keyboard-response","326","8820650","0.0-1.0-438.0-0.0","0","0","57161","","null","","","null","48","","","","","","","","","","","","","","","",""
"","time_out","","html-keyboard-response","327","8822660","0.0-1.0-440.0-0.0","0","0","57161","","null","","","null","48","","","","","","","","","","","","","","","",""
"","ITI","","html-keyboard-response","328","8823667","0.0-1.0-441.0","0","0","57161","","null","","","null","48","","","","","","","","","","","","","","","NaN",""
"","S1","","html-keyboard-response","329","8823926","0.0-1.0-443.0","0","0","57161","","null","","","null","49","","","","","","","","","","","","","","","",""
"","ISI","","html-keyboard-response","330","8825934","0.0-1.0-444.0","0","0","57161","","251","","","68","49","d","","","","","","","","","","","","","","",""
"","S2","","html-keyboard-response","331","8826191","0.0-1.0-445.0","0","0","57161","","null","","","null","49","","NaN","","","","","","","","","","","","","",""
"","response","","html-keyboard-response","332","8826300","0.0-1.0-446.0","0","0","57161","","106","","","68","49","","","2","49","training","adjacent","FG","6","7","Q.jpg","L.jpg","0","1","0","",""
"","feedback","","html-keyboard-response","333","8827306","0.0-1.0-447.0-0.0","0","0","57161","","null","","","null","49","","","","","","","","","","","","","","","",""
"","time_out","","html-keyboard-response","334","8829318","0.0-1.0-449.0-0.0","0","0","57161","","null","","","null","49","","","","","","","","","","","","","","","",""
"","ITI","","html-keyboard-response","335","8830326","0.0-1.0-450.0","0","0","57161","","null","","","null","49","","","","","","","","","","","","","","","NaN",""
"","S1","","html-keyboard-response","336","8830593","0.0-1.0-452.0","0","0","57161","","null","","","null","50","","","","","","","","","","","","","","","",""
"","ISI","","html-keyboard-response","337","8832596","0.0-1.0-453.0","0","0","57161","","null","","","null","50","NaN","","","","","","","","","","","","","","",""
"","S2","","html-keyboard-response","338","8832852","0.0-1.0-454.0","0","0","57161","","null","","","null","50","","NaN","","","","","","","","","","","","","",""
"","response","","html-keyboard-response","339","8833122","0.0-1.0-455.0","0","0","57161","","267","","","75","50","","","2","50","training","adjacent","EF","5","6","O.jpg","Q.jpg","1","1","1","",""
"","feedback","","html-keyboard-response","340","8834132","0.0-1.0-456.0-0.0","0","0","57161","","null","","","null","50","","","","","","","","","","","","","","","",""
"","ITI","","html-keyboard-response","341","8835142","0.0-1.0-459.0","0","0","57161","","null","","","null","50","","","","","","","","","","","","","","","NaN",""
"","S1","","html-keyboard-response","342","8835400","0.0-1.0-461.0","0","0","57161","","null","","","null","51","","","","","","","","","","","","","","","",""
"","ISI","","html-keyboard-response","343","8837413","0.0-1.0-462.0","0","0","57161","","null","","","null","51","NaN","","","","","","","","","","","","","","",""
"","S2","","html-keyboard-response","344","8837680","0.0-1.0-463.0","0","0","57161","","null","","","null","51","","NaN","","","","","","","","","","","","","",""
"","response","","html-keyboard-response","345","8838578","0.0-1.0-464.0","0","0","57161","","895","","","68","51","","","2","51","training","adjacent","CD","3","4","N.jpg","M.jpg","0","1","0","",""
"","feedback","","html-keyboard-response","346","8839589","0.0-1.0-465.0-0.0","0","0","57161","","null","","","null","51","","","","","","","","","","","","","","","",""
"","time_out","","html-keyboard-response","347","8841595","0.0-1.0-467.0-0.0","0","0","57161","","null","","","null","51","","","","","","","","","","","","","","","",""
"","ITI","","html-keyboard-response","348","8842601","0.0-1.0-468.0","0","0","57161","","null","","","null","51","","","","","","","","","","","","","","","NaN",""
"","S1","","html-keyboard-response","349","8842859","0.0-1.0-470.0","0","0","57161","","null","","","null","52","","","","","","","","","","","","","","","",""
"","ISI","","html-keyboard-response","350","8844871","0.0-1.0-471.0","0","0","57161","","null","","","null","52","NaN","","","","","","","","","","","","","","",""
"","S2","","html-keyboard-response","351","8845130","0.0-1.0-472.0","0","0","57161","","null","","","null","52","","NaN","","","","","","","","","","","","","",""
"","response","","html-keyboard-response","352","8845229","0.0-1.0-473.0","0","0","57161","","97","","","68","52","","","2","52","training","adjacent","FG","6","7","Q.jpg","L.jpg","0","1","0","",""
"","feedback","","html-keyboard-response","353","8846236","0.0-1.0-474.0-0.0","0","0","57161","","null","","","null","52","","","","","","","","","","","","","","","",""
"","time_out","","html-keyboard-response","354","8848241","0.0-1.0-476.0-0.0","0","0","57161","","null","","","null","52","","","","","","","","","","","","","","","",""
"","ITI","","html-keyboard-response","355","8849251","0.0-1.0-477.0","0","0","57161","","null","","","null","52","","","","","","","","","","","","","","","NaN",""
"","S1","","html-keyboard-response","356","8849510","0.0-1.0-479.0","0","0","57161","","null","","","null","53","","","","","","","","","","","","","","","",""
"","ISI","","html-keyboard-response","357","8851519","0.0-1.0-480.0","0","0","57161","","1756","","","87","53","w","","","","","","","","","","","","","","",""
"","S2","","html-keyboard-response","358","8851780","0.0-1.0-481.0","0","0","57161","","null","","","null","53","","NaN","","","","","","","","","","","","","",""
"","response","","html-keyboard-response","359","8852147","0.0-1.0-482.0","0","0","57161","","365","","","75","53","","","2","53","training","adjacent","CB","3","2","N.jpg","R.jpg","1","0","0","",""
"","feedback","","html-keyboard-response","360","8853150","0.0-1.0-483.0-0.0","0","0","57161","","null","","","null","53","","","","","","","","","","","","","","","",""
"","time_out","","html-keyboard-response","361","8855154","0.0-1.0-485.0-0.0","0","0","57161","","null","","","null","53","","","","","","","","","","","","","","","",""
"","ITI","","html-keyboard-response","362","8856157","0.0-1.0-486.0","0","0","57161","","null","","","null","53","","","","","","","","","","","","","","","NaN",""
"","S1","","html-keyboard-response","363","8856416","0.0-1.0-488.0","0","0","57161","","null","","","null","54","","","","","","","","","","","","","","","",""
"","ISI","","html-keyboard-response","364","8858420","0.0-1.0-489.0","0","0","57161","","1751","","","68","54","d","","","","","","","","","","","","","","",""
"","S2","","html-keyboard-response","365","8858687","0.0-1.0-490.0","0","0","57161","","null","","","null","54","","NaN","","","","","","","","","","","","","",""
"","response","","html-keyboard-response","366","8858690","0.0-1.0-491.0","0","0","57161","","0","","","68","54","","","2","54","training","adjacent","ED","5","4","O.jpg","M.jpg","0","0","1","",""
"","feedback","","html-keyboard-response","367","8859701","0.0-1.0-492.0-0.0","0","0","57161","","null","","","null","54","","","","","","","","","","","","","","","",""
"","ITI","","html-keyboard-response","368","8860713","0.0-1.0-495.0","0","0","57161","","null","","","null","54","","","","","","","","","","","","","","","NaN",""
"","S1","","html-keyboard-response","369","8860971","0.0-1.0-497.0","0","0","57161","","null","","","null","55","","","","","","","","","","","","","","","",""
"","ISI","","html-keyboard-response","370","8862988","0.0-1.0-498.0","0","0","57161","","null","","","null","55","NaN","","","","","","","","","","","","","","",""
"","S2","","html-keyboard-response","371","8863246","0.0-1.0-499.0","0","0","57161","","null","","","null","55","","NaN","","","","","","","","","","","","","",""
"","response","","html-keyboard-response","372","8863325","0.0-1.0-500.0","0","0","57161","","77","","","75","55","","","2","55","training","adjacent","DC","4","3","M.jpg","N.jpg","1","0","0","",""
"","feedback","","html-keyboard-response","373","8864330","0.0-1.0-501.0-0.0","0","0","57161","","null","","","null","55","","","","","","","","","","","","","","","",""
"","time_out","","html-keyboard-response","374","8866341","0.0-1.0-503.0-0.0","0","0","57161","","null","","","null","55","","","","","","","","","","","","","","","",""
"","ITI","","html-keyboard-response","375","8867347","0.0-1.0-504.0","0","0","57161","","null","","","null","55","","","","","","","","","","","","","","","NaN",""
"","S1","","html-keyboard-response","376","8867604","0.0-1.0-506.0","0","0","57161","","null","","","null","56","","","","","","","","","","","","","","","",""
"","ISI","","html-keyboard-response","377","8869612","0.0-1.0-507.0","0","0","57161","","null","","","null","56","NaN","","","","","","","","","","","","","","",""
"","S2","","html-keyboard-response","378","8869878","0.0-1.0-508.0","0","0","57161","","null","","","null","56","","NaN","","","","","","","","","","","","","",""
"","response","","html-keyboard-response","379","8870003","0.0-1.0-509.0","0","0","57161","","122","","","68","56","","","2","56","training","adjacent","BA","2","1","R.jpg","P.jpg","0","0","1","",""
"","feedback","","html-keyboard-response","380","8871008","0.0-1.0-510.0-0.0","0","0","57161","","null","","","null","56","","","","","","","","","","","","","","","",""
"","ITI","","html-keyboard-response","381","8872016","0.0-1.0-513.0","0","0","57161","","null","","","null","56","","","","","","","","","","","","","","","NaN",""
"","S1","","html-keyboard-response","382","8872275","0.0-1.0-515.0","0","0","57161","","null","","","null","57","","","","","","","","","","","","","","","",""
"","ISI","","html-keyboard-response","383","8874277","0.0-1.0-516.0","0","0","57161","","null","","","null","57","NaN","","","","","","","","","","","","","","",""
"","S2","","html-keyboard-response","384","8874530","0.0-1.0-517.0","0","0","57161","","250","","","68","57","","d","","","","","","","","","","","","","",""
"","response","","html-keyboard-response","385","8875141","0.0-1.0-518.0","0","0","57161","","610","","","68","57","","","2","57","training","adjacent","EF","5","6","O.jpg","Q.jpg","0","1","0","",""
"","feedback","","html-keyboard-response","386","8876150","0.0-1.0-519.0-0.0","0","0","57161","","null","","","null","57","","","","","","","","","","","","","","","",""
"","time_out","","html-keyboard-response","387","8878158","0.0-1.0-521.0-0.0","0","0","57161","","null","","","null","57","","","","","","","","","","","","","","","",""
"","ITI","","html-keyboard-response","388","8879169","0.0-1.0-522.0","0","0","57161","","null","","","null","57","","","","","","","","","","","","","","","NaN",""
"","S1","","html-keyboard-response","389","8879423","0.0-1.0-524.0","0","0","57161","","null","","","null","58","","","","","","","","","","","","","","","",""
"","ISI","","html-keyboard-response","390","8881426","0.0-1.0-525.0","0","0","57161","","null","","","null","58","NaN","","","","","","","","","","","","","","",""
"","S2","","html-keyboard-response","391","8881693","0.0-1.0-526.0","0","0","57161","","null","","","null","58","","NaN","","","","","","","","","","","","","",""
"","response","","html-keyboard-response","392","8882282","0.0-1.0-527.0","0","0","57161","","586","","","75","58","","","2","58","training","adjacent","CB","3","2","N.jpg","R.jpg","1","0","0","",""
"","feedback","","html-keyboard-response","393","8883288","0.0-1.0-528.0-0.0","0","0","57161","","null","","","null","58","","","","","","","","","","","","","","","",""
"","time_out","","html-keyboard-response","394","8885300","0.0-1.0-530.0-0.0","0","0","57161","","null","","","null","58","","","","","","","","","","","","","","","",""
"","ITI","","html-keyboard-response","395","8886310","0.0-1.0-531.0","0","0","57161","","null","","","null","58","","","","","","","","","","","","","","","NaN",""
"","S1","","html-keyboard-response","396","8886567","0.0-1.0-533.0","0","0","57161","","null","","","null","59","","","","","","","","","","","","","","","",""
"","ISI","","html-keyboard-response","397","8888572","0.0-1.0-534.0","0","0","57161","","null","","","null","59","NaN","","","","","","","","","","","","","","",""
"","S2","","html-keyboard-response","398","8888833","0.0-1.0-535.0","0","0","57161","","null","","","null","59","","NaN","","","","","","","","","","","","","",""
"","response","","html-keyboard-response","399","8889111","0.0-1.0-536.0","0","0","57161","","276","","","68","59","","","2","59","training","adjacent","AB","1","2","P.jpg","R.jpg","0","1","0","",""
"","feedback","","html-keyboard-response","400","8890119","0.0-1.0-537.0-0.0","0","0","57161","","null","","","null","59","","","","","","","","","","","","","","","",""
"","time_out","","html-keyboard-response","401","8892123","0.0-1.0-539.0-0.0","0","0","57161","","null","","","null","59","","","","","","","","","","","","","","","",""
"","ITI","","html-keyboard-response","402","8893125","0.0-1.0-540.0","0","0","57161","","null","","","null","59","","","","","","","","","","","","","","","NaN",""
"","S1","","html-keyboard-response","403","8893385","0.0-1.0-542.0","0","0","57161","","null","","","null","60","","","","","","","","","","","","","","","",""
"","ISI","","html-keyboard-response","404","8895395","0.0-1.0-543.0","0","0","57161","","null","","","null","60","NaN","","","","","","","","","","","","","","",""
"","S2","","html-keyboard-response","405","8895652","0.0-1.0-544.0","0","0","57161","","null","","","null","60","","NaN","","","","","","","","","","","","","",""
"","response","","html-keyboard-response","406","8895692","0.0-1.0-545.0","0","0","57161","","37","","","68","60","","","2","60","training","adjacent","CD","3","4","N.jpg","M.jpg","0","1","0","",""
"","feedback","","html-keyboard-response","407","8896696","0.0-1.0-546.0-0.0","0","0","57161","","null","","","null","60","","","","","","","","","","","","","","","",""
"","time_out","","html-keyboard-response","408","8898703","0.0-1.0-548.0-0.0","0","0","57161","","null","","","null","60","","","","","","","","","","","","","","","",""
"","ITI","","html-keyboard-response","409","8899707","0.0-1.0-549.0","0","0","57161","","null","","","null","60","","","","","","","","","","","","","","","NaN",""
"","S1","","html-keyboard-response","410","8899961","0.0-1.0-551.0","0","0","57161","","null","","","null","61","","","","","","","","","","","","","","","",""
"","ISI","","html-keyboard-response","411","8901968","0.0-1.0-552.0","0","0","57161","","249","","","75","61","k","","","","","","","","","","","","","","",""
"","S2","","html-keyboard-response","412","8902227","0.0-1.0-553.0","0","0","57161","","null","","","null","61","","NaN","","","","","","","","","","","","","",""
"","response","","html-keyboard-response","413","8902714","0.0-1.0-554.0","0","0","57161","","483","","","68","61","","","2","61","training","adjacent","AB","1","2","P.jpg","R.jpg","0","1","0","",""
"","feedback","","html-keyboard-response","414","8903719","0.0-1.0-555.0-0.0","0","0","57161","","null","","","null","61","","","","","","","","","","","","","","","",""
"","time_out","","html-keyboard-response","415","8905723","0.0-1.0-557.0-0.0","0","0","57161","","null","","","null","61","","","","","","","","","","","","","","","",""
"","ITI","","html-keyboard-response","416","8906726","0.0-1.0-558.0","0","0","57161","","null","","","null","61","","","","","","","","","","","","","","","NaN",""
"","S1","","html-keyboard-response","417","8906983","0.0-1.0-560.0","0","0","57161","","null","","","null","62","","","","","","","","","","","","","","","",""
"","ISI","","html-keyboard-response","418","8908986","0.0-1.0-561.0","0","0","57161","","null","","","null","62","NaN","","","","","","","","","","","","","","",""
"","S2","","html-keyboard-response","419","8909245","0.0-1.0-562.0","0","0","57161","","null","","","null","62","","NaN","","","","","","","","","","","","","",""
"","response","","html-keyboard-response","420","8909568","0.0-1.0-563.0","0","0","57161","","319","","","75","62","","","2","62","training","adjacent","GF","7","6","L.jpg","Q.jpg","1","0","0","",""
"","feedback","","html-keyboard-response","421","8910577","0.0-1.0-564.0-0.0","0","0","57161","","null","","","null","62","","","","","","","","","","","","","","","",""
"","time_out","","html-keyboard-response","422","8912580","0.0-1.0-566.0-0.0","0","0","57161","","null","","","null","62","","","","","","","","","","","","","","","",""
"","ITI","","html-keyboard-response","423","8913584","0.0-1.0-567.0","0","0","57161","","null","","","null","62","","","","","","","","","","","","","","","NaN",""
"","S1","","html-keyboard-response","424","8913849","0.0-1.0-569.0","0","0","57161","","null","","","null","63","","","","","","","","","","","","","","","",""
"","ISI","","html-keyboard-response","425","8915857","0.0-1.0-570.0","0","0","57161","","null","","","null","63","NaN","","","","","","","","","","","","","","",""
"","S2","","html-keyboard-response","426","8916119","0.0-1.0-571.0","0","0","57161","","null","","","null","63","","NaN","","","","","","","","","","","","","",""
"","response","","html-keyboard-response","427","8916278","0.0-1.0-572.0","0","0","57161","","157","","","68","63","","","2","63","training","adjacent","FG","6","7","Q.jpg","L.jpg","0","1","0","",""
"","feedback","","html-keyboard-response","428","8917283","0.0-1.0-573.0-0.0","0","0","57161","","null","","","null","63","","","","","","","","","","","","","","","",""
"","time_out","","html-keyboard-response","429","8919287","0.0-1.0-575.0-0.0","0","0","57161","","null","","","null","63","","","","","","","","","","","","","","","",""
"","ITI","","html-keyboard-response","430","8920302","0.0-1.0-576.0","0","0","57161","","null","","","null","63","","","","","","","","","","","","","","","NaN",""
"","S1","","html-keyboard-response","431","8920560","0.0-1.0-578.0","0","0","57161","","null","","","null","64","","","","","","","","","","","","","","","",""
"","ISI","","html-keyboard-response","432","8922572","0.0-1.0-579.0","0","0","57161","","null","","","null","64","NaN","","","","","","","","","","","","","","",""
"","S2","","html-keyboard-response","433","8922830","0.0-1.0-580.0","0","0","57161","","null","","","null","64","","NaN","","","","","","","","","","","","","",""
"","response","","html-keyboard-response","434","8923040","0.0-1.0-581.0","0","0","57161","","208","","","75","64","","","2","64","training","adjacent","BC","2","3","R.jpg","N.jpg","1","1","1","",""
"","feedback","","html-keyboard-response","435","8924047","0.0-1.0-582.0-0.0","0","0","57161","","null","","","null","64","","","","","","","","","","","","","","","",""
"","ITI","","html-keyboard-response","436","8925055","0.0-1.0-585.0","0","0","57161","","null","","","null","64","","","","","","","","","","","","","","","NaN",""
"","S1","","html-keyboard-response","437","8925316","0.0-1.0-587.0","0","0","57161","","null","","","null","65","","","","","","","","","","","","","","","",""
"","ISI","","html-keyboard-response","438","8927320","0.0-1.0-588.0","0","0","57161","","null","","","null","65","NaN","","","","","","","","","","","","","","",""
"","S2","","html-keyboard-response","439","8927578","0.0-1.0-589.0","0","0","57161","","null","","","null","65","","NaN","","","","","","","","","","","","","",""
"","response","","html-keyboard-response","440","8927974","0.0-1.0-590.0","0","0","57161","","393","","","75","65","","","2","65","training","adjacent","FE","6","5","Q.jpg","O.jpg","1","0","0","",""
"","feedback","","html-keyboard-response","441","8928985","0.0-1.0-591.0-0.0","0","0","57161","","null","","","null","65","","","","","","","","","","","","","","","",""
"","time_out","","html-keyboard-response","442","8930995","0.0-1.0-593.0-0.0","0","0","57161","","null","","","null","65","","","","","","","","","","","","","","","",""
"","ITI","","html-keyboard-response","443","8932002","0.0-1.0-594.0","0","0","57161","","421","","","73","65","","","","","","","","","","","","","","","i",""
"","S1","","html-keyboard-response","444","8932260","0.0-1.0-596.0","0","0","57161","","null","","","null","66","","","","","","","","","","","","","","","",""
"","ISI","","html-keyboard-response","445","8934266","0.0-1.0-597.0","0","0","57161","","null","","","null","66","NaN","","","","","","","","","","","","","","",""
"","S2","","html-keyboard-response","446","8934523","0.0-1.0-598.0","0","0","57161","","null","","","null","66","","NaN","","","","","","","","","","","","","",""
"","response","","html-keyboard-response","447","8935140","0.0-1.0-599.0","0","0","57161","","614","","","68","66","","","2","66","training","adjacent","DC","4","3","M.jpg","N.jpg","0","0","1","",""
"","feedback","","html-keyboard-response","448","8936150","0.0-1.0-600.0-0.0","0","0","57161","","null","","","null","66","","","","","","","","","","","","","","","",""
"","ITI","","html-keyboard-response","449","8937153","0.0-1.0-603.0","0","0","57161","","null","","","null","66","","","","","","","","","","","","","","","NaN",""
"","S1","","html-keyboard-response","450","8937406","0.0-1.0-605.0","0","0","57161","","null","","","null","67","","","","","","","","","","","","","","","",""
"","ISI","","html-keyboard-response","451","8939414","0.0-1.0-606.0","0","0","57161","","null","","","null","67","NaN","","","","","","","","","","","","","","",""
"","S2","","html-keyboard-response","452","8939672","0.0-1.0-607.0","0","0","57161","","null","","","null","67","","NaN","","","","","","","","","","","","","",""
"","response","","html-keyboard-response","453","8941223","0.0-1.0-608.0","0","0","57161","","1550","","","68","67","","","2","67","training","adjacent","EF","5","6","O.jpg","Q.jpg","0","1","0","",""
"","feedback","","html-keyboard-response","454","8942232","0.0-1.0-609.0-0.0","0","0","57161","","null","","","null","67","","","","","","","","","","","","","","","",""
"","time_out","","html-keyboard-response","455","8944237","0.0-1.0-611.0-0.0","0","0","57161","","null","","","null","67","","","","","","","","","","","","","","","",""
"","ITI","","html-keyboard-response","456","8945244","0.0-1.0-612.0","0","0","57161","","null","","","null","67","","","","","","","","","","","","","","","NaN",""
"","S1","","html-keyboard-response","457","8945501","0.0-1.0-614.0","0","0","57161","","null","","","null","68","","","","","","","","","","","","","","","",""
"","ISI","","html-keyboard-response","458","8947505","0.0-1.0-615.0","0","0","57161","","null","","","null","68","NaN","","","","","","","","","","","","","","",""
"","S2","","html-keyboard-response","459","8947762","0.0-1.0-616.0","0","0","57161","","null","","","null","68","","NaN","","","","","","","","","","","","","",""
"","response","","html-keyboard-response","460","8948434","0.0-1.0-617.0","0","0","57161","","668","","","75","68","","","2","68","training","adjacent","CD","3","4","N.jpg","M.jpg","1","1","1","",""
"","feedback","","html-keyboard-response","461","8949438","0.0-1.0-618.0-0.0","0","0","57161","","null","","","null","68","","","","","","","","","","","","","","","",""
"","ITI","","html-keyboard-response","462","8950444","0.0-1.0-621.0","0","0","57161","","null","","","null","68","","","","","","","","","","","","","","","NaN",""
"","S1","","html-keyboard-response","463","8950699","0.0-1.0-623.0","0","0","57161","","null","","","null","69","","","","","","","","","","","","","","","",""
"","ISI","","html-keyboard-response","464","8952707","0.0-1.0-624.0","0","0","57161","","null","","","null","69","NaN","","","","","","","","","","","","","","",""
"","S2","","html-keyboard-response","465","8952961","0.0-1.0-625.0","0","0","57161","","null","","","null","69","","NaN","","","","","","","","","","","","","",""
"","response","","html-keyboard-response","466","8954037","0.0-1.0-626.0","0","0","57161","","1072","","","75","69","","","2","69","training","adjacent","DE","4","5","M.jpg","O.jpg","1","1","1","",""
"","feedback","","html-keyboard-response","467","8955042","0.0-1.0-627.0-0.0","0","0","57161","","null","","","null","69","","","","","","","","","","","","","","","",""
"","ITI","","html-keyboard-response","468","8956054","0.0-1.0-630.0","0","0","57161","","null","","","null","69","","","","","","","","","","","","","","","NaN",""
"","S1","","html-keyboard-response","469","8956308","0.0-1.0-632.0","0","0","57161","","null","","","null","70","","","","","","","","","","","","","","","",""
"","ISI","","html-keyboard-response","470","8958311","0.0-1.0-633.0","0","0","57161","","null","","","null","70","NaN","","","","","","","","","","","","","","",""
"","S2","","html-keyboard-response","471","8958569","0.0-1.0-634.0","0","0","57161","","null","","","null","70","","NaN","","","","","","","","","","","","","",""
"","response","","html-keyboard-response","472","8959316","0.0-1.0-635.0","0","0","57161","","744","","","68","70","","","2","70","training","adjacent","AB","1","2","P.jpg","R.jpg","0","1","0","",""
"","feedback","","html-keyboard-response","473","8960321","0.0-1.0-636.0-0.0","0","0","57161","","null","","","null","70","","","","","","","","","","","","","","","",""
"","time_out","","html-keyboard-response","474","8962327","0.0-1.0-638.0-0.0","0","0","57161","","null","","","null","70","","","","","","","","","","","","","","","",""
"","ITI","","html-keyboard-response","475","8963334","0.0-1.0-639.0","0","0","57161","","null","","","null","70","","","","","","","","","","","","","","","NaN",""
"","S1","","html-keyboard-response","476","8963588","0.0-1.0-641.0","0","0","57161","","null","","","null","71","","","","","","","","","","","","","","","",""
"","ISI","","html-keyboard-response","477","8965595","0.0-1.0-642.0","0","0","57161","","null","","","null","71","NaN","","","","","","","","","","","","","","",""
"","S2","","html-keyboard-response","478","8965862","0.0-1.0-643.0","0","0","57161","","null","","","null","71","","NaN","","","","","","","","","","","","","",""
"","response","","html-keyboard-response","479","8965973","0.0-1.0-644.0","0","0","57161","","109","","","68","71","","","2","71","training","adjacent","FE","6","5","Q.jpg","O.jpg","0","0","1","",""
"","feedback","","html-keyboard-response","480","8966980","0.0-1.0-645.0-0.0","0","0","57161","","null","","","null","71","","","","","","","","","","","","","","","",""
"","ITI","","html-keyboard-response","481","8967992","0.0-1.0-648.0","0","0","57161","","null","","","null","71","","","","","","","","","","","","","","","NaN",""
"","S1","","html-keyboard-response","482","8968249","0.0-1.0-650.0","0","0","57161","","null","","","null","72","","","","","","","","","","","","","","","",""
"","ISI","","html-keyboard-response","483","8970259","0.0-1.0-651.0","0","0","57161","","null","","","null","72","NaN","","","","","","","","","","","","","","",""
"","S2","","html-keyboard-response","484","8970519","0.0-1.0-652.0","0","0","57161","","null","","","null","72","","NaN","","","","","","","","","","","","","",""
"","response","","html-keyboard-response","485","8971083","0.0-1.0-653.0","0","0","57161","","562","","","75","72","","","2","72","training","adjacent","EF","5","6","O.jpg","Q.jpg","1","1","1","",""
"","feedback","","html-keyboard-response","486","8972091","0.0-1.0-654.0-0.0","0","0","57161","","null","","","null","72","","","","","","","","","","","","","","","",""
"","ITI","","html-keyboard-response","487","8973105","0.0-1.0-657.0","0","0","57161","","null","","","null","72","","","","","","","","","","","","","","","NaN",""
"","S1","","html-keyboard-response","488","8973361","0.0-1.0-659.0","0","0","57161","","null","","","null","73","","","","","","","","","","","","","","","",""
"","ISI","","html-keyboard-response","489","8975370","0.0-1.0-660.0","0","0","57161","","null","","","null","73","NaN","","","","","","","","","","","","","","",""
"","S2","","html-keyboard-response","490","8975627","0.0-1.0-661.0","0","0","57161","","null","","","null","73","","NaN","","","","","","","","","","","","","",""
"","response","","html-keyboard-response","491","8977007","0.0-1.0-662.0","0","0","57161","","1376","","","68","73","","","2","73","training","adjacent","CB","3","2","N.jpg","R.jpg","0","0","1","",""
"","feedback","","html-keyboard-response","492","8978019","0.0-1.0-663.0-0.0","0","0","57161","","null","","","null","73","","","","","","","","","","","","","","","",""
"","ITI","","html-keyboard-response","493","8979027","0.0-1.0-666.0","0","0","57161","","null","","","null","73","","","","","","","","","","","","","","","NaN",""
"","S1","","html-keyboard-response","494","8979292","0.0-1.0-668.0","0","0","57161","","null","","","null","74","","","","","","","","","","","","","","","",""
"","ISI","","html-keyboard-response","495","8981294","0.0-1.0-669.0","0","0","57161","","963","","","69","74","e","","","","","","","","","","","","","","",""
"","S2","","html-keyboard-response","496","8981553","0.0-1.0-670.0","0","0","57161","","null","","","null","74","","NaN","","","","","","","","","","","","","",""
"","response","","html-keyboard-response","497","8981691","0.0-1.0-671.0","0","0","57161","","135","","","68","74","","","2","74","training","adjacent","CB","3","2","N.jpg","R.jpg","0","0","1","",""
"","feedback","","html-keyboard-response","498","8982701","0.0-1.0-672.0-0.0","0","0","57161","","null","","","null","74","","","","","","","","","","","","","","","",""
"","ITI","","html-keyboard-response","499","8983711","0.0-1.0-675.0","0","0","57161","","null","","","null","74","","","","","","","","","","","","","","","NaN",""
"","S1","","html-keyboard-response","500","8983970","0.0-1.0-677.0","0","0","57161","","null","","","null","75","","","","","","","","","","","","","","","",""
"","ISI","","html-keyboard-response","501","8985979","0.0-1.0-678.0","0","0","57161","","null","","","null","75","NaN","","","","","","","","","","","","","","",""
"","S2","","html-keyboard-response","502","8986243","0.0-1.0-679.0","0","0","57161","","null","","","null","75","","NaN","","","","","","","","","","","","","",""
"","response","","html-keyboard-response","503","8986335","0.0-1.0-680.0","0","0","57161","","90","","","75","75","","","2","75","training","adjacent","BA","2","1","R.jpg","P.jpg","1","0","0","",""
"","feedback","","html-keyboard-response","504","8987341","0.0-1.0-681.0-0.0","0","0","57161","","null","","","null","75","","","","","","","","","","","","","","","",""
"","time_out","","html-keyboard-response","505","8989353","0.0-1.0-683.0-0.0","0","0","57161","","null","","","null","75","","","","","","","","","","","","","","","",""
"","ITI","","html-keyboard-response","506","8990357","0.0-1.0-684.0","0","0","57161","","null","","","null","75","","","","","","","","","","","","","","","NaN",""
"","S1","","html-keyboard-response","507","8990613","0.0-1.0-686.0","0","0","57161","","null","","","null","76","","","","","","","","","","","","","","","",""
"","ISI","","html-keyboard-response","508","8992616","0.0-1.0-687.0","0","0","57161","","138","","","68","76","d","","","","","","","","","","","","","","",""
"","S2","","html-keyboard-response","509","8992873","0.0-1.0-688.0","0","0","57161","","null","","","null","76","","NaN","","","","","","","","","","","","","",""
"","response","","html-keyboard-response","510","8992933","0.0-1.0-689.0","0","0","57161","","58","","","68","76","","","2","76","training","adjacent","BC","2","3","R.jpg","N.jpg","0","1","0","",""
"","feedback","","html-keyboard-response","511","8993942","0.0-1.0-690.0-0.0","0","0","57161","","null","","","null","76","","","","","","","","","","","","","","","",""
"","time_out","","html-keyboard-response","512","8995950","0.0-1.0-692.0-0.0","0","0","57161","","null","","","null","76","","","","","","","","","","","","","","","",""
"","ITI","","html-keyboard-response","513","8996962","0.0-1.0-693.0","0","0","57161","","null","","","null","76","","","","","","","","","","","","","","","NaN",""
"","S1","","html-keyboard-response","514","8997217","0.0-1.0-695.0","0","0","57161","","null","","","null","77","","","","","","","","","","","","","","","",""
"","ISI","","html-keyboard-response","515","8999220","0.0-1.0-696.0","0","0","57161","","498","","","79","77","o","","","","","","","","","","","","","","",""
"","S2","","html-keyboard-response","516","8999477","0.0-1.0-697.0","0","0","57161","","null","","","null","77","","NaN","","","","","","","","","","","","","",""
"","response","","html-keyboard-response","517","8999491","0.0-1.0-698.0","0","0","57161","","10","","","75","77","","","2","77","training","adjacent","BC","2","3","R.jpg","N.jpg","1","1","1","",""
"","feedback","","html-keyboard-response","518","9000495","0.0-1.0-699.0-0.0","0","0","57161","","null","","","null","77","","","","","","","","","","","","","","","",""
"","ITI","","html-keyboard-response","519","9001510","0.0-1.0-702.0","0","0","57161","","672","","","87","77","","","","","","","","","","","","","","","w",""
"","S1","","html-keyboard-response","520","9001770","0.0-1.0-704.0","0","0","57161","","null","","","null","78","","","","","","","","","","","","","","","",""
"","ISI","","html-keyboard-response","521","9003776","0.0-1.0-705.0","0","0","57161","","null","","","null","78","NaN","","","","","","","","","","","","","","",""
"","S2","","html-keyboard-response","522","9004031","0.0-1.0-706.0","0","0","57161","","null","","","null","78","","NaN","","","","","","","","","","","","","",""
"","response","","html-keyboard-response","523","9005446","0.0-1.0-707.0","0","0","57161","","1412","","","68","78","","","2","78","training","adjacent","FG","6","7","Q.jpg","L.jpg","0","1","0","",""
"","feedback","","html-keyboard-response","524","9006455","0.0-1.0-708.0-0.0","0","0","57161","","null","","","null","78","","","","","","","","","","","","","","","",""
"","time_out","","html-keyboard-response","525","9008464","0.0-1.0-710.0-0.0","0","0","57161","","null","","","null","78","","","","","","","","","","","","","","","",""
"","ITI","","html-keyboard-response","526","9009467","0.0-1.0-711.0","0","0","57161","","null","","","null","78","","","","","","","","","","","","","","","NaN",""
"","S1","","html-keyboard-response","527","9009724","0.0-1.0-713.0","0","0","57161","","null","","","null","79","","","","","","","","","","","","","","","",""
"","ISI","","html-keyboard-response","528","9011732","0.0-1.0-714.0","0","0","57161","","null","","","null","79","NaN","","","","","","","","","","","","","","",""
"","S2","","html-keyboard-response","529","9011989","0.0-1.0-715.0","0","0","57161","","null","","","null","79","","NaN","","","","","","","","","","","","","",""
"","response","","html-keyboard-response","530","9012309","0.0-1.0-716.0","0","0","57161","","318","","","68","79","","","2","79","training","adjacent","CD","3","4","N.jpg","M.jpg","0","1","0","",""
"","feedback","","html-keyboard-response","531","9013319","0.0-1.0-717.0-0.0","0","0","57161","","null","","","null","79","","","","","","","","","","","","","","","",""
"","time_out","","html-keyboard-response","532","9015323","0.0-1.0-719.0-0.0","0","0","57161","","null","","","null","79","","","","","","","","","","","","","","","",""
"","ITI","","html-keyboard-response","533","9016328","0.0-1.0-720.0","0","0","57161","","null","","","null","79","","","","","","","","","","","","","","","NaN",""
"","S1","","html-keyboard-response","534","9016582","0.0-1.0-722.0","0","0","57161","","null","","","null","80","","","","","","","","","","","","","","","",""
"","ISI","","html-keyboard-response","535","9018588","0.0-1.0-723.0","0","0","57161","","null","","","null","80","NaN","","","","","","","","","","","","","","",""
"","S2","","html-keyboard-response","536","9018846","0.0-1.0-724.0","0","0","57161","","null","","","null","80","","NaN","","","","","","","","","","","","","",""
"","response","","html-keyboard-response","537","9020109","0.0-1.0-725.0","0","0","57161","","1260","","","68","80","","","2","80","training","adjacent","DE","4","5","M.jpg","O.jpg","0","1","0","",""
"","feedback","","html-keyboard-response","538","9021115","0.0-1.0-726.0-0.0","0","0","57161","","null","","","null","80","","","","","","","","","","","","","","","",""
"","time_out","","html-keyboard-response","539","9023119","0.0-1.0-728.0-0.0","0","0","57161","","null","","","null","80","","","","","","","","","","","","","","","",""
"","ITI","","html-keyboard-response","540","9024123","0.0-1.0-729.0","0","0","57161","","null","","","null","80","","","","","","","","","","","","","","","NaN",""
"","S1","","html-keyboard-response","541","9024383","0.0-1.0-731.0","0","0","57161","","null","","","null","81","","","","","","","","","","","","","","","",""
"","ISI","","html-keyboard-response","542","9026393","0.0-1.0-732.0","0","0","57161","","null","","","null","81","NaN","","","","","","","","","","","","","","",""
"","S2","","html-keyboard-response","543","9026652","0.0-1.0-733.0","0","0","57161","","null","","","null","81","","NaN","","","","","","","","","","","","","",""
"","response","","html-keyboard-response","544","9027069","0.0-1.0-734.0","0","0","57161","","414","","","68","81","","","2","81","training","adjacent","BC","2","3","R.jpg","N.jpg","0","1","0","",""
"","feedback","","html-keyboard-response","545","9028081","0.0-1.0-735.0-0.0","0","0","57161","","null","","","null","81","","","","","","","","","","","","","","","",""
"","time_out","","html-keyboard-response","546","9030087","0.0-1.0-737.0-0.0","0","0","57161","","null","","","null","81","","","","","","","","","","","","","","","",""
"","ITI","","html-keyboard-response","547","9031093","0.0-1.0-738.0","0","0","57161","","null","","","null","81","","","","","","","","","","","","","","","NaN",""
"","S1","","html-keyboard-response","548","9031348","0.0-1.0-740.0","0","0","57161","","null","","","null","82","","","","","","","","","","","","","","","",""
"","ISI","","html-keyboard-response","549","9033355","0.0-1.0-741.0","0","0","57161","","null","","","null","82","NaN","","","","","","","","","","","","","","",""
"","S2","","html-keyboard-response","550","9033611","0.0-1.0-742.0","0","0","57161","","null","","","null","82","","NaN","","","","","","","","","","","","","",""
"","response","","html-keyboard-response","551","9034205","0.0-1.0-743.0","0","0","57161","","590","","","68","82","","","2","82","training","adjacent","DC","4","3","M.jpg","N.jpg","0","0","1","",""
"","feedback","","html-keyboard-response","552","9035209","0.0-1.0-744.0-0.0","0","0","57161","","null","","","null","82","","","","","","","","","","","","","","","",""
"","ITI","","html-keyboard-response","553","9036213","0.0-1.0-747.0","0","0","57161","","null","","","null","82","","","","","","","","","","","","","","","NaN",""
"","S1","","html-keyboard-response","554","9036470","0.0-1.0-749.0","0","0","57161","","null","","","null","83","","","","","","","","","","","","","","","",""
"","ISI","","html-keyboard-response","555","9038480","0.0-1.0-750.0","0","0","57161","","null","","","null","83","NaN","","","","","","","","","","","","","","",""
"","S2","","html-keyboard-response","556","9038734","0.0-1.0-751.0","0","0","57161","","null","","","null","83","","NaN","","","","","","","","","","","","","",""
"","response","","html-keyboard-response","557","9039539","0.0-1.0-752.0","0","0","57161","","801","","","68","83","","","2","83","training","adjacent","ED","5","4","O.jpg","M.jpg","0","0","1","",""
"","feedback","","html-keyboard-response","558","9040543","0.0-1.0-753.0-0.0","0","0","57161","","null","","","null","83","","","","","","","","","","","","","","","",""
"","ITI","","html-keyboard-response","559","9041549","0.0-1.0-756.0","0","0","57161","","null","","","null","83","","","","","","","","","","","","","","","NaN",""
"","S1","","html-keyboard-response","560","9041808","0.0-1.0-758.0","0","0","57161","","null","","","null","84","","","","","","","","","","","","","","","",""
"","ISI","","html-keyboard-response","561","9043823","0.0-1.0-759.0","0","0","57161","","1584","","","68","84","d","","","","","","","","","","","","","","",""
"","S2","","html-keyboard-response","562","9044087","0.0-1.0-760.0","0","0","57161","","null","","","null","84","","NaN","","","","","","","","","","","","","",""
"","response","","html-keyboard-response","563","9044497","0.0-1.0-761.0","0","0","57161","","407","","","68","84","","","2","84","training","adjacent","ED","5","4","O.jpg","M.jpg","0","0","1","",""
"","feedback","","html-keyboard-response","564","9045503","0.0-1.0-762.0-0.0","0","0","57161","","null","","","null","84","","","","","","","","","","","","","","","",""
"","ITI","","html-keyboard-response","565","9046510","0.0-1.0-765.0","0","0","57161","","null","","","null","84","","","","","","","","","","","","","","","NaN",""
"","S1","","html-keyboard-response","566","9046770","0.0-1.0-767.0","0","0","57161","","null","","","null","85","","","","","","","","","","","","","","","",""
"","ISI","","html-keyboard-response","567","9048775","0.0-1.0-768.0","0","0","57161","","null","","","null","85","NaN","","","","","","","","","","","","","","",""
"","S2","","html-keyboard-response","568","9049031","0.0-1.0-769.0","0","0","57161","","null","","","null","85","","NaN","","","","","","","","","","","","","",""
"","response","","html-keyboard-response","569","9049067","0.0-1.0-770.0","0","0","57161","","33","","","75","85","","","2","85","training","adjacent","DC","4","3","M.jpg","N.jpg","1","0","0","",""
"","feedback","","html-keyboard-response","570","9050074","0.0-1.0-771.0-0.0","0","0","57161","","null","","","null","85","","","","","","","","","","","","","","","",""
"","time_out","","html-keyboard-response","571","9052083","0.0-1.0-773.0-0.0","0","0","57161","","null","","","null","85","","","","","","","","","","","","","","","",""
"","ITI","","html-keyboard-response","572","9053091","0.0-1.0-774.0","0","0","57161","","null","","","null","85","","","","","","","","","","","","","","","NaN",""
"","S1","","html-keyboard-response","573","9053348","0.0-1.0-776.0","0","0","57161","","null","","","null","86","","","","","","","","","","","","","","","",""
"","ISI","","html-keyboard-response","574","9055358","0.0-1.0-777.0","0","0","57161","","null","","","null","86","NaN","","","","","","","","","","","","","","",""
"","S2","","html-keyboard-response","575","9055611","0.0-1.0-778.0","0","0","57161","","null","","","null","86","","NaN","","","","","","","","","","","","","",""
"","response","","html-keyboard-response","576","9055774","0.0-1.0-779.0","0","0","57161","","161","","","68","86","","","2","86","training","adjacent","GF","7","6","L.jpg","Q.jpg","0","0","1","",""
"","feedback","","html-keyboard-response","577","9056780","0.0-1.0-780.0-0.0","0","0","57161","","null","","","null","86","","","","","","","","","","","","","","","",""
"","ITI","","html-keyboard-response","578","9057791","0.0-1.0-783.0","0","0","57161","","null","","","null","86","","","","","","","","","","","","","","","NaN",""
"","S1","","html-keyboard-response","579","9058043","0.0-1.0-785.0","0","0","57161","","null","","","null","87","","","","","","","","","","","","","","","",""
"","ISI","","html-keyboard-response","580","9060052","0.0-1.0-786.0","0","0","57161","","null","","","null","87","NaN","","","","","","","","","","","","","","",""
"","S2","","html-keyboard-response","581","9060307","0.0-1.0-787.0","0","0","57161","","null","","","null","87","","NaN","","","","","","","","","","","","","",""
