"success","ttype","start_time","trial_type","trial_index","time_elapsed","internal_node_id","warning","missed_checkup","PID","view_history","rt","responses","repeat_instructions","key_press","index","keypress_isi","keypress_S2","block","trial_num","phase","group_type","pair_type","S1_stim","S2_stim","S1_img","S2_img","S1_chosen","S1_higher","accuracy","keypress_iti","total_bonus_tally"
"true","full_screen","d04132023hr2127","fullscreen","0","8269","0.0-0.0","0","0","51823","","","","","","","","","","","","","","","","","","","","","",""
"","instructions","","instructions","1","29975","0.0-1.0-0.0-0.0","0","0","51823","[{""page_index"":0,""viewing_time"":3147},{""page_index"":1,""viewing_time"":9741},{""page_index"":2,""viewing_time"":6921},{""page_index"":3,""viewing_time"":1894}]","21703","","","","","","","","","","","","","","","","","","","",""
"","comprehension_check","","survey-multi-choice","2","67592","0.0-1.0-0.0-1.0","0","0","51823","","37613","{""Q0"":""True"",""Q1"":""K"",""Q2"":""Once the second image appears and while the screen 'MAKE A CHOICE' is shown"",""Q3"":""Green mark"",""Q4"":""either D or K""}","0","","","","","","","","","","","","","","","","","",""
"","start_exp","","html-keyboard-response","3","69893","0.0-1.0-1.0","0","0","51823","","2296","","","32","","","","","","","","","","","","","","","","",""
"","S1","","html-keyboard-response","4","70153","0.0-1.0-2.0","0","0","51823","","null","","","null","0","","","","","","","","","","","","","","","",""
"","ISI","","html-keyboard-response","5","71158","0.0-1.0-3.0","0","0","51823","","null","","","null","0","NaN","","","","","","","","","","","","","","",""
"","S2","","html-keyboard-response","6","71413","0.0-1.0-4.0","0","0","51823","","null","","","null","0","","NaN","","","","","","","","","","","","","",""
"","response","","html-keyboard-response","7","72174","0.0-1.0-5.0-0.0","0","0","51823","","758","","","68","0","","","1","0","training","adjacent","FE","6","5","Q.jpg","M.jpg","0","0","1","",""
"","feedback","","html-keyboard-response","8","73185","0.0-1.0-6.0-0.0","0","0","51823","","null","","","null","0","","","","","","","","","","","","","","","",""
"","ITI","","html-keyboard-response","9","74189","0.0-1.0-9.0","0","0","51823","","null","","","null","0","","","","","","","","","","","","","","","NaN",""
"","S1","","html-keyboard-response","10","74444","0.0-1.0-11.0","0","0","51823","","null","","","null","1","","","","","","","","","","","","","","","",""
"","ISI","","html-keyboard-response","11","75454","0.0-1.0-12.0","0","0","51823","","null","","","null","1","NaN","","","","","","","","","","","","","","",""
"","S2","","html-keyboard-response","12","75710","0.0-1.0-13.0","0","0","51823","","null","","","null","1","","NaN","","","","","","","","","","","","","",""
"","response","","html-keyboard-response","13","76818","0.0-1.0-14.0-0.0","0","0","51823","","1105","","","68","1","","","1","1","training","adjacent","FE","6","5","Q.jpg","M.jpg","0","0","1","",""
"","feedback","","html-keyboard-response","14","77828","0.0-1.0-15.0-0.0","0","0","51823","","null","","","null","1","","","","","","","","","","","","","","","",""
"","ITI","","html-keyboard-response","15","78838","0.0-1.0-18.0","0","0","51823","","null","","","null","1","","","","","","","","","","","","","","","NaN",""
"","S1","","html-keyboard-response","16","79094","0.0-1.0-20.0","0","0","51823","","null","","","null","2","","","","","","","","","","","","","","","",""
"","ISI","","html-keyboard-response","17","80104","0.0-1.0-21.0","0","0","51823","","null","","","null","2","NaN","","","","","","","","","","","","","","",""
"","S2","","html-keyboard-response","18","80366","0.0-1.0-22.0","0","0","51823","","null","","","null","2","","NaN","","","","","","","","","","","","","",""
"","response","","html-keyboard-response","19","80924","0.0-1.0-23.0-0.0","0","0","51823","","555","","","75","2","","","1","2","training","adjacent","CD","3","4","L.jpg","P.jpg","1","1","1","",""
"","feedback","","html-keyboard-response","20","81933","0.0-1.0-24.0-0.0","0","0","51823","","null","","","null","2","","","","","","","","","","","","","","","",""
"","ITI","","html-keyboard-response","21","82942","0.0-1.0-27.0","0","0","51823","","null","","","null","2","","","","","","","","","","","","","","","NaN",""
"","S1","","html-keyboard-response","22","83197","0.0-1.0-29.0","0","0","51823","","null","","","null","3","","","","","","","","","","","","","","","",""
"","ISI","","html-keyboard-response","23","84208","0.0-1.0-30.0","0","0","51823","","null","","","null","3","NaN","","","","","","","","","","","","","","",""
"","S2","","html-keyboard-response","24","84468","0.0-1.0-31.0","0","0","51823","","null","","","null","3","","NaN","","","","","","","","","","","","","",""
"","response","","html-keyboard-response","25","84992","0.0-1.0-32.0-0.0","0","0","51823","","522","","","75","3","","","1","3","training","adjacent","EF","5","6","M.jpg","Q.jpg","1","1","1","",""
"","feedback","","html-keyboard-response","26","86001","0.0-1.0-33.0-0.0","0","0","51823","","null","","","null","3","","","","","","","","","","","","","","","",""
"","ITI","","html-keyboard-response","27","87005","0.0-1.0-36.0","0","0","51823","","null","","","null","3","","","","","","","","","","","","","","","NaN",""
"","S1","","html-keyboard-response","28","87260","0.0-1.0-38.0","0","0","51823","","null","","","null","4","","","","","","","","","","","","","","","",""
"","ISI","","html-keyboard-response","29","88270","0.0-1.0-39.0","0","0","51823","","null","","","null","4","NaN","","","","","","","","","","","","","","",""
"","S2","","html-keyboard-response","30","88526","0.0-1.0-40.0","0","0","51823","","null","","","null","4","","NaN","","","","","","","","","","","","","",""
"","response","","html-keyboard-response","31","89067","0.0-1.0-41.0-0.0","0","0","51823","","538","","","68","4","","","1","4","training","adjacent","DC","4","3","P.jpg","L.jpg","0","0","1","",""
"","feedback","","html-keyboard-response","32","90076","0.0-1.0-42.0-0.0","0","0","51823","","null","","","null","4","","","","","","","","","","","","","","","",""
"","ITI","","html-keyboard-response","33","91086","0.0-1.0-45.0","0","0","51823","","null","","","null","4","","","","","","","","","","","","","","","NaN",""
"","S1","","html-keyboard-response","34","91342","0.0-1.0-47.0","0","0","51823","","null","","","null","5","","","","","","","","","","","","","","","",""
"","ISI","","html-keyboard-response","35","92352","0.0-1.0-48.0","0","0","51823","","null","","","null","5","NaN","","","","","","","","","","","","","","",""
"","S2","","html-keyboard-response","36","92607","0.0-1.0-49.0","0","0","51823","","null","","","null","5","","NaN","","","","","","","","","","","","","",""
"","response","","html-keyboard-response","37","92833","0.0-1.0-50.0-0.0","0","0","51823","","224","","","75","5","","","1","5","training","adjacent","GF","7","6","O.jpg","Q.jpg","1","0","0","",""
"","feedback","","html-keyboard-response","38","93837","0.0-1.0-51.0-0.0","0","0","51823","","null","","","null","5","","","","","","","","","","","","","","","",""
"","time_out","","html-keyboard-response","39","95846","0.0-1.0-53.0-0.0","0","0","51823","","null","","","null","5","","","","","","","","","","","","","","","",""
"","ITI","","html-keyboard-response","40","96851","0.0-1.0-54.0","0","0","51823","","null","","","null","5","","","","","","","","","","","","","","","NaN",""
"","S1","","html-keyboard-response","41","97107","0.0-1.0-56.0","0","0","51823","","null","","","null","6","","","","","","","","","","","","","","","",""
"","ISI","","html-keyboard-response","42","98109","0.0-1.0-57.0","0","0","51823","","null","","","null","6","NaN","","","","","","","","","","","","","","",""
"","S2","","html-keyboard-response","43","98366","0.0-1.0-58.0","0","0","51823","","null","","","null","6","","NaN","","","","","","","","","","","","","",""
"","response","","html-keyboard-response","44","98688","0.0-1.0-59.0-0.0","0","0","51823","","321","","","68","6","","","1","6","training","adjacent","CD","3","4","L.jpg","P.jpg","0","1","0","",""
"","feedback","","html-keyboard-response","45","99695","0.0-1.0-60.0-0.0","0","0","51823","","null","","","null","6","","","","","","","","","","","","","","","",""
"","time_out","","html-keyboard-response","46","101702","0.0-1.0-62.0-0.0","0","0","51823","","null","","","null","6","","","","","","","","","","","","","","","",""
"","ITI","","html-keyboard-response","47","102708","0.0-1.0-63.0","0","0","51823","","null","","","null","6","","","","","","","","","","","","","","","NaN",""
"","S1","","html-keyboard-response","48","102964","0.0-1.0-65.0","0","0","51823","","null","","","null","7","","","","","","","","","","","","","","","",""
"","ISI","","html-keyboard-response","49","103972","0.0-1.0-66.0","0","0","51823","","null","","","null","7","NaN","","","","","","","","","","","","","","",""
"","S2","","html-keyboard-response","50","104228","0.0-1.0-67.0","0","0","51823","","null","","","null","7","","NaN","","","","","","","","","","","","","",""
"","response","","html-keyboard-response","51","104655","0.0-1.0-68.0-0.0","0","0","51823","","425","","","75","7","","","1","7","training","adjacent","ED","5","4","M.jpg","P.jpg","1","0","0","",""
"","feedback","","html-keyboard-response","52","105662","0.0-1.0-69.0-0.0","0","0","51823","","null","","","null","7","","","","","","","","","","","","","","","",""
"","time_out","","html-keyboard-response","53","107670","0.0-1.0-71.0-0.0","0","0","51823","","null","","","null","7","","","","","","","","","","","","","","","",""
"","ITI","","html-keyboard-response","54","108681","0.0-1.0-72.0","0","0","51823","","null","","","null","7","","","","","","","","","","","","","","","NaN",""
"","S1","","html-keyboard-response","55","108943","0.0-1.0-74.0","0","0","51823","","null","","","null","8","","","","","","","","","","","","","","","",""
"","ISI","","html-keyboard-response","56","109948","0.0-1.0-75.0","0","0","51823","","null","","","null","8","NaN","","","","","","","","","","","","","","",""
"","S2","","html-keyboard-response","57","110207","0.0-1.0-76.0","0","0","51823","","null","","","null","8","","NaN","","","","","","","","","","","","","",""
"","response","","html-keyboard-response","58","110768","0.0-1.0-77.0-0.0","0","0","51823","","559","","","75","8","","","1","8","training","adjacent","AB","1","2","N.jpg","R.jpg","1","1","1","",""
"","feedback","","html-keyboard-response","59","111774","0.0-1.0-78.0-0.0","0","0","51823","","null","","","null","8","","","","","","","","","","","","","","","",""
"","ITI","","html-keyboard-response","60","112781","0.0-1.0-81.0","0","0","51823","","null","","","null","8","","","","","","","","","","","","","","","NaN",""
"","S1","","html-keyboard-response","61","113037","0.0-1.0-83.0","0","0","51823","","null","","","null","9","","","","","","","","","","","","","","","",""
"","ISI","","html-keyboard-response","62","114045","0.0-1.0-84.0","0","0","51823","","null","","","null","9","NaN","","","","","","","","","","","","","","",""
"","S2","","html-keyboard-response","63","114301","0.0-1.0-85.0","0","0","51823","","null","","","null","9","","NaN","","","","","","","","","","","","","",""
"","response","","html-keyboard-response","64","114856","0.0-1.0-86.0-0.0","0","0","51823","","552","","","75","9","","","1","9","training","adjacent","ED","5","4","M.jpg","P.jpg","1","0","0","",""
"","feedback","","html-keyboard-response","65","115862","0.0-1.0-87.0-0.0","0","0","51823","","null","","","null","9","","","","","","","","","","","","","","","",""
"","time_out","","html-keyboard-response","66","117870","0.0-1.0-89.0-0.0","0","0","51823","","null","","","null","9","","","","","","","","","","","","","","","",""
"","ITI","","html-keyboard-response","67","118880","0.0-1.0-90.0","0","0","51823","","null","","","null","9","","","","","","","","","","","","","","","NaN",""
"","S1","","html-keyboard-response","68","119142","0.0-1.0-92.0","0","0","51823","","null","","","null","10","","","","","","","","","","","","","","","",""
"","ISI","","html-keyboard-response","69","120151","0.0-1.0-93.0","0","0","51823","","null","","","null","10","NaN","","","","","","","","","","","","","","",""
"","S2","","html-keyboard-response","70","120414","0.0-1.0-94.0","0","0","51823","","null","","","null","10","","NaN","","","","","","","","","","","","","",""
"","response","","html-keyboard-response","71","120839","0.0-1.0-95.0-0.0","0","0","51823","","423","","","68","10","","","1","10","training","adjacent","BC","2","3","R.jpg","L.jpg","0","1","0","",""
"","feedback","","html-keyboard-response","72","121848","0.0-1.0-96.0-0.0","0","0","51823","","null","","","null","10","","","","","","","","","","","","","","","",""
"","time_out","","html-keyboard-response","73","123855","0.0-1.0-98.0-0.0","0","0","51823","","null","","","null","10","","","","","","","","","","","","","","","",""
"","ITI","","html-keyboard-response","74","124861","0.0-1.0-99.0","0","0","51823","","null","","","null","10","","","","","","","","","","","","","","","NaN",""
"","S1","","html-keyboard-response","75","125123","0.0-1.0-101.0","0","0","51823","","null","","","null","11","","","","","","","","","","","","","","","",""
"","ISI","","html-keyboard-response","76","126134","0.0-1.0-102.0","0","0","51823","","null","","","null","11","NaN","","","","","","","","","","","","","","",""
"","S2","","html-keyboard-response","77","126392","0.0-1.0-103.0","0","0","51823","","null","","","null","11","","NaN","","","","","","","","","","","","","",""
"","response","","html-keyboard-response","78","126692","0.0-1.0-104.0-0.0","0","0","51823","","297","","","68","11","","","1","11","training","adjacent","DE","4","5","P.jpg","M.jpg","0","1","0","",""
"","feedback","","html-keyboard-response","79","127704","0.0-1.0-105.0-0.0","0","0","51823","","null","","","null","11","","","","","","","","","","","","","","","",""
"","time_out","","html-keyboard-response","80","129708","0.0-1.0-107.0-0.0","0","0","51823","","null","","","null","11","","","","","","","","","","","","","","","",""
"","ITI","","html-keyboard-response","81","130717","0.0-1.0-108.0","0","0","51823","","null","","","null","11","","","","","","","","","","","","","","","NaN",""
"","S1","","html-keyboard-response","82","130972","0.0-1.0-110.0","0","0","51823","","null","","","null","12","","","","","","","","","","","","","","","",""
"","ISI","","html-keyboard-response","83","131982","0.0-1.0-111.0","0","0","51823","","null","","","null","12","NaN","","","","","","","","","","","","","","",""
"","S2","","html-keyboard-response","84","132238","0.0-1.0-112.0","0","0","51823","","null","","","null","12","","NaN","","","","","","","","","","","","","",""
"","response","","html-keyboard-response","85","132836","0.0-1.0-113.0-0.0","0","0","51823","","597","","","75","12","","","1","12","training","adjacent","FG","6","7","Q.jpg","O.jpg","1","1","1","",""
"","feedback","","html-keyboard-response","86","133846","0.0-1.0-114.0-0.0","0","0","51823","","null","","","null","12","","","","","","","","","","","","","","","",""
"","ITI","","html-keyboard-response","87","134855","0.0-1.0-117.0","0","0","51823","","null","","","null","12","","","","","","","","","","","","","","","NaN",""
"","S1","","html-keyboard-response","88","135109","0.0-1.0-119.0","0","0","51823","","null","","","null","13","","","","","","","","","","","","","","","",""
"","ISI","","html-keyboard-response","89","136115","0.0-1.0-120.0","0","0","51823","","null","","","null","13","NaN","","","","","","","","","","","","","","",""
"","S2","","html-keyboard-response","90","136372","0.0-1.0-121.0","0","0","51823","","null","","","null","13","","NaN","","","","","","","","","","","","","",""
"","response","","html-keyboard-response","91","136750","0.0-1.0-122.0-0.0","0","0","51823","","375","","","75","13","","","1","13","training","adjacent","DE","4","5","P.jpg","M.jpg","1","1","1","",""
"","feedback","","html-keyboard-response","92","137758","0.0-1.0-123.0-0.0","0","0","51823","","null","","","null","13","","","","","","","","","","","","","","","",""
"","ITI","","html-keyboard-response","93","138768","0.0-1.0-126.0","0","0","51823","","null","","","null","13","","","","","","","","","","","","","","","NaN",""
"","S1","","html-keyboard-response","94","139030","0.0-1.0-128.0","0","0","51823","","null","","","null","14","","","","","","","","","","","","","","","",""
"","ISI","","html-keyboard-response","95","140040","0.0-1.0-129.0","0","0","51823","","null","","","null","14","NaN","","","","","","","","","","","","","","",""
"","S2","","html-keyboard-response","96","140301","0.0-1.0-130.0","0","0","51823","","null","","","null","14","","NaN","","","","","","","","","","","","","",""
"","response","","html-keyboard-response","97","140440","0.0-1.0-131.0-0.0","0","0","51823","","138","","","75","14","","","1","14","training","adjacent","ED","5","4","M.jpg","P.jpg","1","0","0","",""
"","feedback","","html-keyboard-response","98","141444","0.0-1.0-132.0-0.0","0","0","51823","","null","","","null","14","","","","","","","","","","","","","","","",""
"","time_out","","html-keyboard-response","99","143452","0.0-1.0-134.0-0.0","0","0","51823","","null","","","null","14","","","","","","","","","","","","","","","",""
"","ITI","","html-keyboard-response","100","144462","0.0-1.0-135.0","0","0","51823","","null","","","null","14","","","","","","","","","","","","","","","NaN",""
"","S1","","html-keyboard-response","101","144719","0.0-1.0-137.0","0","0","51823","","null","","","null","15","","","","","","","","","","","","","","","",""
"","ISI","","html-keyboard-response","102","145729","0.0-1.0-138.0","0","0","51823","","null","","","null","15","NaN","","","","","","","","","","","","","","",""
"","S2","","html-keyboard-response","103","145989","0.0-1.0-139.0","0","0","51823","","null","","","null","15","","NaN","","","","","","","","","","","","","",""
"","response","","html-keyboard-response","104","146613","0.0-1.0-140.0-0.0","0","0","51823","","622","","","75","15","","","1","15","training","adjacent","DE","4","5","P.jpg","M.jpg","1","1","1","",""
"","feedback","","html-keyboard-response","105","147622","0.0-1.0-141.0-0.0","0","0","51823","","null","","","null","15","","","","","","","","","","","","","","","",""
"","ITI","","html-keyboard-response","106","148626","0.0-1.0-144.0","0","0","51823","","null","","","null","15","","","","","","","","","","","","","","","NaN",""
"","S1","","html-keyboard-response","107","148886","0.0-1.0-146.0","0","0","51823","","null","","","null","16","","","","","","","","","","","","","","","",""
"","ISI","","html-keyboard-response","108","149897","0.0-1.0-147.0","0","0","51823","","null","","","null","16","NaN","","","","","","","","","","","","","","",""
"","S2","","html-keyboard-response","109","150157","0.0-1.0-148.0","0","0","51823","","null","","","null","16","","NaN","","","","","","","","","","","","","",""
"","response","","html-keyboard-response","110","150654","0.0-1.0-149.0-0.0","0","0","51823","","494","","","68","16","","","1","16","training","adjacent","GF","7","6","O.jpg","Q.jpg","0","0","1","",""
"","feedback","","html-keyboard-response","111","151661","0.0-1.0-150.0-0.0","0","0","51823","","null","","","null","16","","","","","","","","","","","","","","","",""
"","ITI","","html-keyboard-response","112","152672","0.0-1.0-153.0","0","0","51823","","null","","","null","16","","","","","","","","","","","","","","","NaN",""
"","S1","","html-keyboard-response","113","152932","0.0-1.0-155.0","0","0","51823","","null","","","null","17","","","","","","","","","","","","","","","",""
"","ISI","","html-keyboard-response","114","153942","0.0-1.0-156.0","0","0","51823","","null","","","null","17","NaN","","","","","","","","","","","","","","",""
"","S2","","html-keyboard-response","115","154198","0.0-1.0-157.0","0","0","51823","","null","","","null","17","","NaN","","","","","","","","","","","","","",""
"","response","","html-keyboard-response","116","154733","0.0-1.0-158.0-0.0","0","0","51823","","533","","","68","17","","","1","17","training","adjacent","CB","3","2","L.jpg","R.jpg","0","0","1","",""
"","feedback","","html-keyboard-response","117","155742","0.0-1.0-159.0-0.0","0","0","51823","","null","","","null","17","","","","","","","","","","","","","","","",""
"","ITI","","html-keyboard-response","118","156752","0.0-1.0-162.0","0","0","51823","","null","","","null","17","","","","","","","","","","","","","","","NaN",""
"","S1","","html-keyboard-response","119","157016","0.0-1.0-164.0","0","0","51823","","null","","","null","18","","","","","","","","","","","","","","","",""
"","ISI","","html-keyboard-response","120","158024","0.0-1.0-165.0","0","0","51823","","null","","","null","18","NaN","","","","","","","","","","","","","","",""
"","S2","","html-keyboard-response","121","158285","0.0-1.0-166.0","0","0","51823","","null","","","null","18","","NaN","","","","","","","","","","","","","",""
"","response","","html-keyboard-response","122","158833","0.0-1.0-167.0-0.0","0","0","51823","","545","","","75","18","","","1","18","training","adjacent","CB","3","2","L.jpg","R.jpg","1","0","0","",""
"","feedback","","html-keyboard-response","123","159837","0.0-1.0-168.0-0.0","0","0","51823","","null","","","null","18","","","","","","","","","","","","","","","",""
"","time_out","","html-keyboard-response","124","161844","0.0-1.0-170.0-0.0","0","0","51823","","null","","","null","18","","","","","","","","","","","","","","","",""
"","ITI","","html-keyboard-response","125","162852","0.0-1.0-171.0","0","0","51823","","null","","","null","18","","","","","","","","","","","","","","","NaN",""
"","S1","","html-keyboard-response","126","163108","0.0-1.0-173.0","0","0","51823","","null","","","null","19","","","","","","","","","","","","","","","",""
"","ISI","","html-keyboard-response","127","164118","0.0-1.0-174.0","0","0","51823","","null","","","null","19","NaN","","","","","","","","","","","","","","",""
"","S2","","html-keyboard-response","128","164374","0.0-1.0-175.0","0","0","51823","","null","","","null","19","","NaN","","","","","","","","","","","","","",""
"","response","","html-keyboard-response","129","164738","0.0-1.0-176.0-0.0","0","0","51823","","362","","","68","19","","","1","19","training","adjacent","CB","3","2","L.jpg","R.jpg","0","0","1","",""
"","feedback","","html-keyboard-response","130","165749","0.0-1.0-177.0-0.0","0","0","51823","","null","","","null","19","","","","","","","","","","","","","","","",""
"","ITI","","html-keyboard-response","131","166760","0.0-1.0-180.0","0","0","51823","","null","","","null","19","","","","","","","","","","","","","","","NaN",""
"","S1","","html-keyboard-response","132","167021","0.0-1.0-182.0","0","0","51823","","null","","","null","20","","","","","","","","","","","","","","","",""
"","ISI","","html-keyboard-response","133","168031","0.0-1.0-183.0","0","0","51823","","null","","","null","20","NaN","","","","","","","","","","","","","","",""
"","S2","","html-keyboard-response","134","168287","0.0-1.0-184.0","0","0","51823","","null","","","null","20","","NaN","","","","","","","","","","","","","",""
"","response","","html-keyboard-response","135","169417","0.0-1.0-185.0-0.0","0","0","51823","","1128","","","75","20","","","1","20","training","adjacent","BA","2","1","R.jpg","N.jpg","1","0","0","",""
"","feedback","","html-keyboard-response","136","170422","0.0-1.0-186.0-0.0","0","0","51823","","null","","","null","20","","","","","","","","","","","","","","","",""
"","time_out","","html-keyboard-response","137","172431","0.0-1.0-188.0-0.0","0","0","51823","","null","","","null","20","","","","","","","","","","","","","","","",""
"","ITI","","html-keyboard-response","138","173435","0.0-1.0-189.0","0","0","51823","","null","","","null","20","","","","","","","","","","","","","","","NaN",""
"","S1","","html-keyboard-response","139","173697","0.0-1.0-191.0","0","0","51823","","null","","","null","21","","","","","","","","","","","","","","","",""
"","ISI","","html-keyboard-response","140","174702","0.0-1.0-192.0","0","0","51823","","null","","","null","21","NaN","","","","","","","","","","","","","","",""
"","S2","","html-keyboard-response","141","174957","0.0-1.0-193.0","0","0","51823","","null","","","null","21","","NaN","","","","","","","","","","","","","",""
"","response","","html-keyboard-response","142","175537","0.0-1.0-194.0-0.0","0","0","51823","","577","","","68","21","","","1","21","training","adjacent","EF","5","6","M.jpg","Q.jpg","0","1","0","",""
"","feedback","","html-keyboard-response","143","176542","0.0-1.0-195.0-0.0","0","0","51823","","null","","","null","21","","","","","","","","","","","","","","","",""
"","time_out","","html-keyboard-response","144","178550","0.0-1.0-197.0-0.0","0","0","51823","","null","","","null","21","","","","","","","","","","","","","","","",""
"","ITI","","html-keyboard-response","145","179559","0.0-1.0-198.0","0","0","51823","","null","","","null","21","","","","","","","","","","","","","","","NaN",""
"","S1","","html-keyboard-response","146","179816","0.0-1.0-200.0","0","0","51823","","null","","","null","22","","","","","","","","","","","","","","","",""
"","ISI","","html-keyboard-response","147","180819","0.0-1.0-201.0","0","0","51823","","null","","","null","22","NaN","","","","","","","","","","","","","","",""
"","S2","","html-keyboard-response","148","181080","0.0-1.0-202.0","0","0","51823","","null","","","null","22","","NaN","","","","","","","","","","","","","",""
"","response","","html-keyboard-response","149","181620","0.0-1.0-203.0-0.0","0","0","51823","","538","","","75","22","","","1","22","training","adjacent","DC","4","3","P.jpg","L.jpg","1","0","0","",""
"","feedback","","html-keyboard-response","150","182631","0.0-1.0-204.0-0.0","0","0","51823","","null","","","null","22","","","","","","","","","","","","","","","",""
"","time_out","","html-keyboard-response","151","184640","0.0-1.0-206.0-0.0","0","0","51823","","null","","","null","22","","","","","","","","","","","","","","","",""
"","ITI","","html-keyboard-response","152","185644","0.0-1.0-207.0","0","0","51823","","null","","","null","22","","","","","","","","","","","","","","","NaN",""
"","S1","","html-keyboard-response","153","185901","0.0-1.0-209.0","0","0","51823","","null","","","null","23","","","","","","","","","","","","","","","",""
"","ISI","","html-keyboard-response","154","186909","0.0-1.0-210.0","0","0","51823","","null","","","null","23","NaN","","","","","","","","","","","","","","",""
"","S2","","html-keyboard-response","155","187165","0.0-1.0-211.0","0","0","51823","","null","","","null","23","","NaN","","","","","","","","","","","","","",""
"","response","","html-keyboard-response","156","188225","0.0-1.0-212.0-0.0","0","0","51823","","1058","","","68","23","","","1","23","training","adjacent","AB","1","2","N.jpg","R.jpg","0","1","0","",""
"","feedback","","html-keyboard-response","157","189232","0.0-1.0-213.0-0.0","0","0","51823","","null","","","null","23","","","","","","","","","","","","","","","",""
"","time_out","","html-keyboard-response","158","191240","0.0-1.0-215.0-0.0","0","0","51823","","null","","","null","23","","","","","","","","","","","","","","","",""
"","ITI","","html-keyboard-response","159","192245","0.0-1.0-216.0","0","0","51823","","null","","","null","23","","","","","","","","","","","","","","","NaN",""
"","S1","","html-keyboard-response","160","192505","0.0-1.0-218.0","0","0","51823","","null","","","null","24","","","","","","","","","","","","","","","",""
"","ISI","","html-keyboard-response","161","193510","0.0-1.0-219.0","0","0","51823","","null","","","null","24","NaN","","","","","","","","","","","","","","",""
"","S2","","html-keyboard-response","162","193765","0.0-1.0-220.0","0","0","51823","","null","","","null","24","","NaN","","","","","","","","","","","","","",""
"","response","","html-keyboard-response","163","194549","0.0-1.0-221.0-0.0","0","0","51823","","782","","","68","24","","","1","24","training","adjacent","FE","6","5","Q.jpg","M.jpg","0","0","1","",""
"","feedback","","html-keyboard-response","164","195558","0.0-1.0-222.0-0.0","0","0","51823","","null","","","null","24","","","","","","","","","","","","","","","",""
"","ITI","","html-keyboard-response","165","196568","0.0-1.0-225.0","0","0","51823","","null","","","null","24","","","","","","","","","","","","","","","NaN",""
"","S1","","html-keyboard-response","166","196830","0.0-1.0-227.0","0","0","51823","","null","","","null","25","","","","","","","","","","","","","","","",""
"","ISI","","html-keyboard-response","167","197840","0.0-1.0-228.0","0","0","51823","","null","","","null","25","NaN","","","","","","","","","","","","","","",""
"","S2","","html-keyboard-response","168","198102","0.0-1.0-229.0","0","0","51823","","null","","","null","25","","NaN","","","","","","","","","","","","","",""
"","response","","html-keyboard-response","169","198771","0.0-1.0-230.0-0.0","0","0","51823","","667","","","75","25","","","1","25","training","adjacent","FG","6","7","Q.jpg","O.jpg","1","1","1","",""
"","feedback","","html-keyboard-response","170","199781","0.0-1.0-231.0-0.0","0","0","51823","","null","","","null","25","","","","","","","","","","","","","","","",""
"","ITI","","html-keyboard-response","171","200788","0.0-1.0-234.0","0","0","51823","","null","","","null","25","","","","","","","","","","","","","","","NaN",""
"","S1","","html-keyboard-response","172","201044","0.0-1.0-236.0","0","0","51823","","null","","","null","26","","","","","","","","","","","","","","","",""
"","ISI","","html-keyboard-response","173","202054","0.0-1.0-237.0","0","0","51823","","null","","","null","26","NaN","","","","","","","","","","","","","","",""
"","S2","","html-keyboard-response","174","202310","0.0-1.0-238.0","0","0","51823","","null","","","null","26","","NaN","","","","","","","","","","","","","",""
"","response","","html-keyboard-response","175","202738","0.0-1.0-239.0-0.0","0","0","51823","","426","","","75","26","","","1","26","training","adjacent","AB","1","2","N.jpg","R.jpg","1","1","1","",""
"","feedback","","html-keyboard-response","176","203748","0.0-1.0-240.0-0.0","0","0","51823","","null","","","null","26","","","","","","","","","","","","","","","",""
"","ITI","","html-keyboard-response","177","204760","0.0-1.0-243.0","0","0","51823","","null","","","null","26","","","","","","","","","","","","","","","NaN",""
"","S1","","html-keyboard-response","178","205020","0.0-1.0-245.0","0","0","51823","","null","","","null","27","","","","","","","","","","","","","","","",""
"","ISI","","html-keyboard-response","179","206031","0.0-1.0-246.0","0","0","51823","","null","","","null","27","NaN","","","","","","","","","","","","","","",""
"","S2","","html-keyboard-response","180","206286","0.0-1.0-247.0","0","0","51823","","null","","","null","27","","NaN","","","","","","","","","","","","","",""
"","response","","html-keyboard-response","181","207291","0.0-1.0-248.0-0.0","0","0","51823","","1003","","","75","27","","","1","27","training","adjacent","EF","5","6","M.jpg","Q.jpg","1","1","1","",""
"","feedback","","html-keyboard-response","182","208300","0.0-1.0-249.0-0.0","0","0","51823","","null","","","null","27","","","","","","","","","","","","","","","",""
"","ITI","","html-keyboard-response","183","209310","0.0-1.0-252.0","0","0","51823","","null","","","null","27","","","","","","","","","","","","","","","NaN",""
"","S1","","html-keyboard-response","184","209565","0.0-1.0-254.0","0","0","51823","","null","","","null","28","","","","","","","","","","","","","","","",""
"","ISI","","html-keyboard-response","185","210576","0.0-1.0-255.0","0","0","51823","","null","","","null","28","NaN","","","","","","","","","","","","","","",""
"","S2","","html-keyboard-response","186","210837","0.0-1.0-256.0","0","0","51823","","null","","","null","28","","NaN","","","","","","","","","","","","","",""
"","response","","html-keyboard-response","187","211552","0.0-1.0-257.0-0.0","0","0","51823","","714","","","68","28","","","1","28","training","adjacent","BC","2","3","R.jpg","L.jpg","0","1","0","",""
"","feedback","","html-keyboard-response","188","212556","0.0-1.0-258.0-0.0","0","0","51823","","null","","","null","28","","","","","","","","","","","","","","","",""
"","time_out","","html-keyboard-response","189","214564","0.0-1.0-260.0-0.0","0","0","51823","","null","","","null","28","","","","","","","","","","","","","","","",""
"","ITI","","html-keyboard-response","190","215573","0.0-1.0-261.0","0","0","51823","","null","","","null","28","","","","","","","","","","","","","","","NaN",""
"","S1","","html-keyboard-response","191","215830","0.0-1.0-263.0","0","0","51823","","null","","","null","29","","","","","","","","","","","","","","","",""
"","ISI","","html-keyboard-response","192","216839","0.0-1.0-264.0","0","0","51823","","null","","","null","29","NaN","","","","","","","","","","","","","","",""
"","S2","","html-keyboard-response","193","217095","0.0-1.0-265.0","0","0","51823","","null","","","null","29","","NaN","","","","","","","","","","","","","",""
"","response","","html-keyboard-response","194","217551","0.0-1.0-266.0-0.0","0","0","51823","","454","","","68","29","","","1","29","training","adjacent","CB","3","2","L.jpg","R.jpg","0","0","1","",""
"","feedback","","html-keyboard-response","195","218559","0.0-1.0-267.0-0.0","0","0","51823","","null","","","null","29","","","","","","","","","","","","","","","",""
"","ITI","","html-keyboard-response","196","219568","0.0-1.0-270.0","0","0","51823","","null","","","null","29","","","","","","","","","","","","","","","NaN",""
"","S1","","html-keyboard-response","197","219829","0.0-1.0-272.0","0","0","51823","","null","","","null","30","","","","","","","","","","","","","","","",""
"","ISI","","html-keyboard-response","198","220840","0.0-1.0-273.0","0","0","51823","","null","","","null","30","NaN","","","","","","","","","","","","","","",""
"","S2","","html-keyboard-response","199","221100","0.0-1.0-274.0","0","0","51823","","null","","","null","30","","NaN","","","","","","","","","","","","","",""
"","response","","html-keyboard-response","200","221710","0.0-1.0-275.0-0.0","0","0","51823","","607","","","68","30","","","1","30","training","adjacent","DE","4","5","P.jpg","M.jpg","0","1","0","",""
"","feedback","","html-keyboard-response","201","222720","0.0-1.0-276.0-0.0","0","0","51823","","null","","","null","30","","","","","","","","","","","","","","","",""
"","time_out","","html-keyboard-response","202","224725","0.0-1.0-278.0-0.0","0","0","51823","","null","","","null","30","","","","","","","","","","","","","","","",""
"","ITI","","html-keyboard-response","203","225733","0.0-1.0-279.0","0","0","51823","","null","","","null","30","","","","","","","","","","","","","","","NaN",""
"","S1","","html-keyboard-response","204","225989","0.0-1.0-281.0","0","0","51823","","null","","","null","31","","","","","","","","","","","","","","","",""
"","ISI","","html-keyboard-response","205","226993","0.0-1.0-282.0","0","0","51823","","null","","","null","31","NaN","","","","","","","","","","","","","","",""
"","S2","","html-keyboard-response","206","227254","0.0-1.0-283.0","0","0","51823","","null","","","null","31","","NaN","","","","","","","","","","","","","",""
"","response","","html-keyboard-response","207","227767","0.0-1.0-284.0-0.0","0","0","51823","","510","","","68","31","","","1","31","training","adjacent","FG","6","7","Q.jpg","O.jpg","0","1","0","",""
"","feedback","","html-keyboard-response","208","228775","0.0-1.0-285.0-0.0","0","0","51823","","null","","","null","31","","","","","","","","","","","","","","","",""
"","time_out","","html-keyboard-response","209","230781","0.0-1.0-287.0-0.0","0","0","51823","","null","","","null","31","","","","","","","","","","","","","","","",""
"","ITI","","html-keyboard-response","210","231792","0.0-1.0-288.0","0","0","51823","","null","","","null","31","","","","","","","","","","","","","","","NaN",""
"","S1","","html-keyboard-response","211","232055","0.0-1.0-290.0","0","0","51823","","null","","","null","32","","","","","","","","","","","","","","","",""
"","ISI","","html-keyboard-response","212","233064","0.0-1.0-291.0","0","0","51823","","null","","","null","32","NaN","","","","","","","","","","","","","","",""
"","S2","","html-keyboard-response","213","233282","0.0-1.0-292.0","0","0","51823","","216","","","75","32","","k","1","32","training","adjacent","BA","2","1","R.jpg","N.jpg","1","0","0","",""
"","feedback","","html-keyboard-response","214","234296","0.0-1.0-294.0-0.0","0","0","51823","","null","","","null","32","","","","","","","","","","","","","","","",""
"","time_out","","html-keyboard-response","215","236305","0.0-1.0-296.0-0.0","0","0","51823","","null","","","null","32","","","","","","","","","","","","","","","",""
"","ITI","","html-keyboard-response","216","237308","0.0-1.0-297.0","0","0","51823","","null","","","null","32","","","","","","","","","","","","","","","NaN",""
"","S1","","html-keyboard-response","217","237569","0.0-1.0-299.0","0","0","51823","","null","","","null","33","","","","","","","","","","","","","","","",""
"","ISI","","html-keyboard-response","218","238573","0.0-1.0-300.0","0","0","51823","","null","","","null","33","NaN","","","","","","","","","","","","","","",""
"","S2","","html-keyboard-response","219","238830","0.0-1.0-301.0","0","0","51823","","null","","","null","33","","NaN","","","","","","","","","","","","","",""
"","response","","html-keyboard-response","220","239114","0.0-1.0-302.0-0.0","0","0","51823","","282","","","75","33","","","1","33","training","adjacent","FE","6","5","Q.jpg","M.jpg","1","0","0","",""
"","feedback","","html-keyboard-response","221","240117","0.0-1.0-303.0-0.0","0","0","51823","","null","","","null","33","","","","","","","","","","","","","","","",""
"","time_out","","html-keyboard-response","222","242070","0.0-1.0-305.0-0.0","0","0","51823","","null","","","null","33","","","","","","","","","","","","","","","",""
"","ITI","","html-keyboard-response","223","243080","0.0-1.0-306.0","0","0","51823","","null","","","null","33","","","","","","","","","","","","","","","NaN",""
"","S1","","html-keyboard-response","224","243336","0.0-1.0-308.0","0","0","51823","","null","","","null","34","","","","","","","","","","","","","","","",""
"","ISI","","html-keyboard-response","225","244341","0.0-1.0-309.0","0","0","51823","","null","","","null","34","NaN","","","","","","","","","","","","","","",""
"","S2","","html-keyboard-response","226","244602","0.0-1.0-310.0","0","0","51823","","null","","","null","34","","NaN","","","","","","","","","","","","","",""
"","response","","html-keyboard-response","227","244929","0.0-1.0-311.0-0.0","0","0","51823","","324","","","75","34","","","1","34","training","adjacent","AB","1","2","N.jpg","R.jpg","1","1","1","",""
"","feedback","","html-keyboard-response","228","245938","0.0-1.0-312.0-0.0","0","0","51823","","null","","","null","34","","","","","","","","","","","","","","","",""
"","ITI","","html-keyboard-response","229","246941","0.0-1.0-315.0","0","0","51823","","null","","","null","34","","","","","","","","","","","","","","","NaN",""
"","S1","","html-keyboard-response","230","247202","0.0-1.0-317.0","0","0","51823","","null","","","null","35","","","","","","","","","","","","","","","",""
"","ISI","","html-keyboard-response","231","248207","0.0-1.0-318.0","0","0","51823","","null","","","null","35","NaN","","","","","","","","","","","","","","",""
"","S2","","html-keyboard-response","232","248461","0.0-1.0-319.0","0","0","51823","","null","","","null","35","","NaN","","","","","","","","","","","","","",""
"","response","","html-keyboard-response","233","248640","0.0-1.0-320.0-0.0","0","0","51823","","177","","","75","35","","","1","35","training","adjacent","BC","2","3","R.jpg","L.jpg","1","1","1","",""
"","feedback","","html-keyboard-response","234","249647","0.0-1.0-321.0-0.0","0","0","51823","","null","","","null","35","","","","","","","","","","","","","","","",""
"","ITI","","html-keyboard-response","235","250657","0.0-1.0-324.0","0","0","51823","","null","","","null","35","","","","","","","","","","","","","","","NaN",""
"","S1","","html-keyboard-response","236","250919","0.0-1.0-326.0","0","0","51823","","null","","","null","36","","","","","","","","","","","","","","","",""
"","ISI","","html-keyboard-response","237","251928","0.0-1.0-327.0","0","0","51823","","null","","","null","36","NaN","","","","","","","","","","","","","","",""
"","S2","","html-keyboard-response","238","252191","0.0-1.0-328.0","0","0","51823","","null","","","null","36","","NaN","","","","","","","","","","","","","",""
"","response","","html-keyboard-response","239","252304","0.0-1.0-329.0-0.0","0","0","51823","","111","","","75","36","","","1","36","training","adjacent","GF","7","6","O.jpg","Q.jpg","1","0","0","",""
"","feedback","","html-keyboard-response","240","253309","0.0-1.0-330.0-0.0","0","0","51823","","null","","","null","36","","","","","","","","","","","","","","","",""
"","time_out","","html-keyboard-response","241","255319","0.0-1.0-332.0-0.0","0","0","51823","","null","","","null","36","","","","","","","","","","","","","","","",""
"","ITI","","html-keyboard-response","242","256329","0.0-1.0-333.0","0","0","51823","","null","","","null","36","","","","","","","","","","","","","","","NaN",""
"","S1","","html-keyboard-response","243","256588","0.0-1.0-335.0","0","0","51823","","null","","","null","37","","","","","","","","","","","","","","","",""
"","ISI","","html-keyboard-response","244","257599","0.0-1.0-336.0","0","0","51823","","null","","","null","37","NaN","","","","","","","","","","","","","","",""
"","S2","","html-keyboard-response","245","257839","0.0-1.0-337.0","0","0","51823","","237","","","68","37","","d","1","37","training","adjacent","BA","2","1","R.jpg","N.jpg","0","0","1","",""
"","feedback","","html-keyboard-response","246","258847","0.0-1.0-339.0-0.0","0","0","51823","","null","","","null","37","","","","","","","","","","","","","","","",""
"","ITI","","html-keyboard-response","247","259854","0.0-1.0-342.0","0","0","51823","","null","","","null","37","","","","","","","","","","","","","","","NaN",""
"","S1","","html-keyboard-response","248","260114","0.0-1.0-344.0","0","0","51823","","null","","","null","38","","","","","","","","","","","","","","","",""
"","ISI","","html-keyboard-response","249","261116","0.0-1.0-345.0","0","0","51823","","null","","","null","38","NaN","","","","","","","","","","","","","","",""
"","S2","","html-keyboard-response","250","261373","0.0-1.0-346.0","0","0","51823","","null","","","null","38","","NaN","","","","","","","","","","","","","",""
"","response","","html-keyboard-response","251","261746","0.0-1.0-347.0-0.0","0","0","51823","","370","","","68","38","","","1","38","training","adjacent","EF","5","6","M.jpg","Q.jpg","0","1","0","",""
"","feedback","","html-keyboard-response","252","262749","0.0-1.0-348.0-0.0","0","0","51823","","null","","","null","38","","","","","","","","","","","","","","","",""
"","time_out","","html-keyboard-response","253","264759","0.0-1.0-350.0-0.0","0","0","51823","","null","","","null","38","","","","","","","","","","","","","","","",""
"","ITI","","html-keyboard-response","254","265768","0.0-1.0-351.0","0","0","51823","","null","","","null","38","","","","","","","","","","","","","","","NaN",""
"","S1","","html-keyboard-response","255","266033","0.0-1.0-353.0","0","0","51823","","null","","","null","39","","","","","","","","","","","","","","","",""
"","ISI","","html-keyboard-response","256","267039","0.0-1.0-354.0","0","0","51823","","null","","","null","39","NaN","","","","","","","","","","","","","","",""
"","S2","","html-keyboard-response","257","267292","0.0-1.0-355.0","0","0","51823","","null","","","null","39","","NaN","","","","","","","","","","","","","",""
"","response","","html-keyboard-response","258","267315","0.0-1.0-356.0-0.0","0","0","51823","","21","","","75","39","","","1","39","training","adjacent","FG","6","7","Q.jpg","O.jpg","1","1","1","",""
"","feedback","","html-keyboard-response","259","268328","0.0-1.0-357.0-0.0","0","0","51823","","null","","","null","39","","","","","","","","","","","","","","","",""
"","ITI","","html-keyboard-response","260","269337","0.0-1.0-360.0","0","0","51823","","null","","","null","39","","","","","","","","","","","","","","","NaN",""
"","S1","","html-keyboard-response","261","269599","0.0-1.0-362.0","0","0","51823","","null","","","null","40","","","","","","","","","","","","","","","",""
"","ISI","","html-keyboard-response","262","270609","0.0-1.0-363.0","0","0","51823","","null","","","null","40","NaN","","","","","","","","","","","","","","",""
"","S2","","html-keyboard-response","263","270870","0.0-1.0-364.0","0","0","51823","","null","","","null","40","","NaN","","","","","","","","","","","","","",""
"","response","","html-keyboard-response","264","271238","0.0-1.0-365.0-0.0","0","0","51823","","366","","","75","40","","","1","40","training","adjacent","DC","4","3","P.jpg","L.jpg","1","0","0","",""
"","feedback","","html-keyboard-response","265","272245","0.0-1.0-366.0-0.0","0","0","51823","","null","","","null","40","","","","","","","","","","","","","","","",""
"","time_out","","html-keyboard-response","266","274254","0.0-1.0-368.0-0.0","0","0","51823","","null","","","null","40","","","","","","","","","","","","","","","",""
"","ITI","","html-keyboard-response","267","275264","0.0-1.0-369.0","0","0","51823","","null","","","null","40","","","","","","","","","","","","","","","NaN",""
"","S1","","html-keyboard-response","268","275526","0.0-1.0-371.0","0","0","51823","","null","","","null","41","","","","","","","","","","","","","","","",""
"","ISI","","html-keyboard-response","269","276536","0.0-1.0-372.0","0","0","51823","","null","","","null","41","NaN","","","","","","","","","","","","","","",""
"","S2","","html-keyboard-response","270","276747","0.0-1.0-373.0","0","0","51823","","209","","","75","41","","k","1","41","training","adjacent","ED","5","4","M.jpg","P.jpg","1","0","0","",""
"","feedback","","html-keyboard-response","271","277759","0.0-1.0-375.0-0.0","0","0","51823","","null","","","null","41","","","","","","","","","","","","","","","",""
"","time_out","","html-keyboard-response","272","279767","0.0-1.0-377.0-0.0","0","0","51823","","null","","","null","41","","","","","","","","","","","","","","","",""
"","ITI","","html-keyboard-response","273","280778","0.0-1.0-378.0","0","0","51823","","null","","","null","41","","","","","","","","","","","","","","","NaN",""
"","S1","","html-keyboard-response","274","281039","0.0-1.0-380.0","0","0","51823","","null","","","null","42","","","","","","","","","","","","","","","",""
"","ISI","","html-keyboard-response","275","282045","0.0-1.0-381.0","0","0","51823","","null","","","null","42","NaN","","","","","","","","","","","","","","",""
"","S2","","html-keyboard-response","276","282237","0.0-1.0-382.0","0","0","51823","","190","","","68","42","","d","1","42","training","adjacent","BC","2","3","R.jpg","L.jpg","0","1","0","",""
"","feedback","","html-keyboard-response","277","283245","0.0-1.0-384.0-0.0","0","0","51823","","null","","","null","42","","","","","","","","","","","","","","","",""
"","time_out","","html-keyboard-response","278","285255","0.0-1.0-386.0-0.0","0","0","51823","","null","","","null","42","","","","","","","","","","","","","","","",""
"","ITI","","html-keyboard-response","279","286264","0.0-1.0-387.0","0","0","51823","","null","","","null","42","","","","","","","","","","","","","","","NaN",""
"","S1","","html-keyboard-response","280","286527","0.0-1.0-389.0","0","0","51823","","null","","","null","43","","","","","","","","","","","","","","","",""
"","ISI","","html-keyboard-response","281","287535","0.0-1.0-390.0","0","0","51823","","null","","","null","43","NaN","","","","","","","","","","","","","","",""
"","S2","","html-keyboard-response","282","287790","0.0-1.0-391.0","0","0","51823","","null","","","null","43","","NaN","","","","","","","","","","","","","",""
"","response","","html-keyboard-response","283","287833","0.0-1.0-392.0-0.0","0","0","51823","","42","","","75","43","","","1","43","training","adjacent","DC","4","3","P.jpg","L.jpg","1","0","0","",""
"","feedback","","html-keyboard-response","284","288841","0.0-1.0-393.0-0.0","0","0","51823","","null","","","null","43","","","","","","","","","","","","","","","",""
"","time_out","","html-keyboard-response","285","290844","0.0-1.0-395.0-0.0","0","0","51823","","null","","","null","43","","","","","","","","","","","","","","","",""
"","ITI","","html-keyboard-response","286","291854","0.0-1.0-396.0","0","0","51823","","null","","","null","43","","","","","","","","","","","","","","","NaN",""
"","S1","","html-keyboard-response","287","292110","0.0-1.0-398.0","0","0","51823","","null","","","null","44","","","","","","","","","","","","","","","",""
"","ISI","","html-keyboard-response","288","293119","0.0-1.0-399.0","0","0","51823","","null","","","null","44","NaN","","","","","","","","","","","","","","",""
"","S2","","html-keyboard-response","289","293376","0.0-1.0-400.0","0","0","51823","","null","","","null","44","","NaN","","","","","","","","","","","","","",""
"","response","","html-keyboard-response","290","293536","0.0-1.0-401.0-0.0","0","0","51823","","158","","","75","44","","","1","44","training","adjacent","CD","3","4","L.jpg","P.jpg","1","1","1","",""
"","feedback","","html-keyboard-response","291","294541","0.0-1.0-402.0-0.0","0","0","51823","","null","","","null","44","","","","","","","","","","","","","","","",""
"","ITI","","html-keyboard-response","292","295552","0.0-1.0-405.0","0","0","51823","","null","","","null","44","","","","","","","","","","","","","","","NaN",""
"","S1","","html-keyboard-response","293","295814","0.0-1.0-407.0","0","0","51823","","null","","","null","45","","","","","","","","","","","","","","","",""
"","ISI","","html-keyboard-response","294","296825","0.0-1.0-408.0","0","0","51823","","null","","","null","45","NaN","","","","","","","","","","","","","","",""
"","S2","","html-keyboard-response","295","297062","0.0-1.0-409.0","0","0","51823","","235","","","75","45","","k","1","45","training","adjacent","GF","7","6","O.jpg","Q.jpg","1","0","0","",""
"","feedback","","html-keyboard-response","296","298072","0.0-1.0-411.0-0.0","0","0","51823","","null","","","null","45","","","","","","","","","","","","","","","",""
"","time_out","","html-keyboard-response","297","300079","0.0-1.0-413.0-0.0","0","0","51823","","null","","","null","45","","","","","","","","","","","","","","","",""
"","ITI","","html-keyboard-response","298","301085","0.0-1.0-414.0","0","0","51823","","null","","","null","45","","","","","","","","","","","","","","","NaN",""
"","S1","","html-keyboard-response","299","301341","0.0-1.0-416.0","0","0","51823","","null","","","null","46","","","","","","","","","","","","","","","",""
"","ISI","","html-keyboard-response","300","302346","0.0-1.0-417.0","0","0","51823","","null","","","null","46","NaN","","","","","","","","","","","","","","",""
"","S2","","html-keyboard-response","301","302605","0.0-1.0-418.0","0","0","51823","","null","","","null","46","","NaN","","","","","","","","","","","","","",""
"","response","","html-keyboard-response","302","303204","0.0-1.0-419.0-0.0","0","0","51823","","597","","","68","46","","","1","46","training","adjacent","BA","2","1","R.jpg","N.jpg","0","0","1","",""
"","feedback","","html-keyboard-response","303","304214","0.0-1.0-420.0-0.0","0","0","51823","","null","","","null","46","","","","","","","","","","","","","","","",""
"","ITI","","html-keyboard-response","304","305224","0.0-1.0-423.0","0","0","51823","","null","","","null","46","","","","","","","","","","","","","","","NaN",""
"","S1","","html-keyboard-response","305","305484","0.0-1.0-425.0","0","0","51823","","null","","","null","47","","","","","","","","","","","","","","","",""
"","ISI","","html-keyboard-response","306","306495","0.0-1.0-426.0","0","0","51823","","null","","","null","47","NaN","","","","","","","","","","","","","","",""
"","S2","","html-keyboard-response","307","306749","0.0-1.0-427.0","0","0","51823","","null","","","null","47","","NaN","","","","","","","","","","","","","",""
"","response","","html-keyboard-response","308","306956","0.0-1.0-428.0-0.0","0","0","51823","","206","","","68","47","","","1","47","training","adjacent","CD","3","4","L.jpg","P.jpg","0","1","0","",""
"","feedback","","html-keyboard-response","309","307968","0.0-1.0-429.0-0.0","0","0","51823","","null","","","null","47","","","","","","","","","","","","","","","",""
"","time_out","","html-keyboard-response","310","309973","0.0-1.0-431.0-0.0","0","0","51823","","null","","","null","47","","","","","","","","","","","","","","","",""
"","ITI","","html-keyboard-response","311","310981","0.0-1.0-432.0","0","0","51823","","null","","","null","47","","","","","","","","","","","","","","","NaN",""
"","block_over","","html-keyboard-response","312","337825","0.0-1.0-433.0-0.0","0","0","51823","","26842","","","32","47","","","","","","","","","","","","","","","",""
"","S1","","html-keyboard-response","313","338086","0.0-1.0-434.0","0","0","51823","","null","","","null","48","","","","","","","","","","","","","","","",""
"","ISI","","html-keyboard-response","314","339096","0.0-1.0-435.0","0","0","51823","","null","","","null","48","NaN","","","","","","","","","","","","","","",""
"","S2","","html-keyboard-response","315","339353","0.0-1.0-436.0","0","0","51823","","254","","","68","48","","d","2","48","training","adjacent","CB","3","2","L.jpg","R.jpg","0","0","1","",""
"","feedback","","html-keyboard-response","316","340361","0.0-1.0-438.0-0.0","0","0","51823","","null","","","null","48","","","","","","","","","","","","","","","",""
"","ITI","","html-keyboard-response","317","341366","0.0-1.0-441.0","0","0","51823","","null","","","null","48","","","","","","","","","","","","","","","NaN",""
"","S1","","html-keyboard-response","318","341622","0.0-1.0-443.0","0","0","51823","","null","","","null","49","","","","","","","","","","","","","","","",""
"","ISI","","html-keyboard-response","319","342630","0.0-1.0-444.0","0","0","51823","","null","","","null","49","NaN","","","","","","","","","","","","","","",""
"","S2","","html-keyboard-response","320","342886","0.0-1.0-445.0","0","0","51823","","null","","","null","49","","NaN","","","","","","","","","","","","","",""
"","response","","html-keyboard-response","321","343143","0.0-1.0-446.0-0.0","0","0","51823","","254","","","68","49","","","2","49","training","adjacent","BC","2","3","R.jpg","L.jpg","0","1","0","",""
"","feedback","","html-keyboard-response","322","344152","0.0-1.0-447.0-0.0","0","0","51823","","null","","","null","49","","","","","","","","","","","","","","","",""
"","time_out","","html-keyboard-response","323","346160","0.0-1.0-449.0-0.0","0","0","51823","","null","","","null","49","","","","","","","","","","","","","","","",""
"","ITI","","html-keyboard-response","324","347165","0.0-1.0-450.0","0","0","51823","","null","","","null","49","","","","","","","","","","","","","","","NaN",""
"","S1","","html-keyboard-response","325","347425","0.0-1.0-452.0","0","0","51823","","null","","","null","50","","","","","","","","","","","","","","","",""
"","ISI","","html-keyboard-response","326","348429","0.0-1.0-453.0","0","0","51823","","null","","","null","50","NaN","","","","","","","","","","","","","","",""
"","S2","","html-keyboard-response","327","348627","0.0-1.0-454.0","0","0","51823","","195","","","75","50","","k","2","50","training","adjacent","ED","5","4","M.jpg","P.jpg","1","0","0","",""
"","feedback","","html-keyboard-response","328","349637","0.0-1.0-456.0-0.0","0","0","51823","","null","","","null","50","","","","","","","","","","","","","","","",""
"","time_out","","html-keyboard-response","329","351646","0.0-1.0-458.0-0.0","0","0","51823","","null","","","null","50","","","","","","","","","","","","","","","",""
"","ITI","","html-keyboard-response","330","352656","0.0-1.0-459.0","0","0","51823","","null","","","null","50","","","","","","","","","","","","","","","NaN",""
"","S1","","html-keyboard-response","331","352916","0.0-1.0-461.0","0","0","51823","","null","","","null","51","","","","","","","","","","","","","","","",""
"","ISI","","html-keyboard-response","332","353928","0.0-1.0-462.0","0","0","51823","","null","","","null","51","NaN","","","","","","","","","","","","","","",""
"","S2","","html-keyboard-response","333","354136","0.0-1.0-463.0","0","0","51823","","205","","","68","51","","d","2","51","training","adjacent","DE","4","5","P.jpg","M.jpg","0","1","0","",""
"","feedback","","html-keyboard-response","334","355141","0.0-1.0-465.0-0.0","0","0","51823","","null","","","null","51","","","","","","","","","","","","","","","",""
"","time_out","","html-keyboard-response","335","357150","0.0-1.0-467.0-0.0","0","0","51823","","null","","","null","51","","","","","","","","","","","","","","","",""
"","ITI","","html-keyboard-response","336","358159","0.0-1.0-468.0","0","0","51823","","null","","","null","51","","","","","","","","","","","","","","","NaN",""
"","S1","","html-keyboard-response","337","358413","0.0-1.0-470.0","0","0","51823","","null","","","null","52","","","","","","","","","","","","","","","",""
"","ISI","","html-keyboard-response","338","359426","0.0-1.0-471.0","0","0","51823","","null","","","null","52","NaN","","","","","","","","","","","","","","",""
"","S2","","html-keyboard-response","339","359636","0.0-1.0-472.0","0","0","51823","","208","","","75","52","","k","2","52","training","adjacent","CB","3","2","L.jpg","R.jpg","1","0","0","",""
"","feedback","","html-keyboard-response","340","360646","0.0-1.0-474.0-0.0","0","0","51823","","null","","","null","52","","","","","","","","","","","","","","","",""
"","time_out","","html-keyboard-response","341","362655","0.0-1.0-476.0-0.0","0","0","51823","","null","","","null","52","","","","","","","","","","","","","","","",""
"","ITI","","html-keyboard-response","342","363662","0.0-1.0-477.0","0","0","51823","","null","","","null","52","","","","","","","","","","","","","","","NaN",""
"","S1","","html-keyboard-response","343","363918","0.0-1.0-479.0","0","0","51823","","null","","","null","53","","","","","","","","","","","","","","","",""
"","ISI","","html-keyboard-response","344","364928","0.0-1.0-480.0","0","0","51823","","null","","","null","53","NaN","","","","","","","","","","","","","","",""
"","S2","","html-keyboard-response","345","365180","0.0-1.0-481.0","0","0","51823","","249","","","75","53","","k","2","53","training","adjacent","CB","3","2","L.jpg","R.jpg","1","0","0","",""
"","feedback","","html-keyboard-response","346","366190","0.0-1.0-483.0-0.0","0","0","51823","","null","","","null","53","","","","","","","","","","","","","","","",""
"","time_out","","html-keyboard-response","347","368200","0.0-1.0-485.0-0.0","0","0","51823","","null","","","null","53","","","","","","","","","","","","","","","",""
"","ITI","","html-keyboard-response","348","369207","0.0-1.0-486.0","0","0","51823","","null","","","null","53","","","","","","","","","","","","","","","NaN",""
"","S1","","html-keyboard-response","349","369462","0.0-1.0-488.0","0","0","51823","","null","","","null","54","","","","","","","","","","","","","","","",""
"","ISI","","html-keyboard-response","350","370471","0.0-1.0-489.0","0","0","51823","","null","","","null","54","NaN","","","","","","","","","","","","","","",""
"","S2","","html-keyboard-response","351","370604","0.0-1.0-490.0","0","0","51823","","130","","","68","54","","d","2","54","training","adjacent","EF","5","6","M.jpg","Q.jpg","0","1","0","",""
"","feedback","","html-keyboard-response","352","371615","0.0-1.0-492.0-0.0","0","0","51823","","null","","","null","54","","","","","","","","","","","","","","","",""
"","time_out","","html-keyboard-response","353","373623","0.0-1.0-494.0-0.0","0","0","51823","","null","","","null","54","","","","","","","","","","","","","","","",""
"","ITI","","html-keyboard-response","354","374633","0.0-1.0-495.0","0","0","51823","","null","","","null","54","","","","","","","","","","","","","","","NaN",""
"","S1","","html-keyboard-response","355","374894","0.0-1.0-497.0","0","0","51823","","null","","","null","55","","","","","","","","","","","","","","","",""
"","ISI","","html-keyboard-response","356","375904","0.0-1.0-498.0","0","0","51823","","null","","","null","55","NaN","","","","","","","","","","","","","","",""
"","S2","","html-keyboard-response","357","376087","0.0-1.0-499.0","0","0","51823","","179","","","75","55","","k","2","55","training","adjacent","BA","2","1","R.jpg","N.jpg","1","0","0","",""
"","feedback","","html-keyboard-response","358","377096","0.0-1.0-501.0-0.0","0","0","51823","","null","","","null","55","","","","","","","","","","","","","","","",""
"","time_out","","html-keyboard-response","359","379104","0.0-1.0-503.0-0.0","0","0","51823","","null","","","null","55","","","","","","","","","","","","","","","",""
"","ITI","","html-keyboard-response","360","380113","0.0-1.0-504.0","0","0","51823","","null","","","null","55","","","","","","","","","","","","","","","NaN",""
"","S1","","html-keyboard-response","361","380374","0.0-1.0-506.0","0","0","51823","","null","","","null","56","","","","","","","","","","","","","","","",""
"","ISI","","html-keyboard-response","362","381384","0.0-1.0-507.0","0","0","51823","","null","","","null","56","NaN","","","","","","","","","","","","","","",""
"","S2","","html-keyboard-response","363","381639","0.0-1.0-508.0","0","0","51823","","null","","","null","56","","NaN","","","","","","","","","","","","","",""
"","response","","html-keyboard-response","364","381682","0.0-1.0-509.0-0.0","0","0","51823","","43","","","75","56","","","2","56","training","adjacent","AB","1","2","N.jpg","R.jpg","1","1","1","",""
"","feedback","","html-keyboard-response","365","382696","0.0-1.0-510.0-0.0","0","0","51823","","null","","","null","56","","","","","","","","","","","","","","","",""
"","ITI","","html-keyboard-response","366","383700","0.0-1.0-513.0","0","0","51823","","null","","","null","56","","","","","","","","","","","","","","","NaN",""
"","S1","","html-keyboard-response","367","383957","0.0-1.0-515.0","0","0","51823","","null","","","null","57","","","","","","","","","","","","","","","",""
"","ISI","","html-keyboard-response","368","384966","0.0-1.0-516.0","0","0","51823","","null","","","null","57","NaN","","","","","","","","","","","","","","",""
"","S2","","html-keyboard-response","369","385222","0.0-1.0-517.0","0","0","51823","","null","","","null","57","","NaN","","","","","","","","","","","","","",""
"","response","","html-keyboard-response","370","385662","0.0-1.0-518.0-0.0","0","0","51823","","437","","","68","57","","","2","57","training","adjacent","BA","2","1","R.jpg","N.jpg","0","0","1","",""
"","feedback","","html-keyboard-response","371","386670","0.0-1.0-519.0-0.0","0","0","51823","","null","","","null","57","","","","","","","","","","","","","","","",""
"","ITI","","html-keyboard-response","372","387677","0.0-1.0-522.0","0","0","51823","","null","","","null","57","","","","","","","","","","","","","","","NaN",""
"","S1","","html-keyboard-response","373","387933","0.0-1.0-524.0","0","0","51823","","null","","","null","58","","","","","","","","","","","","","","","",""
"","ISI","","html-keyboard-response","374","388943","0.0-1.0-525.0","0","0","51823","","null","","","null","58","NaN","","","","","","","","","","","","","","",""
"","S2","","html-keyboard-response","375","389197","0.0-1.0-526.0","0","0","51823","","null","","","null","58","","NaN","","","","","","","","","","","","","",""
"","response","","html-keyboard-response","376","389588","0.0-1.0-527.0-0.0","0","0","51823","","389","","","75","58","","","2","58","training","adjacent","CD","3","4","L.jpg","P.jpg","1","1","1","",""
"","feedback","","html-keyboard-response","377","390596","0.0-1.0-528.0-0.0","0","0","51823","","null","","","null","58","","","","","","","","","","","","","","","",""
"","ITI","","html-keyboard-response","378","391606","0.0-1.0-531.0","0","0","51823","","null","","","null","58","","","","","","","","","","","","","","","NaN",""
"","S1","","html-keyboard-response","379","391861","0.0-1.0-533.0","0","0","51823","","null","","","null","59","","","","","","","","","","","","","","","",""
"","ISI","","html-keyboard-response","380","392871","0.0-1.0-534.0","0","0","51823","","null","","","null","59","NaN","","","","","","","","","","","","","","",""
"","S2","","html-keyboard-response","381","393127","0.0-1.0-535.0","0","0","51823","","null","","","null","59","","NaN","","","","","","","","","","","","","",""
"","response","","html-keyboard-response","382","393200","0.0-1.0-536.0-0.0","0","0","51823","","71","","","75","59","","","2","59","training","adjacent","FE","6","5","Q.jpg","M.jpg","1","0","0","",""
"","feedback","","html-keyboard-response","383","394208","0.0-1.0-537.0-0.0","0","0","51823","","null","","","null","59","","","","","","","","","","","","","","","",""
"","time_out","","html-keyboard-response","384","396215","0.0-1.0-539.0-0.0","0","0","51823","","null","","","null","59","","","","","","","","","","","","","","","",""
"","ITI","","html-keyboard-response","385","397223","0.0-1.0-540.0","0","0","51823","","null","","","null","59","","","","","","","","","","","","","","","NaN",""
"","S1","","html-keyboard-response","386","397476","0.0-1.0-542.0","0","0","51823","","null","","","null","60","","","","","","","","","","","","","","","",""
"","ISI","","html-keyboard-response","387","398485","0.0-1.0-543.0","0","0","51823","","null","","","null","60","NaN","","","","","","","","","","","","","","",""
"","S2","","html-keyboard-response","388","398741","0.0-1.0-544.0","0","0","51823","","null","","","null","60","","NaN","","","","","","","","","","","","","",""
"","response","","html-keyboard-response","389","399304","0.0-1.0-545.0-0.0","0","0","51823","","561","","","68","60","","","2","60","training","adjacent","ED","5","4","M.jpg","P.jpg","0","0","1","",""
"","feedback","","html-keyboard-response","390","400309","0.0-1.0-546.0-0.0","0","0","51823","","null","","","null","60","","","","","","","","","","","","","","","",""
"","ITI","","html-keyboard-response","391","401318","0.0-1.0-549.0","0","0","51823","","null","","","null","60","","","","","","","","","","","","","","","NaN",""
"","S1","","html-keyboard-response","392","401573","0.0-1.0-551.0","0","0","51823","","null","","","null","61","","","","","","","","","","","","","","","",""
"","ISI","","html-keyboard-response","393","402583","0.0-1.0-552.0","0","0","51823","","null","","","null","61","NaN","","","","","","","","","","","","","","",""
"","S2","","html-keyboard-response","394","402841","0.0-1.0-553.0","0","0","51823","","null","","","null","61","","NaN","","","","","","","","","","","","","",""
"","response","","html-keyboard-response","395","403256","0.0-1.0-554.0-0.0","0","0","51823","","413","","","75","61","","","2","61","training","adjacent","FG","6","7","Q.jpg","O.jpg","1","1","1","",""
"","feedback","","html-keyboard-response","396","404263","0.0-1.0-555.0-0.0","0","0","51823","","null","","","null","61","","","","","","","","","","","","","","","",""
"","ITI","","html-keyboard-response","397","405271","0.0-1.0-558.0","0","0","51823","","null","","","null","61","","","","","","","","","","","","","","","NaN",""
"","S1","","html-keyboard-response","398","405526","0.0-1.0-560.0","0","0","51823","","null","","","null","62","","","","","","","","","","","","","","","",""
"","ISI","","html-keyboard-response","399","406537","0.0-1.0-561.0","0","0","51823","","null","","","null","62","NaN","","","","","","","","","","","","","","",""
"","S2","","html-keyboard-response","400","406800","0.0-1.0-562.0","0","0","51823","","null","","","null","62","","NaN","","","","","","","","","","","","","",""
"","response","","html-keyboard-response","401","407399","0.0-1.0-563.0-0.0","0","0","51823","","596","","","75","62","","","2","62","training","adjacent","DC","4","3","P.jpg","L.jpg","1","0","0","",""
"","feedback","","html-keyboard-response","402","408407","0.0-1.0-564.0-0.0","0","0","51823","","null","","","null","62","","","","","","","","","","","","","","","",""
"","time_out","","html-keyboard-response","403","410416","0.0-1.0-566.0-0.0","0","0","51823","","null","","","null","62","","","","","","","","","","","","","","","",""
"","ITI","","html-keyboard-response","404","411426","0.0-1.0-567.0","0","0","51823","","null","","","null","62","","","","","","","","","","","","","","","NaN",""
"","S1","","html-keyboard-response","405","411686","0.0-1.0-569.0","0","0","51823","","null","","","null","63","","","","","","","","","","","","","","","",""
"","ISI","","html-keyboard-response","406","412698","0.0-1.0-570.0","0","0","51823","","null","","","null","63","NaN","","","","","","","","","","","","","","",""
"","S2","","html-keyboard-response","407","412957","0.0-1.0-571.0","0","0","51823","","null","","","null","63","","NaN","","","","","","","","","","","","","",""
"","response","","html-keyboard-response","408","413174","0.0-1.0-572.0-0.0","0","0","51823","","214","","","75","63","","","2","63","training","adjacent","BA","2","1","R.jpg","N.jpg","1","0","0","",""
"","feedback","","html-keyboard-response","409","414184","0.0-1.0-573.0-0.0","0","0","51823","","null","","","null","63","","","","","","","","","","","","","","","",""
"","time_out","","html-keyboard-response","410","416191","0.0-1.0-575.0-0.0","0","0","51823","","null","","","null","63","","","","","","","","","","","","","","","",""
"","ITI","","html-keyboard-response","411","417201","0.0-1.0-576.0","0","0","51823","","null","","","null","63","","","","","","","","","","","","","","","NaN",""
"","S1","","html-keyboard-response","412","417463","0.0-1.0-578.0","0","0","51823","","null","","","null","64","","","","","","","","","","","","","","","",""
"","ISI","","html-keyboard-response","413","418474","0.0-1.0-579.0","0","0","51823","","null","","","null","64","NaN","","","","","","","","","","","","","","",""
"","S2","","html-keyboard-response","414","418735","0.0-1.0-580.0","0","0","51823","","null","","","null","64","","NaN","","","","","","","","","","","","","",""
"","response","","html-keyboard-response","415","419044","0.0-1.0-581.0-0.0","0","0","51823","","307","","","75","64","","","2","64","training","adjacent","AB","1","2","N.jpg","R.jpg","1","1","1","",""
"","feedback","","html-keyboard-response","416","420047","0.0-1.0-582.0-0.0","0","0","51823","","null","","","null","64","","","","","","","","","","","","","","","",""
"","ITI","","html-keyboard-response","417","421052","0.0-1.0-585.0","0","0","51823","","null","","","null","64","","","","","","","","","","","","","","","NaN",""
"","S1","","html-keyboard-response","418","421312","0.0-1.0-587.0","0","0","51823","","null","","","null","65","","","","","","","","","","","","","","","",""
"","ISI","","html-keyboard-response","419","422317","0.0-1.0-588.0","0","0","51823","","null","","","null","65","NaN","","","","","","","","","","","","","","",""
"","S2","","html-keyboard-response","420","422573","0.0-1.0-589.0","0","0","51823","","null","","","null","65","","NaN","","","","","","","","","","","","","",""
"","response","","html-keyboard-response","421","422844","0.0-1.0-590.0-0.0","0","0","51823","","268","","","68","65","","","2","65","training","adjacent","CD","3","4","L.jpg","P.jpg","0","1","0","",""
"","feedback","","html-keyboard-response","422","423853","0.0-1.0-591.0-0.0","0","0","51823","","null","","","null","65","","","","","","","","","","","","","","","",""
"","time_out","","html-keyboard-response","423","425862","0.0-1.0-593.0-0.0","0","0","51823","","null","","","null","65","","","","","","","","","","","","","","","",""
"","ITI","","html-keyboard-response","424","426872","0.0-1.0-594.0","0","0","51823","","null","","","null","65","","","","","","","","","","","","","","","NaN",""
"","S1","","html-keyboard-response","425","427133","0.0-1.0-596.0","0","0","51823","","null","","","null","66","","","","","","","","","","","","","","","",""
"","ISI","","html-keyboard-response","426","428144","0.0-1.0-597.0","0","0","51823","","null","","","null","66","NaN","","","","","","","","","","","","","","",""
"","S2","","html-keyboard-response","427","428405","0.0-1.0-598.0","0","0","51823","","null","","","null","66","","NaN","","","","","","","","","","","","","",""
"","response","","html-keyboard-response","428","428583","0.0-1.0-599.0-0.0","0","0","51823","","175","","","68","66","","","2","66","training","adjacent","DC","4","3","P.jpg","L.jpg","0","0","1","",""
"","feedback","","html-keyboard-response","429","429589","0.0-1.0-600.0-0.0","0","0","51823","","null","","","null","66","","","","","","","","","","","","","","","",""
"","ITI","","html-keyboard-response","430","430599","0.0-1.0-603.0","0","0","51823","","null","","","null","66","","","","","","","","","","","","","","","NaN",""
"","S1","","html-keyboard-response","431","430853","0.0-1.0-605.0","0","0","51823","","null","","","null","67","","","","","","","","","","","","","","","",""
"","ISI","","html-keyboard-response","432","431865","0.0-1.0-606.0","0","0","51823","","null","","","null","67","NaN","","","","","","","","","","","","","","",""
"","S2","","html-keyboard-response","433","432126","0.0-1.0-607.0","0","0","51823","","null","","","null","67","","NaN","","","","","","","","","","","","","",""
"","response","","html-keyboard-response","434","432662","0.0-1.0-608.0-0.0","0","0","51823","","534","","","68","67","","","2","67","training","adjacent","EF","5","6","M.jpg","Q.jpg","0","1","0","",""
"","feedback","","html-keyboard-response","435","433671","0.0-1.0-609.0-0.0","0","0","51823","","null","","","null","67","","","","","","","","","","","","","","","",""
"","time_out","","html-keyboard-response","436","435678","0.0-1.0-611.0-0.0","0","0","51823","","null","","","null","67","","","","","","","","","","","","","","","",""
"","ITI","","html-keyboard-response","437","436689","0.0-1.0-612.0","0","0","51823","","null","","","null","67","","","","","","","","","","","","","","","NaN",""
"","S1","","html-keyboard-response","438","436949","0.0-1.0-614.0","0","0","51823","","null","","","null","68","","","","","","","","","","","","","","","",""
"","ISI","","html-keyboard-response","439","437959","0.0-1.0-615.0","0","0","51823","","null","","","null","68","NaN","","","","","","","","","","","","","","",""
"","S2","","html-keyboard-response","440","438222","0.0-1.0-616.0","0","0","51823","","null","","","null","68","","NaN","","","","","","","","","","","","","",""
"","response","","html-keyboard-response","441","438695","0.0-1.0-617.0-0.0","0","0","51823","","471","","","68","68","","","2","68","training","adjacent","GF","7","6","O.jpg","Q.jpg","0","0","1","",""
"","feedback","","html-keyboard-response","442","439702","0.0-1.0-618.0-0.0","0","0","51823","","null","","","null","68","","","","","","","","","","","","","","","",""
"","ITI","","html-keyboard-response","443","440711","0.0-1.0-621.0","0","0","51823","","null","","","null","68","","","","","","","","","","","","","","","NaN",""
"","S1","","html-keyboard-response","444","440967","0.0-1.0-623.0","0","0","51823","","null","","","null","69","","","","","","","","","","","","","","","",""
"","ISI","","html-keyboard-response","445","441974","0.0-1.0-624.0","0","0","51823","","null","","","null","69","NaN","","","","","","","","","","","","","","",""
"","S2","","html-keyboard-response","446","442230","0.0-1.0-625.0","0","0","51823","","null","","","null","69","","NaN","","","","","","","","","","","","","",""
"","response","","html-keyboard-response","447","442617","0.0-1.0-626.0-0.0","0","0","51823","","384","","","75","69","","","2","69","training","adjacent","ED","5","4","M.jpg","P.jpg","1","0","0","",""
"","feedback","","html-keyboard-response","448","443621","0.0-1.0-627.0-0.0","0","0","51823","","null","","","null","69","","","","","","","","","","","","","","","",""
"","time_out","","html-keyboard-response","449","445629","0.0-1.0-629.0-0.0","0","0","51823","","null","","","null","69","","","","","","","","","","","","","","","",""
"","ITI","","html-keyboard-response","450","446638","0.0-1.0-630.0","0","0","51823","","null","","","null","69","","","","","","","","","","","","","","","NaN",""
"","S1","","html-keyboard-response","451","446894","0.0-1.0-632.0","0","0","51823","","null","","","null","70","","","","","","","","","","","","","","","",""
"","ISI","","html-keyboard-response","452","447904","0.0-1.0-633.0","0","0","51823","","null","","","null","70","NaN","","","","","","","","","","","","","","",""
"","S2","","html-keyboard-response","453","448165","0.0-1.0-634.0","0","0","51823","","null","","","null","70","","NaN","","","","","","","","","","","","","",""
"","response","","html-keyboard-response","454","448939","0.0-1.0-635.0-0.0","0","0","51823","","772","","","75","70","","","2","70","training","adjacent","BC","2","3","R.jpg","L.jpg","1","1","1","",""
"","feedback","","html-keyboard-response","455","449949","0.0-1.0-636.0-0.0","0","0","51823","","null","","","null","70","","","","","","","","","","","","","","","",""
"","ITI","","html-keyboard-response","456","450958","0.0-1.0-639.0","0","0","51823","","null","","","null","70","","","","","","","","","","","","","","","NaN",""
"","S1","","html-keyboard-response","457","451213","0.0-1.0-641.0","0","0","51823","","null","","","null","71","","","","","","","","","","","","","","","",""
"","ISI","","html-keyboard-response","458","452223","0.0-1.0-642.0","0","0","51823","","null","","","null","71","NaN","","","","","","","","","","","","","","",""
"","S2","","html-keyboard-response","459","452488","0.0-1.0-643.0","0","0","51823","","null","","","null","71","","NaN","","","","","","","","","","","","","",""
"","response","","html-keyboard-response","460","452844","0.0-1.0-644.0-0.0","0","0","51823","","354","","","75","71","","","2","71","training","adjacent","DE","4","5","P.jpg","M.jpg","1","1","1","",""
"","feedback","","html-keyboard-response","461","453854","0.0-1.0-645.0-0.0","0","0","51823","","null","","","null","71","","","","","","","","","","","","","","","",""
"","ITI","","html-keyboard-response","462","454865","0.0-1.0-648.0","0","0","51823","","null","","","null","71","","","","","","","","","","","","","","","NaN",""
"","S1","","html-keyboard-response","463","455126","0.0-1.0-650.0","0","0","51823","","null","","","null","72","","","","","","","","","","","","","","","",""
"","ISI","","html-keyboard-response","464","456135","0.0-1.0-651.0","0","0","51823","","null","","","null","72","NaN","","","","","","","","","","","","","","",""
"","S2","","html-keyboard-response","465","456390","0.0-1.0-652.0","0","0","51823","","null","","","null","72","","NaN","","","","","","","","","","","","","",""
"","response","","html-keyboard-response","466","456805","0.0-1.0-653.0-0.0","0","0","51823","","413","","","75","72","","","2","72","training","adjacent","FE","6","5","Q.jpg","M.jpg","1","0","0","",""
"","feedback","","html-keyboard-response","467","457814","0.0-1.0-654.0-0.0","0","0","51823","","null","","","null","72","","","","","","","","","","","","","","","",""
"","time_out","","html-keyboard-response","468","459821","0.0-1.0-656.0-0.0","0","0","51823","","null","","","null","72","","","","","","","","","","","","","","","",""
"","ITI","","html-keyboard-response","469","460831","0.0-1.0-657.0","0","0","51823","","null","","","null","72","","","","","","","","","","","","","","","NaN",""
"","S1","","html-keyboard-response","470","461088","0.0-1.0-659.0","0","0","51823","","null","","","null","73","","","","","","","","","","","","","","","",""
"","ISI","","html-keyboard-response","471","462092","0.0-1.0-660.0","0","0","51823","","null","","","null","73","NaN","","","","","","","","","","","","","","",""
"","S2","","html-keyboard-response","472","462353","0.0-1.0-661.0","0","0","51823","","null","","","null","73","","NaN","","","","","","","","","","","","","",""
"","response","","html-keyboard-response","473","462455","0.0-1.0-662.0-0.0","0","0","51823","","100","","","68","73","","","2","73","training","adjacent","GF","7","6","O.jpg","Q.jpg","0","0","1","",""
"","feedback","","html-keyboard-response","474","463461","0.0-1.0-663.0-0.0","0","0","51823","","null","","","null","73","","","","","","","","","","","","","","","",""
"","ITI","","html-keyboard-response","475","464471","0.0-1.0-666.0","0","0","51823","","null","","","null","73","","","","","","","","","","","","","","","NaN",""
"","S1","","html-keyboard-response","476","464728","0.0-1.0-668.0","0","0","51823","","null","","","null","74","","","","","","","","","","","","","","","",""
"","ISI","","html-keyboard-response","477","465733","0.0-1.0-669.0","0","0","51823","","null","","","null","74","NaN","","","","","","","","","","","","","","",""
"","S2","","html-keyboard-response","478","465993","0.0-1.0-670.0","0","0","51823","","null","","","null","74","","NaN","","","","","","","","","","","","","",""
"","response","","html-keyboard-response","479","466645","0.0-1.0-671.0-0.0","0","0","51823","","649","","","75","74","","","2","74","training","adjacent","CB","3","2","L.jpg","R.jpg","1","0","0","",""
"","feedback","","html-keyboard-response","480","467653","0.0-1.0-672.0-0.0","0","0","51823","","null","","","null","74","","","","","","","","","","","","","","","",""
"","time_out","","html-keyboard-response","481","469661","0.0-1.0-674.0-0.0","0","0","51823","","null","","","null","74","","","","","","","","","","","","","","","",""
"","ITI","","html-keyboard-response","482","470672","0.0-1.0-675.0","0","0","51823","","null","","","null","74","","","","","","","","","","","","","","","NaN",""
"","S1","","html-keyboard-response","483","470937","0.0-1.0-677.0","0","0","51823","","null","","","null","75","","","","","","","","","","","","","","","",""
"","ISI","","html-keyboard-response","484","471943","0.0-1.0-678.0","0","0","51823","","null","","","null","75","NaN","","","","","","","","","","","","","","",""
"","S2","","html-keyboard-response","485","472197","0.0-1.0-679.0","0","0","51823","","null","","","null","75","","NaN","","","","","","","","","","","","","",""
"","response","","html-keyboard-response","486","472418","0.0-1.0-680.0-0.0","0","0","51823","","218","","","68","75","","","2","75","training","adjacent","GF","7","6","O.jpg","Q.jpg","0","0","1","",""
"","feedback","","html-keyboard-response","487","473429","0.0-1.0-681.0-0.0","0","0","51823","","null","","","null","75","","","","","","","","","","","","","","","",""
"","ITI","","html-keyboard-response","488","474439","0.0-1.0-684.0","0","0","51823","","null","","","null","75","","","","","","","","","","","","","","","NaN",""
"","S1","","html-keyboard-response","489","474700","0.0-1.0-686.0","0","0","51823","","null","","","null","76","","","","","","","","","","","","","","","",""
"","ISI","","html-keyboard-response","490","475709","0.0-1.0-687.0","0","0","51823","","null","","","null","76","NaN","","","","","","","","","","","","","","",""
"","S2","","html-keyboard-response","491","475965","0.0-1.0-688.0","0","0","51823","","null","","","null","76","","NaN","","","","","","","","","","","","","",""
"","response","","html-keyboard-response","492","476646","0.0-1.0-689.0-0.0","0","0","51823","","679","","","75","76","","","2","76","training","adjacent","DC","4","3","P.jpg","L.jpg","1","0","0","",""
"","feedback","","html-keyboard-response","493","477655","0.0-1.0-690.0-0.0","0","0","51823","","null","","","null","76","","","","","","","","","","","","","","","",""
"","time_out","","html-keyboard-response","494","479663","0.0-1.0-692.0-0.0","0","0","51823","","null","","","null","76","","","","","","","","","","","","","","","",""
"","ITI","","html-keyboard-response","495","480669","0.0-1.0-693.0","0","0","51823","","null","","","null","76","","","","","","","","","","","","","","","NaN",""
"","S1","","html-keyboard-response","496","480927","0.0-1.0-695.0","0","0","51823","","null","","","null","77","","","","","","","","","","","","","","","",""
"","ISI","","html-keyboard-response","497","481933","0.0-1.0-696.0","0","0","51823","","null","","","null","77","NaN","","","","","","","","","","","","","","",""
"","S2","","html-keyboard-response","498","482190","0.0-1.0-697.0","0","0","51823","","null","","","null","77","","NaN","","","","","","","","","","","","","",""
"","response","","html-keyboard-response","499","483290","0.0-1.0-698.0-0.0","0","0","51823","","1098","","","75","77","","","2","77","training","adjacent","DE","4","5","P.jpg","M.jpg","1","1","1","",""
"","feedback","","html-keyboard-response","500","484301","0.0-1.0-699.0-0.0","0","0","51823","","null","","","null","77","","","","","","","","","","","","","","","",""
"","ITI","","html-keyboard-response","501","485311","0.0-1.0-702.0","0","0","51823","","null","","","null","77","","","","","","","","","","","","","","","NaN",""
"","S1","","html-keyboard-response","502","485566","0.0-1.0-704.0","0","0","51823","","null","","","null","78","","","","","","","","","","","","","","","",""
"","ISI","","html-keyboard-response","503","486574","0.0-1.0-705.0","0","0","51823","","null","","","null","78","NaN","","","","","","","","","","","","","","",""
"","S2","","html-keyboard-response","504","486833","0.0-1.0-706.0","0","0","51823","","null","","","null","78","","NaN","","","","","","","","","","","","","",""
"","response","","html-keyboard-response","505","487238","0.0-1.0-707.0-0.0","0","0","51823","","402","","","75","78","","","2","78","training","adjacent","FG","6","7","Q.jpg","O.jpg","1","1","1","",""
"","feedback","","html-keyboard-response","506","488248","0.0-1.0-708.0-0.0","0","0","51823","","null","","","null","78","","","","","","","","","","","","","","","",""
"","ITI","","html-keyboard-response","507","489254","0.0-1.0-711.0","0","0","51823","","null","","","null","78","","","","","","","","","","","","","","","NaN",""
"","S1","","html-keyboard-response","508","489509","0.0-1.0-713.0","0","0","51823","","null","","","null","79","","","","","","","","","","","","","","","",""
"","ISI","","html-keyboard-response","509","490518","0.0-1.0-714.0","0","0","51823","","null","","","null","79","NaN","","","","","","","","","","","","","","",""
"","S2","","html-keyboard-response","510","490774","0.0-1.0-715.0","0","0","51823","","null","","","null","79","","NaN","","","","","","","","","","","","","",""
"","response","","html-keyboard-response","511","491729","0.0-1.0-716.0-0.0","0","0","51823","","951","","","68","79","","","2","79","training","adjacent","BC","2","3","R.jpg","L.jpg","0","1","0","",""
"","feedback","","html-keyboard-response","512","492736","0.0-1.0-717.0-0.0","0","0","51823","","null","","","null","79","","","","","","","","","","","","","","","",""
"","time_out","","html-keyboard-response","513","494744","0.0-1.0-719.0-0.0","0","0","51823","","null","","","null","79","","","","","","","","","","","","","","","",""
"","ITI","","html-keyboard-response","514","495749","0.0-1.0-720.0","0","0","51823","","null","","","null","79","","","","","","","","","","","","","","","NaN",""
"","S1","","html-keyboard-response","515","496005","0.0-1.0-722.0","0","0","51823","","null","","","null","80","","","","","","","","","","","","","","","",""
"","ISI","","html-keyboard-response","516","497014","0.0-1.0-723.0","0","0","51823","","null","","","null","80","NaN","","","","","","","","","","","","","","",""
"","S2","","html-keyboard-response","517","497269","0.0-1.0-724.0","0","0","51823","","null","","","null","80","","NaN","","","","","","","","","","","","","",""
"","response","","html-keyboard-response","518","498191","0.0-1.0-725.0-0.0","0","0","51823","","918","","","75","80","","","2","80","training","adjacent","DE","4","5","P.jpg","M.jpg","1","1","1","",""
"","feedback","","html-keyboard-response","519","499197","0.0-1.0-726.0-0.0","0","0","51823","","null","","","null","80","","","","","","","","","","","","","","","",""
"","ITI","","html-keyboard-response","520","500207","0.0-1.0-729.0","0","0","51823","","null","","","null","80","","","","","","","","","","","","","","","NaN",""
"","S1","","html-keyboard-response","521","500461","0.0-1.0-731.0","0","0","51823","","null","","","null","81","","","","","","","","","","","","","","","",""
"","ISI","","html-keyboard-response","522","501473","0.0-1.0-732.0","0","0","51823","","null","","","null","81","NaN","","","","","","","","","","","","","","",""
"","S2","","html-keyboard-response","523","501733","0.0-1.0-733.0","0","0","51823","","null","","","null","81","","NaN","","","","","","","","","","","","","",""
"","response","","html-keyboard-response","524","502706","0.0-1.0-734.0-0.0","0","0","51823","","971","","","68","81","","","2","81","training","adjacent","ED","5","4","M.jpg","P.jpg","0","0","1","",""
"","feedback","","html-keyboard-response","525","503720","0.0-1.0-735.0-0.0","0","0","51823","","null","","","null","81","","","","","","","","","","","","","","","",""
"","ITI","","html-keyboard-response","526","504728","0.0-1.0-738.0","0","0","51823","","null","","","null","81","","","","","","","","","","","","","","","NaN",""
"","S1","","html-keyboard-response","527","504990","0.0-1.0-740.0","0","0","51823","","null","","","null","82","","","","","","","","","","","","","","","",""
"","ISI","","html-keyboard-response","528","505999","0.0-1.0-741.0","0","0","51823","","null","","","null","82","NaN","","","","","","","","","","","","","","",""
"","S2","","html-keyboard-response","529","506255","0.0-1.0-742.0","0","0","51823","","null","","","null","82","","NaN","","","","","","","","","","","","","",""
"","response","","html-keyboard-response","530","507470","0.0-1.0-743.0-0.0","0","0","51823","","1213","","","68","82","","","2","82","training","adjacent","CD","3","4","L.jpg","P.jpg","0","1","0","",""
"","feedback","","html-keyboard-response","531","508479","0.0-1.0-744.0-0.0","0","0","51823","","null","","","null","82","","","","","","","","","","","","","","","",""
"","time_out","","html-keyboard-response","532","510487","0.0-1.0-746.0-0.0","0","0","51823","","null","","","null","82","","","","","","","","","","","","","","","",""
"","ITI","","html-keyboard-response","533","511497","0.0-1.0-747.0","0","0","51823","","null","","","null","82","","","","","","","","","","","","","","","NaN",""
"","S1","","html-keyboard-response","534","511759","0.0-1.0-749.0","0","0","51823","","null","","","null","83","","","","","","","","","","","","","","","",""
"","ISI","","html-keyboard-response","535","512769","0.0-1.0-750.0","0","0","51823","","null","","","null","83","NaN","","","","","","","","","","","","","","",""
"","S2","","html-keyboard-response","536","513030","0.0-1.0-751.0","0","0","51823","","null","","","null","83","","NaN","","","","","","","","","","","","","",""
"","response","","html-keyboard-response","537","513543","0.0-1.0-752.0-0.0","0","0","51823","","510","","","68","83","","","2","83","training","adjacent","EF","5","6","M.jpg","Q.jpg","0","1","0","",""
"","feedback","","html-keyboard-response","538","514550","0.0-1.0-753.0-0.0","0","0","51823","","null","","","null","83","","","","","","","","","","","","","","","",""
"","time_out","","html-keyboard-response","539","516557","0.0-1.0-755.0-0.0","0","0","51823","","null","","","null","83","","","","","","","","","","","","","","","",""
"","ITI","","html-keyboard-response","540","517560","0.0-1.0-756.0","0","0","51823","","null","","","null","83","","","","","","","","","","","","","","","NaN",""
"","S1","","html-keyboard-response","541","517821","0.0-1.0-758.0","0","0","51823","","null","","","null","84","","","","","","","","","","","","","","","",""
"","ISI","","html-keyboard-response","542","518829","0.0-1.0-759.0","0","0","51823","","null","","","null","84","NaN","","","","","","","","","","","","","","",""
"","S2","","html-keyboard-response","543","519084","0.0-1.0-760.0","0","0","51823","","null","","","null","84","","NaN","","","","","","","","","","","","","",""
"","response","","html-keyboard-response","544","519545","0.0-1.0-761.0-0.0","0","0","51823","","459","","","75","84","","","2","84","training","adjacent","AB","1","2","N.jpg","R.jpg","1","1","1","",""
"","feedback","","html-keyboard-response","545","520553","0.0-1.0-762.0-0.0","0","0","51823","","null","","","null","84","","","","","","","","","","","","","","","",""
"","ITI","","html-keyboard-response","546","521557","0.0-1.0-765.0","0","0","51823","","null","","","null","84","","","","","","","","","","","","","","","NaN",""
"","S1","","html-keyboard-response","547","521813","0.0-1.0-767.0","0","0","51823","","null","","","null","85","","","","","","","","","","","","","","","",""
"","ISI","","html-keyboard-response","548","522824","0.0-1.0-768.0","0","0","51823","","null","","","null","85","NaN","","","","","","","","","","","","","","",""
"","S2","","html-keyboard-response","549","523085","0.0-1.0-769.0","0","0","51823","","null","","","null","85","","NaN","","","","","","","","","","","","","",""
"","response","","html-keyboard-response","550","523370","0.0-1.0-770.0-0.0","0","0","51823","","283","","","75","85","","","2","85","training","adjacent","FG","6","7","Q.jpg","O.jpg","1","1","1","",""
"","feedback","","html-keyboard-response","551","524384","0.0-1.0-771.0-0.0","0","0","51823","","null","","","null","85","","","","","","","","","","","","","","","",""
"","ITI","","html-keyboard-response","552","525389","0.0-1.0-774.0","0","0","51823","","null","","","null","85","","","","","","","","","","","","","","","NaN",""
"","S1","","html-keyboard-response","553","525645","0.0-1.0-776.0","0","0","51823","","null","","","null","86","","","","","","","","","","","","","","","",""
"","ISI","","html-keyboard-response","554","526654","0.0-1.0-777.0","0","0","51823","","null","","","null","86","NaN","","","","","","","","","","","","","","",""
"","S2","","html-keyboard-response","555","526909","0.0-1.0-778.0","0","0","51823","","null","","","null","86","","NaN","","","","","","","","","","","","","",""
"","response","","html-keyboard-response","556","527656","0.0-1.0-779.0-0.0","0","0","51823","","745","","","68","86","","","2","86","training","adjacent","FE","6","5","Q.jpg","M.jpg","0","0","1","",""
"","feedback","","html-keyboard-response","557","528662","0.0-1.0-780.0-0.0","0","0","51823","","null","","","null","86","","","","","","","","","","","","","","","",""
"","ITI","","html-keyboard-response","558","529669","0.0-1.0-783.0","0","0","51823","","null","","","null","86","","","","","","","","","","","","","","","NaN",""
"","S1","","html-keyboard-response","559","529928","0.0-1.0-785.0","0","0","51823","","null","","","null","87","","","","","","","","","","","","","","","",""
"","ISI","","html-keyboard-response","560","530933","0.0-1.0-786.0","0","0","51823","","null","","","null","87","NaN","","","","","","","","","","","","","","",""
"","S2","","html-keyboard-response","561","531188","0.0-1.0-787.0","0","0","51823","","null","","","null","87","","NaN","","","","","","","","","","","","","",""
"","response","","html-keyboard-response","562","532085","0.0-1.0-788.0-0.0","0","0","51823","","895","","","68","87","","","2","87","training","adjacent","BC","2","3","R.jpg","L.jpg","0","1","0","",""
"","feedback","","html-keyboard-response","563","533092","0.0-1.0-789.0-0.0","0","0","51823","","null","","","null","87","","","","","","","","","","","","","","","",""
"","time_out","","html-keyboard-response","564","535101","0.0-1.0-791.0-0.0","0","0","51823","","null","","","null","87","","","","","","","","","","","","","","","",""
"","ITI","","html-keyboard-response","565","536111","0.0-1.0-792.0","0","0","51823","","null","","","null","87","","","","","","","","","","","","","","","NaN",""
"","S1","","html-keyboard-response","566","536376","0.0-1.0-794.0","0","0","51823","","null","","","null","88","","","","","","","","","","","","","","","",""
"","ISI","","html-keyboard-response","567","537381","0.0-1.0-795.0","0","0","51823","","null","","","null","88","NaN","","","","","","","","","","","","","","",""
"","S2","","html-keyboard-response","568","537637","0.0-1.0-796.0","0","0","51823","","null","","","null","88","","NaN","","","","","","","","","","","","","",""
"","response","","html-keyboard-response","569","538493","0.0-1.0-797.0-0.0","0","0","51823","","853","","","68","88","","","2","88","training","adjacent","BA","2","1","R.jpg","N.jpg","0","0","1","",""
"","feedback","","html-keyboard-response","570","539501","0.0-1.0-798.0-0.0","0","0","51823","","null","","","null","88","","","","","","","","","","","","","","","",""
"","ITI","","html-keyboard-response","571","540510","0.0-1.0-801.0","0","0","51823","","null","","","null","88","","","","","","","","","","","","","","","NaN",""
"","S1","","html-keyboard-response","572","540765","0.0-1.0-803.0","0","0","51823","","null","","","null","89","","","","","","","","","","","","","","","",""
"","ISI","","html-keyboard-response","573","541777","0.0-1.0-804.0","0","0","51823","","null","","","null","89","NaN","","","","","","","","","","","","","","",""
"","S2","","html-keyboard-response","574","542037","0.0-1.0-805.0","0","0","51823","","null","","","null","89","","NaN","","","","","","","","","","","","","",""
"","response","","html-keyboard-response","575","542762","0.0-1.0-806.0-0.0","0","0","51823","","722","","","68","89","","","2","89","training","adjacent","DC","4","3","P.jpg","L.jpg","0","0","1","",""
"","feedback","","html-keyboard-response","576","543774","0.0-1.0-807.0-0.0","0","0","51823","","null","","","null","89","","","","","","","","","","","","","","","",""
"","ITI","","html-keyboard-response","577","544783","0.0-1.0-810.0","0","0","51823","","null","","","null","89","","","","","","","","","","","","","","","NaN",""
"","S1","","html-keyboard-response","578","545038","0.0-1.0-812.0","0","0","51823","","null","","","null","90","","","","","","","","","","","","","","","",""
"","ISI","","html-keyboard-response","579","546045","0.0-1.0-813.0","0","0","51823","","null","","","null","90","NaN","","","","","","","","","","","","","","",""
"","S2","","html-keyboard-response","580","546305","0.0-1.0-814.0","0","0","51823","","null","","","null","90","","NaN","","","","","","","","","","","","","",""
"","response","","html-keyboard-response","581","546392","0.0-1.0-815.0-0.0","0","0","51823","","84","","","68","90","","","2","90","training","adjacent","GF","7","6","O.jpg","Q.jpg","0","0","1","",""
"","feedback","","html-keyboard-response","582","547401","0.0-1.0-816.0-0.0","0","0","51823","","null","","","null","90","","","","","","","","","","","","","","","",""
