"success","ttype","start_time","trial_type","trial_index","time_elapsed","internal_node_id","warning","missed_checkup","PID","view_history","rt","responses","repeat_instructions","key_press","index","keypress_isi","keypress_S2","block","trial_num","phase","group_type","pair_type","S1_stim","S2_stim","S1_img","S2_img","S1_chosen","S1_higher","accuracy","keypress_iti","total_bonus_tally"
"true","full_screen","d04062023hr1721","fullscreen","0","11106","0.0-0.0","0","0","49598","","","","","","","","","","","","","","","","","","","","","",""
"","instructions","","instructions","1","38831","0.0-1.0-0.0-0.0","0","0","49598","[{""page_index"":0,""viewing_time"":4164},{""page_index"":1,""viewing_time"":16574},{""page_index"":2,""viewing_time"":5120},{""page_index"":3,""viewing_time"":1866}]","27724","","","","","","","","","","","","","","","","","","","",""
"","comprehension_check","","survey-multi-choice","2","62744","0.0-1.0-0.0-1.0","0","0","49598","","23910","{""Q0"":""True"",""Q1"":""D"",""Q2"":""Only when the screen 'MAKE A CHOICE' is shown"",""Q3"":""Green mark"",""Q4"":""either D or K""}","1","","","","","","","","","","","","","","","","","",""
"","missed_instruction_checkup","","html-keyboard-response","3","66520","0.0-1.0-0.0-2.0-0.0","0","1","49598","","3774","","","32","","","","","","","","","","","","","","","","",""
"","instructions","","instructions","4","96392","0.0-1.0-0.1-0.1","0","0","49598","[{""page_index"":0,""viewing_time"":6710},{""page_index"":1,""viewing_time"":15964},{""page_index"":2,""viewing_time"":5168},{""page_index"":3,""viewing_time"":2029}]","29871","","","","","","","","","","","","","","","","","","","",""
"","comprehension_check","","survey-multi-choice","5","111161","0.0-1.0-0.1-1.1","0","0","49598","","14767","{""Q0"":""True"",""Q1"":""D"",""Q2"":""Once the second image appears and while the screen 'MAKE A CHOICE' is shown"",""Q3"":""Green mark"",""Q4"":""either D or K""}","0","","","","","","","","","","","","","","","","","",""
"","start_exp","","html-keyboard-response","6","112199","0.0-1.0-1.0","0","0","49598","","1036","","","32","","","","","","","","","","","","","","","","",""
"","S1","","html-keyboard-response","7","112351","0.0-1.0-2.0","0","0","49598","","null","","","null","0","","","","","","","","","","","","","","","",""
"","ISI","","html-keyboard-response","8","114354","0.0-1.0-3.0","0","0","49598","","null","","","null","0","NaN","","","","","","","","","","","","","","",""
"","S2","","html-keyboard-response","9","114507","0.0-1.0-4.0","0","0","49598","","null","","","null","0","","NaN","","","","","","","","","","","","","",""
"","response","","html-keyboard-response","10","115339","0.0-1.0-5.0-0.0","0","0","49598","","828","","","68","0","","","1","0","training","adjacent","FG","6","7","P.jpg","O.jpg","1","1","1","",""
"","feedback","","html-keyboard-response","11","116342","0.0-1.0-6.0-0.0","0","0","49598","","null","","","null","0","","","","","","","","","","","","","","","",""
"","ITI","","html-keyboard-response","12","117344","0.0-1.0-9.0","0","0","49598","","null","","","null","0","","","","","","","","","","","","","","","NaN",""
"","S1","","html-keyboard-response","13","117496","0.0-1.0-11.0","0","0","49598","","null","","","null","1","","","","","","","","","","","","","","","",""
"","ISI","","html-keyboard-response","14","119498","0.0-1.0-12.0","0","0","49598","","null","","","null","1","NaN","","","","","","","","","","","","","","",""
"","S2","","html-keyboard-response","15","119650","0.0-1.0-13.0","0","0","49598","","null","","","null","1","","NaN","","","","","","","","","","","","","",""
"","response","","html-keyboard-response","16","120022","0.0-1.0-14.0-0.0","0","0","49598","","370","","","75","1","","","1","1","training","adjacent","GF","7","6","O.jpg","P.jpg","0","0","1","",""
"","feedback","","html-keyboard-response","17","121024","0.0-1.0-15.0-0.0","0","0","49598","","null","","","null","1","","","","","","","","","","","","","","","",""
"","ITI","","html-keyboard-response","18","122027","0.0-1.0-18.0","0","0","49598","","null","","","null","1","","","","","","","","","","","","","","","NaN",""
"","S1","","html-keyboard-response","19","122180","0.0-1.0-20.0","0","0","49598","","null","","","null","2","","","","","","","","","","","","","","","",""
"","ISI","","html-keyboard-response","20","124183","0.0-1.0-21.0","0","0","49598","","null","","","null","2","NaN","","","","","","","","","","","","","","",""
"","S2","","html-keyboard-response","21","124334","0.0-1.0-22.0","0","0","49598","","null","","","null","2","","NaN","","","","","","","","","","","","","",""
"","response","","html-keyboard-response","22","124729","0.0-1.0-23.0-0.0","0","0","49598","","393","","","75","2","","","1","2","training","adjacent","FE","6","5","P.jpg","M.jpg","0","0","1","",""
"","feedback","","html-keyboard-response","23","125733","0.0-1.0-24.0-0.0","0","0","49598","","null","","","null","2","","","","","","","","","","","","","","","",""
"","ITI","","html-keyboard-response","24","126735","0.0-1.0-27.0","0","0","49598","","null","","","null","2","","","","","","","","","","","","","","","NaN",""
"","S1","","html-keyboard-response","25","126887","0.0-1.0-29.0","0","0","49598","","null","","","null","3","","","","","","","","","","","","","","","",""
"","ISI","","html-keyboard-response","26","128889","0.0-1.0-30.0","0","0","49598","","null","","","null","3","NaN","","","","","","","","","","","","","","",""
"","S2","","html-keyboard-response","27","129042","0.0-1.0-31.0","0","0","49598","","null","","","null","3","","NaN","","","","","","","","","","","","","",""
"","response","","html-keyboard-response","28","129699","0.0-1.0-32.0-0.0","0","0","49598","","657","","","75","3","","","1","3","training","adjacent","AB","1","2","Q.jpg","L.jpg","0","1","0","",""
"","feedback","","html-keyboard-response","29","130702","0.0-1.0-33.0-0.0","0","0","49598","","null","","","null","3","","","","","","","","","","","","","","","",""
"","time_out","","html-keyboard-response","30","132705","0.0-1.0-35.0-0.0","0","0","49598","","null","","","null","3","","","","","","","","","","","","","","","",""
"","ITI","","html-keyboard-response","31","133709","0.0-1.0-36.0","0","0","49598","","null","","","null","3","","","","","","","","","","","","","","","NaN",""
"","S1","","html-keyboard-response","32","133862","0.0-1.0-38.0","0","0","49598","","null","","","null","4","","","","","","","","","","","","","","","",""
"","ISI","","html-keyboard-response","33","135864","0.0-1.0-39.0","0","0","49598","","null","","","null","4","NaN","","","","","","","","","","","","","","",""
"","S2","","html-keyboard-response","34","136016","0.0-1.0-40.0","0","0","49598","","null","","","null","4","","NaN","","","","","","","","","","","","","",""
"","response","","html-keyboard-response","35","136129","0.0-1.0-41.0-0.0","0","0","49598","","111","","","68","4","","","1","4","training","adjacent","CD","3","4","N.jpg","R.jpg","1","1","1","",""
"","feedback","","html-keyboard-response","36","137131","0.0-1.0-42.0-0.0","0","0","49598","","null","","","null","4","","","","","","","","","","","","","","","",""
"","ITI","","html-keyboard-response","37","138133","0.0-1.0-45.0","0","0","49598","","null","","","null","4","","","","","","","","","","","","","","","NaN",""
"","S1","","html-keyboard-response","38","138285","0.0-1.0-47.0","0","0","49598","","null","","","null","5","","","","","","","","","","","","","","","",""
"","ISI","","html-keyboard-response","39","140288","0.0-1.0-48.0","0","0","49598","","null","","","null","5","NaN","","","","","","","","","","","","","","",""
"","S2","","html-keyboard-response","40","140440","0.0-1.0-49.0","0","0","49598","","null","","","null","5","","NaN","","","","","","","","","","","","","",""
"","response","","html-keyboard-response","41","140789","0.0-1.0-50.0-0.0","0","0","49598","","349","","","68","5","","","1","5","training","adjacent","BA","2","1","L.jpg","Q.jpg","1","0","0","",""
"","feedback","","html-keyboard-response","42","141791","0.0-1.0-51.0-0.0","0","0","49598","","null","","","null","5","","","","","","","","","","","","","","","",""
"","time_out","","html-keyboard-response","43","143794","0.0-1.0-53.0-0.0","0","0","49598","","null","","","null","5","","","","","","","","","","","","","","","",""
"","ITI","","html-keyboard-response","44","144796","0.0-1.0-54.0","0","0","49598","","null","","","null","5","","","","","","","","","","","","","","","NaN",""
"","S1","","html-keyboard-response","45","144949","0.0-1.0-56.0","0","0","49598","","null","","","null","6","","","","","","","","","","","","","","","",""
"","ISI","","html-keyboard-response","46","146951","0.0-1.0-57.0","0","0","49598","","null","","","null","6","NaN","","","","","","","","","","","","","","",""
"","S2","","html-keyboard-response","47","147104","0.0-1.0-58.0","0","0","49598","","null","","","null","6","","NaN","","","","","","","","","","","","","",""
"","response","","html-keyboard-response","48","147152","0.0-1.0-59.0-0.0","0","0","49598","","46","","","75","6","","","1","6","training","adjacent","BC","2","3","L.jpg","N.jpg","0","1","0","",""
"","feedback","","html-keyboard-response","49","148154","0.0-1.0-60.0-0.0","0","0","49598","","null","","","null","6","","","","","","","","","","","","","","","",""
"","time_out","","html-keyboard-response","50","150157","0.0-1.0-62.0-0.0","0","0","49598","","null","","","null","6","","","","","","","","","","","","","","","",""
"","ITI","","html-keyboard-response","51","151160","0.0-1.0-63.0","0","0","49598","","null","","","null","6","","","","","","","","","","","","","","","NaN",""
"","S1","","html-keyboard-response","52","151313","0.0-1.0-65.0","0","0","49598","","null","","","null","7","","","","","","","","","","","","","","","",""
"","ISI","","html-keyboard-response","53","153315","0.0-1.0-66.0","0","0","49598","","null","","","null","7","NaN","","","","","","","","","","","","","","",""
"","S2","","html-keyboard-response","54","153467","0.0-1.0-67.0","0","0","49598","","null","","","null","7","","NaN","","","","","","","","","","","","","",""
"","response","","html-keyboard-response","55","153517","0.0-1.0-68.0-0.0","0","0","49598","","48","","","68","7","","","1","7","training","adjacent","CB","3","2","N.jpg","L.jpg","1","0","0","",""
"","feedback","","html-keyboard-response","56","154519","0.0-1.0-69.0-0.0","0","0","49598","","null","","","null","7","","","","","","","","","","","","","","","",""
"","time_out","","html-keyboard-response","57","156521","0.0-1.0-71.0-0.0","0","0","49598","","null","","","null","7","","","","","","","","","","","","","","","",""
"","ITI","","html-keyboard-response","58","157523","0.0-1.0-72.0","0","0","49598","","null","","","null","7","","","","","","","","","","","","","","","NaN",""
"","S1","","html-keyboard-response","59","157674","0.0-1.0-74.0","0","0","49598","","null","","","null","8","","","","","","","","","","","","","","","",""
"","ISI","","html-keyboard-response","60","159677","0.0-1.0-75.0","0","0","49598","","null","","","null","8","NaN","","","","","","","","","","","","","","",""
"","S2","","html-keyboard-response","61","159830","0.0-1.0-76.0","0","0","49598","","null","","","null","8","","NaN","","","","","","","","","","","","","",""
"","response","","html-keyboard-response","62","160287","0.0-1.0-77.0-0.0","0","0","49598","","456","","","75","8","","","1","8","training","adjacent","ED","5","4","M.jpg","R.jpg","0","0","1","",""
"","feedback","","html-keyboard-response","63","161289","0.0-1.0-78.0-0.0","0","0","49598","","null","","","null","8","","","","","","","","","","","","","","","",""
"","ITI","","html-keyboard-response","64","162292","0.0-1.0-81.0","0","0","49598","","null","","","null","8","","","","","","","","","","","","","","","NaN",""
"","S1","","html-keyboard-response","65","162444","0.0-1.0-83.0","0","0","49598","","null","","","null","9","","","","","","","","","","","","","","","",""
"","ISI","","html-keyboard-response","66","164446","0.0-1.0-84.0","0","0","49598","","null","","","null","9","NaN","","","","","","","","","","","","","","",""
"","S2","","html-keyboard-response","67","164599","0.0-1.0-85.0","0","0","49598","","null","","","null","9","","NaN","","","","","","","","","","","","","",""
"","response","","html-keyboard-response","68","164885","0.0-1.0-86.0-0.0","0","0","49598","","284","","","68","9","","","1","9","training","adjacent","BC","2","3","L.jpg","N.jpg","1","1","1","",""
"","feedback","","html-keyboard-response","69","165887","0.0-1.0-87.0-0.0","0","0","49598","","null","","","null","9","","","","","","","","","","","","","","","",""
"","ITI","","html-keyboard-response","70","166889","0.0-1.0-90.0","0","0","49598","","null","","","null","9","","","","","","","","","","","","","","","NaN",""
"","S1","","html-keyboard-response","71","167049","0.0-1.0-92.0","0","0","49598","","null","","","null","10","","","","","","","","","","","","","","","",""
"","ISI","","html-keyboard-response","72","169053","0.0-1.0-93.0","0","0","49598","","null","","","null","10","NaN","","","","","","","","","","","","","","",""
"","S2","","html-keyboard-response","73","169205","0.0-1.0-94.0","0","0","49598","","null","","","null","10","","NaN","","","","","","","","","","","","","",""
"","response","","html-keyboard-response","74","169594","0.0-1.0-95.0-0.0","0","0","49598","","387","","","75","10","","","1","10","training","adjacent","DE","4","5","R.jpg","M.jpg","0","1","0","",""
"","feedback","","html-keyboard-response","75","170595","0.0-1.0-96.0-0.0","0","0","49598","","null","","","null","10","","","","","","","","","","","","","","","",""
"","time_out","","html-keyboard-response","76","172598","0.0-1.0-98.0-0.0","0","0","49598","","null","","","null","10","","","","","","","","","","","","","","","",""
"","ITI","","html-keyboard-response","77","173601","0.0-1.0-99.0","0","0","49598","","null","","","null","10","","","","","","","","","","","","","","","NaN",""
"","S1","","html-keyboard-response","78","173753","0.0-1.0-101.0","0","0","49598","","null","","","null","11","","","","","","","","","","","","","","","",""
"","ISI","","html-keyboard-response","79","175756","0.0-1.0-102.0","0","0","49598","","null","","","null","11","NaN","","","","","","","","","","","","","","",""
"","S2","","html-keyboard-response","80","175907","0.0-1.0-103.0","0","0","49598","","null","","","null","11","","NaN","","","","","","","","","","","","","",""
"","response","","html-keyboard-response","81","176338","0.0-1.0-104.0-0.0","0","0","49598","","429","","","75","11","","","1","11","training","adjacent","EF","5","6","M.jpg","P.jpg","0","1","0","",""
"","feedback","","html-keyboard-response","82","177341","0.0-1.0-105.0-0.0","0","0","49598","","null","","","null","11","","","","","","","","","","","","","","","",""
"","time_out","","html-keyboard-response","83","179343","0.0-1.0-107.0-0.0","0","0","49598","","null","","","null","11","","","","","","","","","","","","","","","",""
"","ITI","","html-keyboard-response","84","180344","0.0-1.0-108.0","0","0","49598","","null","","","null","11","","","","","","","","","","","","","","","NaN",""
"","S1","","html-keyboard-response","85","180497","0.0-1.0-110.0","0","0","49598","","null","","","null","12","","","","","","","","","","","","","","","",""
"","ISI","","html-keyboard-response","86","182500","0.0-1.0-111.0","0","0","49598","","null","","","null","12","NaN","","","","","","","","","","","","","","",""
"","S2","","html-keyboard-response","87","182654","0.0-1.0-112.0","0","0","49598","","null","","","null","12","","NaN","","","","","","","","","","","","","",""
"","response","","html-keyboard-response","88","183087","0.0-1.0-113.0-0.0","0","0","49598","","433","","","75","12","","","1","12","training","adjacent","FG","6","7","P.jpg","O.jpg","0","1","0","",""
"","feedback","","html-keyboard-response","89","184090","0.0-1.0-114.0-0.0","0","0","49598","","null","","","null","12","","","","","","","","","","","","","","","",""
"","time_out","","html-keyboard-response","90","186093","0.0-1.0-116.0-0.0","0","0","49598","","null","","","null","12","","","","","","","","","","","","","","","",""
"","ITI","","html-keyboard-response","91","187095","0.0-1.0-117.0","0","0","49598","","null","","","null","12","","","","","","","","","","","","","","","NaN",""
"","S1","","html-keyboard-response","92","187247","0.0-1.0-119.0","0","0","49598","","null","","","null","13","","","","","","","","","","","","","","","",""
"","ISI","","html-keyboard-response","93","189248","0.0-1.0-120.0","0","0","49598","","null","","","null","13","NaN","","","","","","","","","","","","","","",""
"","S2","","html-keyboard-response","94","189400","0.0-1.0-121.0","0","0","49598","","null","","","null","13","","NaN","","","","","","","","","","","","","",""
"","response","","html-keyboard-response","95","189677","0.0-1.0-122.0-0.0","0","0","49598","","275","","","68","13","","","1","13","training","adjacent","ED","5","4","M.jpg","R.jpg","1","0","0","",""
"","feedback","","html-keyboard-response","96","190679","0.0-1.0-123.0-0.0","0","0","49598","","null","","","null","13","","","","","","","","","","","","","","","",""
"","time_out","","html-keyboard-response","97","192682","0.0-1.0-125.0-0.0","0","0","49598","","null","","","null","13","","","","","","","","","","","","","","","",""
"","ITI","","html-keyboard-response","98","193685","0.0-1.0-126.0","0","0","49598","","null","","","null","13","","","","","","","","","","","","","","","NaN",""
"","S1","","html-keyboard-response","99","193837","0.0-1.0-128.0","0","0","49598","","null","","","null","14","","","","","","","","","","","","","","","",""
"","ISI","","html-keyboard-response","100","195838","0.0-1.0-129.0","0","0","49598","","null","","","null","14","NaN","","","","","","","","","","","","","","",""
"","S2","","html-keyboard-response","101","195990","0.0-1.0-130.0","0","0","49598","","null","","","null","14","","NaN","","","","","","","","","","","","","",""
"","response","","html-keyboard-response","102","196067","0.0-1.0-131.0-0.0","0","0","49598","","76","","","68","14","","","1","14","training","adjacent","AB","1","2","Q.jpg","L.jpg","1","1","1","",""
"","feedback","","html-keyboard-response","103","197069","0.0-1.0-132.0-0.0","0","0","49598","","null","","","null","14","","","","","","","","","","","","","","","",""
"","ITI","","html-keyboard-response","104","198070","0.0-1.0-135.0","0","0","49598","","null","","","null","14","","","","","","","","","","","","","","","NaN",""
"","S1","","html-keyboard-response","105","198222","0.0-1.0-137.0","0","0","49598","","null","","","null","15","","","","","","","","","","","","","","","",""
"","ISI","","html-keyboard-response","106","200224","0.0-1.0-138.0","0","0","49598","","null","","","null","15","NaN","","","","","","","","","","","","","","",""
"","S2","","html-keyboard-response","107","200377","0.0-1.0-139.0","0","0","49598","","null","","","null","15","","NaN","","","","","","","","","","","","","",""
"","response","","html-keyboard-response","108","200485","0.0-1.0-140.0-0.0","0","0","49598","","107","","","68","15","","","1","15","training","adjacent","ED","5","4","M.jpg","R.jpg","1","0","0","",""
"","feedback","","html-keyboard-response","109","201488","0.0-1.0-141.0-0.0","0","0","49598","","null","","","null","15","","","","","","","","","","","","","","","",""
"","time_out","","html-keyboard-response","110","203490","0.0-1.0-143.0-0.0","0","0","49598","","null","","","null","15","","","","","","","","","","","","","","","",""
"","ITI","","html-keyboard-response","111","204493","0.0-1.0-144.0","0","0","49598","","null","","","null","15","","","","","","","","","","","","","","","NaN",""
"","S1","","html-keyboard-response","112","204646","0.0-1.0-146.0","0","0","49598","","null","","","null","16","","","","","","","","","","","","","","","",""
"","ISI","","html-keyboard-response","113","206649","0.0-1.0-147.0","0","0","49598","","null","","","null","16","NaN","","","","","","","","","","","","","","",""
"","S2","","html-keyboard-response","114","206803","0.0-1.0-148.0","0","0","49598","","null","","","null","16","","NaN","","","","","","","","","","","","","",""
"","response","","html-keyboard-response","115","207026","0.0-1.0-149.0-0.0","0","0","49598","","222","","","68","16","","","1","16","training","adjacent","CB","3","2","N.jpg","L.jpg","1","0","0","",""
"","feedback","","html-keyboard-response","116","208028","0.0-1.0-150.0-0.0","0","0","49598","","null","","","null","16","","","","","","","","","","","","","","","",""
"","time_out","","html-keyboard-response","117","210031","0.0-1.0-152.0-0.0","0","0","49598","","null","","","null","16","","","","","","","","","","","","","","","",""
"","ITI","","html-keyboard-response","118","211033","0.0-1.0-153.0","0","0","49598","","null","","","null","16","","","","","","","","","","","","","","","NaN",""
"","S1","","html-keyboard-response","119","211185","0.0-1.0-155.0","0","0","49598","","null","","","null","17","","","","","","","","","","","","","","","",""
"","ISI","","html-keyboard-response","120","213188","0.0-1.0-156.0","0","0","49598","","null","","","null","17","NaN","","","","","","","","","","","","","","",""
"","S2","","html-keyboard-response","121","213340","0.0-1.0-157.0","0","0","49598","","null","","","null","17","","NaN","","","","","","","","","","","","","",""
"","response","","html-keyboard-response","122","213500","0.0-1.0-158.0-0.0","0","0","49598","","160","","","75","17","","","1","17","training","adjacent","EF","5","6","M.jpg","P.jpg","0","1","0","",""
"","feedback","","html-keyboard-response","123","214503","0.0-1.0-159.0-0.0","0","0","49598","","null","","","null","17","","","","","","","","","","","","","","","",""
"","time_out","","html-keyboard-response","124","216505","0.0-1.0-161.0-0.0","0","0","49598","","null","","","null","17","","","","","","","","","","","","","","","",""
"","ITI","","html-keyboard-response","125","217508","0.0-1.0-162.0","0","0","49598","","null","","","null","17","","","","","","","","","","","","","","","NaN",""
"","S1","","html-keyboard-response","126","217660","0.0-1.0-164.0","0","0","49598","","null","","","null","18","","","","","","","","","","","","","","","",""
"","ISI","","html-keyboard-response","127","219662","0.0-1.0-165.0","0","0","49598","","192","","","68","18","d","","","","","","","","","","","","","","",""
"","S2","","html-keyboard-response","128","219815","0.0-1.0-166.0","0","0","49598","","null","","","null","18","","NaN","","","","","","","","","","","","","",""
"","response","","html-keyboard-response","129","219898","0.0-1.0-167.0-0.0","0","0","49598","","83","","","68","18","","","1","18","training","adjacent","EF","5","6","M.jpg","P.jpg","1","1","1","",""
"","feedback","","html-keyboard-response","130","220899","0.0-1.0-168.0-0.0","0","0","49598","","null","","","null","18","","","","","","","","","","","","","","","",""
"","ITI","","html-keyboard-response","131","221903","0.0-1.0-171.0","0","0","49598","","null","","","null","18","","","","","","","","","","","","","","","NaN",""
"","S1","","html-keyboard-response","132","222056","0.0-1.0-173.0","0","0","49598","","null","","","null","19","","","","","","","","","","","","","","","",""
"","ISI","","html-keyboard-response","133","224058","0.0-1.0-174.0","0","0","49598","","null","","","null","19","NaN","","","","","","","","","","","","","","",""
"","S2","","html-keyboard-response","134","224211","0.0-1.0-175.0","0","0","49598","","null","","","null","19","","NaN","","","","","","","","","","","","","",""
"","response","","html-keyboard-response","135","224476","0.0-1.0-176.0-0.0","0","0","49598","","264","","","68","19","","","1","19","training","adjacent","DE","4","5","R.jpg","M.jpg","1","1","1","",""
"","feedback","","html-keyboard-response","136","225478","0.0-1.0-177.0-0.0","0","0","49598","","null","","","null","19","","","","","","","","","","","","","","","",""
"","ITI","","html-keyboard-response","137","226479","0.0-1.0-180.0","0","0","49598","","null","","","null","19","","","","","","","","","","","","","","","NaN",""
"","S1","","html-keyboard-response","138","226631","0.0-1.0-182.0","0","0","49598","","null","","","null","20","","","","","","","","","","","","","","","",""
"","ISI","","html-keyboard-response","139","228632","0.0-1.0-183.0","0","0","49598","","null","","","null","20","NaN","","","","","","","","","","","","","","",""
"","S2","","html-keyboard-response","140","228785","0.0-1.0-184.0","0","0","49598","","null","","","null","20","","NaN","","","","","","","","","","","","","",""
"","response","","html-keyboard-response","141","229047","0.0-1.0-185.0-0.0","0","0","49598","","261","","","68","20","","","1","20","training","adjacent","GF","7","6","O.jpg","P.jpg","1","0","0","",""
"","feedback","","html-keyboard-response","142","230048","0.0-1.0-186.0-0.0","0","0","49598","","null","","","null","20","","","","","","","","","","","","","","","",""
"","time_out","","html-keyboard-response","143","232050","0.0-1.0-188.0-0.0","0","0","49598","","null","","","null","20","","","","","","","","","","","","","","","",""
"","ITI","","html-keyboard-response","144","233052","0.0-1.0-189.0","0","0","49598","","null","","","null","20","","","","","","","","","","","","","","","NaN",""
"","S1","","html-keyboard-response","145","233205","0.0-1.0-191.0","0","0","49598","","null","","","null","21","","","","","","","","","","","","","","","",""
"","ISI","","html-keyboard-response","146","235208","0.0-1.0-192.0","0","0","49598","","null","","","null","21","NaN","","","","","","","","","","","","","","",""
"","S2","","html-keyboard-response","147","235361","0.0-1.0-193.0","0","0","49598","","null","","","null","21","","NaN","","","","","","","","","","","","","",""
"","response","","html-keyboard-response","148","235714","0.0-1.0-194.0-0.0","0","0","49598","","352","","","68","21","","","1","21","training","adjacent","CB","3","2","N.jpg","L.jpg","1","0","0","",""
"","feedback","","html-keyboard-response","149","236716","0.0-1.0-195.0-0.0","0","0","49598","","null","","","null","21","","","","","","","","","","","","","","","",""
"","time_out","","html-keyboard-response","150","238717","0.0-1.0-197.0-0.0","0","0","49598","","null","","","null","21","","","","","","","","","","","","","","","",""
"","ITI","","html-keyboard-response","151","239719","0.0-1.0-198.0","0","0","49598","","null","","","null","21","","","","","","","","","","","","","","","NaN",""
"","S1","","html-keyboard-response","152","239871","0.0-1.0-200.0","0","0","49598","","null","","","null","22","","","","","","","","","","","","","","","",""
"","ISI","","html-keyboard-response","153","241874","0.0-1.0-201.0","0","0","49598","","null","","","null","22","NaN","","","","","","","","","","","","","","",""
"","S2","","html-keyboard-response","154","242026","0.0-1.0-202.0","0","0","49598","","null","","","null","22","","NaN","","","","","","","","","","","","","",""
"","response","","html-keyboard-response","155","242733","0.0-1.0-203.0-0.0","0","0","49598","","705","","","68","22","","","1","22","training","adjacent","GF","7","6","O.jpg","P.jpg","1","0","0","",""
"","feedback","","html-keyboard-response","156","243736","0.0-1.0-204.0-0.0","0","0","49598","","null","","","null","22","","","","","","","","","","","","","","","",""
"","time_out","","html-keyboard-response","157","245737","0.0-1.0-206.0-0.0","0","0","49598","","null","","","null","22","","","","","","","","","","","","","","","",""
"","ITI","","html-keyboard-response","158","246740","0.0-1.0-207.0","0","0","49598","","null","","","null","22","","","","","","","","","","","","","","","NaN",""
"","S1","","html-keyboard-response","159","246893","0.0-1.0-209.0","0","0","49598","","null","","","null","23","","","","","","","","","","","","","","","",""
"","ISI","","html-keyboard-response","160","248894","0.0-1.0-210.0","0","0","49598","","null","","","null","23","NaN","","","","","","","","","","","","","","",""
"","S2","","html-keyboard-response","161","249046","0.0-1.0-211.0","0","0","49598","","null","","","null","23","","NaN","","","","","","","","","","","","","",""
"","response","","html-keyboard-response","162","249174","0.0-1.0-212.0-0.0","0","0","49598","","128","","","68","23","","","1","23","training","adjacent","AB","1","2","Q.jpg","L.jpg","1","1","1","",""
"","feedback","","html-keyboard-response","163","250177","0.0-1.0-213.0-0.0","0","0","49598","","null","","","null","23","","","","","","","","","","","","","","","",""
"","ITI","","html-keyboard-response","164","251179","0.0-1.0-216.0","0","0","49598","","null","","","null","23","","","","","","","","","","","","","","","NaN",""
"","S1","","html-keyboard-response","165","251338","0.0-1.0-218.0","0","0","49598","","null","","","null","24","","","","","","","","","","","","","","","",""
"","ISI","","html-keyboard-response","166","253340","0.0-1.0-219.0","0","0","49598","","null","","","null","24","NaN","","","","","","","","","","","","","","",""
"","S2","","html-keyboard-response","167","253499","0.0-1.0-220.0","0","0","49598","","null","","","null","24","","NaN","","","","","","","","","","","","","",""
"","response","","html-keyboard-response","168","253646","0.0-1.0-221.0-0.0","0","0","49598","","145","","","68","24","","","1","24","training","adjacent","FG","6","7","P.jpg","O.jpg","1","1","1","",""
"","feedback","","html-keyboard-response","169","254648","0.0-1.0-222.0-0.0","0","0","49598","","null","","","null","24","","","","","","","","","","","","","","","",""
"","ITI","","html-keyboard-response","170","255649","0.0-1.0-225.0","0","0","49598","","null","","","null","24","","","","","","","","","","","","","","","NaN",""
"","S1","","html-keyboard-response","171","255800","0.0-1.0-227.0","0","0","49598","","null","","","null","25","","","","","","","","","","","","","","","",""
"","ISI","","html-keyboard-response","172","257803","0.0-1.0-228.0","0","0","49598","","null","","","null","25","NaN","","","","","","","","","","","","","","",""
"","S2","","html-keyboard-response","173","257955","0.0-1.0-229.0","0","0","49598","","null","","","null","25","","NaN","","","","","","","","","","","","","",""
"","response","","html-keyboard-response","174","258039","0.0-1.0-230.0-0.0","0","0","49598","","83","","","68","25","","","1","25","training","adjacent","DC","4","3","R.jpg","N.jpg","1","0","0","",""
"","feedback","","html-keyboard-response","175","259042","0.0-1.0-231.0-0.0","0","0","49598","","null","","","null","25","","","","","","","","","","","","","","","",""
"","time_out","","html-keyboard-response","176","261045","0.0-1.0-233.0-0.0","0","0","49598","","null","","","null","25","","","","","","","","","","","","","","","",""
"","ITI","","html-keyboard-response","177","262048","0.0-1.0-234.0","0","0","49598","","null","","","null","25","","","","","","","","","","","","","","","NaN",""
"","S1","","html-keyboard-response","178","262200","0.0-1.0-236.0","0","0","49598","","null","","","null","26","","","","","","","","","","","","","","","",""
"","ISI","","html-keyboard-response","179","264202","0.0-1.0-237.0","0","0","49598","","null","","","null","26","NaN","","","","","","","","","","","","","","",""
"","S2","","html-keyboard-response","180","264354","0.0-1.0-238.0","0","0","49598","","null","","","null","26","","NaN","","","","","","","","","","","","","",""
"","response","","html-keyboard-response","181","264742","0.0-1.0-239.0-0.0","0","0","49598","","386","","","75","26","","","1","26","training","adjacent","CD","3","4","N.jpg","R.jpg","0","1","0","",""
"","feedback","","html-keyboard-response","182","265744","0.0-1.0-240.0-0.0","0","0","49598","","null","","","null","26","","","","","","","","","","","","","","","",""
"","time_out","","html-keyboard-response","183","267745","0.0-1.0-242.0-0.0","0","0","49598","","null","","","null","26","","","","","","","","","","","","","","","",""
"","ITI","","html-keyboard-response","184","268746","0.0-1.0-243.0","0","0","49598","","null","","","null","26","","","","","","","","","","","","","","","NaN",""
"","S1","","html-keyboard-response","185","268898","0.0-1.0-245.0","0","0","49598","","null","","","null","27","","","","","","","","","","","","","","","",""
"","ISI","","html-keyboard-response","186","270900","0.0-1.0-246.0","0","0","49598","","null","","","null","27","NaN","","","","","","","","","","","","","","",""
"","S2","","html-keyboard-response","187","271053","0.0-1.0-247.0","0","0","49598","","null","","","null","27","","NaN","","","","","","","","","","","","","",""
"","response","","html-keyboard-response","188","271126","0.0-1.0-248.0-0.0","0","0","49598","","72","","","68","27","","","1","27","training","adjacent","DC","4","3","R.jpg","N.jpg","1","0","0","",""
"","feedback","","html-keyboard-response","189","272128","0.0-1.0-249.0-0.0","0","0","49598","","null","","","null","27","","","","","","","","","","","","","","","",""
"","time_out","","html-keyboard-response","190","274132","0.0-1.0-251.0-0.0","0","0","49598","","null","","","null","27","","","","","","","","","","","","","","","",""
"","ITI","","html-keyboard-response","191","275135","0.0-1.0-252.0","0","0","49598","","null","","","null","27","","","","","","","","","","","","","","","NaN",""
"","S1","","html-keyboard-response","192","275288","0.0-1.0-254.0","0","0","49598","","null","","","null","28","","","","","","","","","","","","","","","",""
"","ISI","","html-keyboard-response","193","277289","0.0-1.0-255.0","0","0","49598","","null","","","null","28","NaN","","","","","","","","","","","","","","",""
"","S2","","html-keyboard-response","194","277442","0.0-1.0-256.0","0","0","49598","","null","","","null","28","","NaN","","","","","","","","","","","","","",""
"","response","","html-keyboard-response","195","277652","0.0-1.0-257.0-0.0","0","0","49598","","209","","","68","28","","","1","28","training","adjacent","EF","5","6","M.jpg","P.jpg","1","1","1","",""
"","feedback","","html-keyboard-response","196","278654","0.0-1.0-258.0-0.0","0","0","49598","","null","","","null","28","","","","","","","","","","","","","","","",""
"","ITI","","html-keyboard-response","197","279657","0.0-1.0-261.0","0","0","49598","","null","","","null","28","","","","","","","","","","","","","","","NaN",""
"","S1","","html-keyboard-response","198","279809","0.0-1.0-263.0","0","0","49598","","null","","","null","29","","","","","","","","","","","","","","","",""
"","ISI","","html-keyboard-response","199","281812","0.0-1.0-264.0","0","0","49598","","null","","","null","29","NaN","","","","","","","","","","","","","","",""
"","S2","","html-keyboard-response","200","281964","0.0-1.0-265.0","0","0","49598","","null","","","null","29","","NaN","","","","","","","","","","","","","",""
"","response","","html-keyboard-response","201","282026","0.0-1.0-266.0-0.0","0","0","49598","","60","","","75","29","","","1","29","training","adjacent","ED","5","4","M.jpg","R.jpg","0","0","1","",""
"","feedback","","html-keyboard-response","202","283028","0.0-1.0-267.0-0.0","0","0","49598","","null","","","null","29","","","","","","","","","","","","","","","",""
"","ITI","","html-keyboard-response","203","284031","0.0-1.0-270.0","0","0","49598","","null","","","null","29","","","","","","","","","","","","","","","NaN",""
"","S1","","html-keyboard-response","204","284184","0.0-1.0-272.0","0","0","49598","","null","","","null","30","","","","","","","","","","","","","","","",""
"","ISI","","html-keyboard-response","205","286186","0.0-1.0-273.0","0","0","49598","","null","","","null","30","NaN","","","","","","","","","","","","","","",""
"","S2","","html-keyboard-response","206","286338","0.0-1.0-274.0","0","0","49598","","null","","","null","30","","NaN","","","","","","","","","","","","","",""
"","response","","html-keyboard-response","207","286470","0.0-1.0-275.0-0.0","0","0","49598","","131","","","68","30","","","1","30","training","adjacent","GF","7","6","O.jpg","P.jpg","1","0","0","",""
"","feedback","","html-keyboard-response","208","287472","0.0-1.0-276.0-0.0","0","0","49598","","null","","","null","30","","","","","","","","","","","","","","","",""
"","time_out","","html-keyboard-response","209","289476","0.0-1.0-278.0-0.0","0","0","49598","","null","","","null","30","","","","","","","","","","","","","","","",""
"","ITI","","html-keyboard-response","210","290478","0.0-1.0-279.0","0","0","49598","","null","","","null","30","","","","","","","","","","","","","","","NaN",""
"","S1","","html-keyboard-response","211","290633","0.0-1.0-281.0","0","0","49598","","null","","","null","31","","","","","","","","","","","","","","","",""
"","ISI","","html-keyboard-response","212","292635","0.0-1.0-282.0","0","0","49598","","null","","","null","31","NaN","","","","","","","","","","","","","","",""
"","S2","","html-keyboard-response","213","292788","0.0-1.0-283.0","0","0","49598","","null","","","null","31","","NaN","","","","","","","","","","","","","",""
"","response","","html-keyboard-response","214","292967","0.0-1.0-284.0-0.0","0","0","49598","","178","","","68","31","","","1","31","training","adjacent","FE","6","5","P.jpg","M.jpg","1","0","0","",""
"","feedback","","html-keyboard-response","215","293969","0.0-1.0-285.0-0.0","0","0","49598","","null","","","null","31","","","","","","","","","","","","","","","",""
"","time_out","","html-keyboard-response","216","295970","0.0-1.0-287.0-0.0","0","0","49598","","null","","","null","31","","","","","","","","","","","","","","","",""
"","ITI","","html-keyboard-response","217","296972","0.0-1.0-288.0","0","0","49598","","null","","","null","31","","","","","","","","","","","","","","","NaN",""
"","S1","","html-keyboard-response","218","297123","0.0-1.0-290.0","0","0","49598","","null","","","null","32","","","","","","","","","","","","","","","",""
"","ISI","","html-keyboard-response","219","299125","0.0-1.0-291.0","0","0","49598","","null","","","null","32","NaN","","","","","","","","","","","","","","",""
"","S2","","html-keyboard-response","220","299278","0.0-1.0-292.0","0","0","49598","","null","","","null","32","","NaN","","","","","","","","","","","","","",""
"","response","","html-keyboard-response","221","299842","0.0-1.0-293.0-0.0","0","0","49598","","564","","","68","32","","","1","32","training","adjacent","DE","4","5","R.jpg","M.jpg","1","1","1","",""
"","feedback","","html-keyboard-response","222","300845","0.0-1.0-294.0-0.0","0","0","49598","","null","","","null","32","","","","","","","","","","","","","","","",""
"","ITI","","html-keyboard-response","223","301847","0.0-1.0-297.0","0","0","49598","","null","","","null","32","","","","","","","","","","","","","","","NaN",""
"","S1","","html-keyboard-response","224","301999","0.0-1.0-299.0","0","0","49598","","null","","","null","33","","","","","","","","","","","","","","","",""
"","ISI","","html-keyboard-response","225","304000","0.0-1.0-300.0","0","0","49598","","null","","","null","33","NaN","","","","","","","","","","","","","","",""
"","S2","","html-keyboard-response","226","304152","0.0-1.0-301.0","0","0","49598","","null","","","null","33","","NaN","","","","","","","","","","","","","",""
"","response","","html-keyboard-response","227","304406","0.0-1.0-302.0-0.0","0","0","49598","","253","","","68","33","","","1","33","training","adjacent","FE","6","5","P.jpg","M.jpg","1","0","0","",""
"","feedback","","html-keyboard-response","228","305409","0.0-1.0-303.0-0.0","0","0","49598","","null","","","null","33","","","","","","","","","","","","","","","",""
"","time_out","","html-keyboard-response","229","307411","0.0-1.0-305.0-0.0","0","0","49598","","null","","","null","33","","","","","","","","","","","","","","","",""
"","ITI","","html-keyboard-response","230","308413","0.0-1.0-306.0","0","0","49598","","null","","","null","33","","","","","","","","","","","","","","","NaN",""
"","S1","","html-keyboard-response","231","308566","0.0-1.0-308.0","0","0","49598","","null","","","null","34","","","","","","","","","","","","","","","",""
"","ISI","","html-keyboard-response","232","310567","0.0-1.0-309.0","0","0","49598","","null","","","null","34","NaN","","","","","","","","","","","","","","",""
"","S2","","html-keyboard-response","233","310719","0.0-1.0-310.0","0","0","49598","","null","","","null","34","","NaN","","","","","","","","","","","","","",""
"","response","","html-keyboard-response","234","311189","0.0-1.0-311.0-0.0","0","0","49598","","468","","","68","34","","","1","34","training","adjacent","BC","2","3","L.jpg","N.jpg","1","1","1","",""
"","feedback","","html-keyboard-response","235","312190","0.0-1.0-312.0-0.0","0","0","49598","","null","","","null","34","","","","","","","","","","","","","","","",""
"","ITI","","html-keyboard-response","236","313192","0.0-1.0-315.0","0","0","49598","","null","","","null","34","","","","","","","","","","","","","","","NaN",""
"","S1","","html-keyboard-response","237","313344","0.0-1.0-317.0","0","0","49598","","null","","","null","35","","","","","","","","","","","","","","","",""
"","ISI","","html-keyboard-response","238","315346","0.0-1.0-318.0","0","0","49598","","null","","","null","35","NaN","","","","","","","","","","","","","","",""
"","S2","","html-keyboard-response","239","315499","0.0-1.0-319.0","0","0","49598","","null","","","null","35","","NaN","","","","","","","","","","","","","",""
"","response","","html-keyboard-response","240","315685","0.0-1.0-320.0-0.0","0","0","49598","","185","","","75","35","","","1","35","training","adjacent","BA","2","1","L.jpg","Q.jpg","0","0","1","",""
"","feedback","","html-keyboard-response","241","316687","0.0-1.0-321.0-0.0","0","0","49598","","null","","","null","35","","","","","","","","","","","","","","","",""
"","ITI","","html-keyboard-response","242","317690","0.0-1.0-324.0","0","0","49598","","null","","","null","35","","","","","","","","","","","","","","","NaN",""
"","S1","","html-keyboard-response","243","317844","0.0-1.0-326.0","0","0","49598","","null","","","null","36","","","","","","","","","","","","","","","",""
"","ISI","","html-keyboard-response","244","319847","0.0-1.0-327.0","0","0","49598","","null","","","null","36","NaN","","","","","","","","","","","","","","",""
"","S2","","html-keyboard-response","245","320000","0.0-1.0-328.0","0","0","49598","","null","","","null","36","","NaN","","","","","","","","","","","","","",""
"","response","","html-keyboard-response","246","320913","0.0-1.0-329.0-0.0","0","0","49598","","911","","","68","36","","","1","36","training","adjacent","DE","4","5","R.jpg","M.jpg","1","1","1","",""
"","feedback","","html-keyboard-response","247","321916","0.0-1.0-330.0-0.0","0","0","49598","","null","","","null","36","","","","","","","","","","","","","","","",""
"","ITI","","html-keyboard-response","248","322917","0.0-1.0-333.0","0","0","49598","","null","","","null","36","","","","","","","","","","","","","","","NaN",""
"","S1","","html-keyboard-response","249","323069","0.0-1.0-335.0","0","0","49598","","null","","","null","37","","","","","","","","","","","","","","","",""
"","ISI","","html-keyboard-response","250","325071","0.0-1.0-336.0","0","0","49598","","null","","","null","37","NaN","","","","","","","","","","","","","","",""
"","S2","","html-keyboard-response","251","325223","0.0-1.0-337.0","0","0","49598","","null","","","null","37","","NaN","","","","","","","","","","","","","",""
"","response","","html-keyboard-response","252","325653","0.0-1.0-338.0-0.0","0","0","49598","","429","","","68","37","","","1","37","training","adjacent","BA","2","1","L.jpg","Q.jpg","1","0","0","",""
"","feedback","","html-keyboard-response","253","326654","0.0-1.0-339.0-0.0","0","0","49598","","null","","","null","37","","","","","","","","","","","","","","","",""
"","time_out","","html-keyboard-response","254","328656","0.0-1.0-341.0-0.0","0","0","49598","","null","","","null","37","","","","","","","","","","","","","","","",""
"","ITI","","html-keyboard-response","255","329658","0.0-1.0-342.0","0","0","49598","","null","","","null","37","","","","","","","","","","","","","","","NaN",""
"","S1","","html-keyboard-response","256","329810","0.0-1.0-344.0","0","0","49598","","null","","","null","38","","","","","","","","","","","","","","","",""
"","ISI","","html-keyboard-response","257","331812","0.0-1.0-345.0","0","0","49598","","null","","","null","38","NaN","","","","","","","","","","","","","","",""
"","S2","","html-keyboard-response","258","331964","0.0-1.0-346.0","0","0","49598","","null","","","null","38","","NaN","","","","","","","","","","","","","",""
"","response","","html-keyboard-response","259","332225","0.0-1.0-347.0-0.0","0","0","49598","","260","","","68","38","","","1","38","training","adjacent","BC","2","3","L.jpg","N.jpg","1","1","1","",""
"","feedback","","html-keyboard-response","260","333227","0.0-1.0-348.0-0.0","0","0","49598","","null","","","null","38","","","","","","","","","","","","","","","",""
"","ITI","","html-keyboard-response","261","334229","0.0-1.0-351.0","0","0","49598","","null","","","null","38","","","","","","","","","","","","","","","NaN",""
"","S1","","html-keyboard-response","262","334381","0.0-1.0-353.0","0","0","49598","","null","","","null","39","","","","","","","","","","","","","","","",""
"","ISI","","html-keyboard-response","263","336384","0.0-1.0-354.0","0","0","49598","","null","","","null","39","NaN","","","","","","","","","","","","","","",""
"","S2","","html-keyboard-response","264","336536","0.0-1.0-355.0","0","0","49598","","null","","","null","39","","NaN","","","","","","","","","","","","","",""
"","response","","html-keyboard-response","265","337088","0.0-1.0-356.0-0.0","0","0","49598","","551","","","75","39","","","1","39","training","adjacent","CD","3","4","N.jpg","R.jpg","0","1","0","",""
"","feedback","","html-keyboard-response","266","338090","0.0-1.0-357.0-0.0","0","0","49598","","null","","","null","39","","","","","","","","","","","","","","","",""
"","time_out","","html-keyboard-response","267","340093","0.0-1.0-359.0-0.0","0","0","49598","","null","","","null","39","","","","","","","","","","","","","","","",""
"","ITI","","html-keyboard-response","268","341095","0.0-1.0-360.0","0","0","49598","","null","","","null","39","","","","","","","","","","","","","","","NaN",""
"","S1","","html-keyboard-response","269","341249","0.0-1.0-362.0","0","0","49598","","null","","","null","40","","","","","","","","","","","","","","","",""
"","ISI","","html-keyboard-response","270","343250","0.0-1.0-363.0","0","0","49598","","null","","","null","40","NaN","","","","","","","","","","","","","","",""
"","S2","","html-keyboard-response","271","343403","0.0-1.0-364.0","0","0","49598","","null","","","null","40","","NaN","","","","","","","","","","","","","",""
"","response","","html-keyboard-response","272","343989","0.0-1.0-365.0-0.0","0","0","49598","","584","","","75","40","","","1","40","training","adjacent","FE","6","5","P.jpg","M.jpg","0","0","1","",""
"","feedback","","html-keyboard-response","273","344991","0.0-1.0-366.0-0.0","0","0","49598","","null","","","null","40","","","","","","","","","","","","","","","",""
"","ITI","","html-keyboard-response","274","345994","0.0-1.0-369.0","0","0","49598","","null","","","null","40","","","","","","","","","","","","","","","NaN",""
"","S1","","html-keyboard-response","275","346146","0.0-1.0-371.0","0","0","49598","","null","","","null","41","","","","","","","","","","","","","","","",""
"","ISI","","html-keyboard-response","276","348148","0.0-1.0-372.0","0","0","49598","","null","","","null","41","NaN","","","","","","","","","","","","","","",""
"","S2","","html-keyboard-response","277","348301","0.0-1.0-373.0","0","0","49598","","null","","","null","41","","NaN","","","","","","","","","","","","","",""
"","response","","html-keyboard-response","278","348804","0.0-1.0-374.0-0.0","0","0","49598","","501","","","75","41","","","1","41","training","adjacent","BA","2","1","L.jpg","Q.jpg","0","0","1","",""
"","feedback","","html-keyboard-response","279","349806","0.0-1.0-375.0-0.0","0","0","49598","","null","","","null","41","","","","","","","","","","","","","","","",""
"","ITI","","html-keyboard-response","280","350807","0.0-1.0-378.0","0","0","49598","","null","","","null","41","","","","","","","","","","","","","","","NaN",""
"","S1","","html-keyboard-response","281","350958","0.0-1.0-380.0","0","0","49598","","null","","","null","42","","","","","","","","","","","","","","","",""
"","ISI","","html-keyboard-response","282","352961","0.0-1.0-381.0","0","0","49598","","null","","","null","42","NaN","","","","","","","","","","","","","","",""
"","S2","","html-keyboard-response","283","353113","0.0-1.0-382.0","0","0","49598","","null","","","null","42","","NaN","","","","","","","","","","","","","",""
"","response","","html-keyboard-response","284","353927","0.0-1.0-383.0-0.0","0","0","49598","","814","","","75","42","","","1","42","training","adjacent","DC","4","3","R.jpg","N.jpg","0","0","1","",""
"","feedback","","html-keyboard-response","285","354929","0.0-1.0-384.0-0.0","0","0","49598","","null","","","null","42","","","","","","","","","","","","","","","",""
"","ITI","","html-keyboard-response","286","355931","0.0-1.0-387.0","0","0","49598","","null","","","null","42","","","","","","","","","","","","","","","NaN",""
"","S1","","html-keyboard-response","287","356083","0.0-1.0-389.0","0","0","49598","","null","","","null","43","","","","","","","","","","","","","","","",""
"","ISI","","html-keyboard-response","288","358085","0.0-1.0-390.0","0","0","49598","","null","","","null","43","NaN","","","","","","","","","","","","","","",""
"","S2","","html-keyboard-response","289","358238","0.0-1.0-391.0","0","0","49598","","null","","","null","43","","NaN","","","","","","","","","","","","","",""
"","response","","html-keyboard-response","290","358413","0.0-1.0-392.0-0.0","0","0","49598","","173","","","68","43","","","1","43","training","adjacent","FG","6","7","P.jpg","O.jpg","1","1","1","",""
"","feedback","","html-keyboard-response","291","359415","0.0-1.0-393.0-0.0","0","0","49598","","null","","","null","43","","","","","","","","","","","","","","","",""
"","ITI","","html-keyboard-response","292","360417","0.0-1.0-396.0","0","0","49598","","null","","","null","43","","","","","","","","","","","","","","","NaN",""
"","S1","","html-keyboard-response","293","360570","0.0-1.0-398.0","0","0","49598","","null","","","null","44","","","","","","","","","","","","","","","",""
"","ISI","","html-keyboard-response","294","362573","0.0-1.0-399.0","0","0","49598","","null","","","null","44","NaN","","","","","","","","","","","","","","",""
"","S2","","html-keyboard-response","295","362725","0.0-1.0-400.0","0","0","49598","","null","","","null","44","","NaN","","","","","","","","","","","","","",""
"","response","","html-keyboard-response","296","363611","0.0-1.0-401.0-0.0","0","0","49598","","884","","","68","44","","","1","44","training","adjacent","CD","3","4","N.jpg","R.jpg","1","1","1","",""
"","feedback","","html-keyboard-response","297","364614","0.0-1.0-402.0-0.0","0","0","49598","","null","","","null","44","","","","","","","","","","","","","","","",""
"","ITI","","html-keyboard-response","298","365617","0.0-1.0-405.0","0","0","49598","","null","","","null","44","","","","","","","","","","","","","","","NaN",""
"","S1","","html-keyboard-response","299","365770","0.0-1.0-407.0","0","0","49598","","null","","","null","45","","","","","","","","","","","","","","","",""
"","ISI","","html-keyboard-response","300","367774","0.0-1.0-408.0","0","0","49598","","null","","","null","45","NaN","","","","","","","","","","","","","","",""
"","S2","","html-keyboard-response","301","367926","0.0-1.0-409.0","0","0","49598","","null","","","null","45","","NaN","","","","","","","","","","","","","",""
"","response","","html-keyboard-response","302","368354","0.0-1.0-410.0-0.0","0","0","49598","","427","","","75","45","","","1","45","training","adjacent","AB","1","2","Q.jpg","L.jpg","0","1","0","",""
"","feedback","","html-keyboard-response","303","369356","0.0-1.0-411.0-0.0","0","0","49598","","null","","","null","45","","","","","","","","","","","","","","","",""
"","time_out","","html-keyboard-response","304","371358","0.0-1.0-413.0-0.0","0","0","49598","","null","","","null","45","","","","","","","","","","","","","","","",""
"","ITI","","html-keyboard-response","305","372361","0.0-1.0-414.0","0","0","49598","","null","","","null","45","","","","","","","","","","","","","","","NaN",""
"","S1","","html-keyboard-response","306","372513","0.0-1.0-416.0","0","0","49598","","null","","","null","46","","","","","","","","","","","","","","","",""
"","ISI","","html-keyboard-response","307","374515","0.0-1.0-417.0","0","0","49598","","null","","","null","46","NaN","","","","","","","","","","","","","","",""
"","S2","","html-keyboard-response","308","374668","0.0-1.0-418.0","0","0","49598","","null","","","null","46","","NaN","","","","","","","","","","","","","",""
"","response","","html-keyboard-response","309","375903","0.0-1.0-419.0-0.0","0","0","49598","","1235","","","68","46","","","1","46","training","adjacent","CB","3","2","N.jpg","L.jpg","1","0","0","",""
"","feedback","","html-keyboard-response","310","376905","0.0-1.0-420.0-0.0","0","0","49598","","null","","","null","46","","","","","","","","","","","","","","","",""
"","time_out","","html-keyboard-response","311","378908","0.0-1.0-422.0-0.0","0","0","49598","","null","","","null","46","","","","","","","","","","","","","","","",""
"","ITI","","html-keyboard-response","312","379911","0.0-1.0-423.0","0","0","49598","","null","","","null","46","","","","","","","","","","","","","","","NaN",""
"","S1","","html-keyboard-response","313","380064","0.0-1.0-425.0","0","0","49598","","null","","","null","47","","","","","","","","","","","","","","","",""
"","ISI","","html-keyboard-response","314","382066","0.0-1.0-426.0","0","0","49598","","null","","","null","47","NaN","","","","","","","","","","","","","","",""
"","S2","","html-keyboard-response","315","382218","0.0-1.0-427.0","0","0","49598","","null","","","null","47","","NaN","","","","","","","","","","","","","",""
"","response","","html-keyboard-response","316","382681","0.0-1.0-428.0-0.0","0","0","49598","","461","","","68","47","","","1","47","training","adjacent","DC","4","3","R.jpg","N.jpg","1","0","0","",""
"","feedback","","html-keyboard-response","317","383683","0.0-1.0-429.0-0.0","0","0","49598","","null","","","null","47","","","","","","","","","","","","","","","",""
"","time_out","","html-keyboard-response","318","385685","0.0-1.0-431.0-0.0","0","0","49598","","null","","","null","47","","","","","","","","","","","","","","","",""
"","ITI","","html-keyboard-response","319","386688","0.0-1.0-432.0","0","0","49598","","null","","","null","47","","","","","","","","","","","","","","","NaN",""
"","block_over","","html-keyboard-response","320","417363","0.0-1.0-433.0-0.0","0","0","49598","","30673","","","32","47","","","","","","","","","","","","","","","",""
"","S1","","html-keyboard-response","321","417514","0.0-1.0-434.0","0","0","49598","","null","","","null","48","","","","","","","","","","","","","","","",""
"","ISI","","html-keyboard-response","322","419516","0.0-1.0-435.0","0","0","49598","","null","","","null","48","NaN","","","","","","","","","","","","","","",""
"","S2","","html-keyboard-response","323","419669","0.0-1.0-436.0","0","0","49598","","null","","","null","48","","NaN","","","","","","","","","","","","","",""
"","response","","html-keyboard-response","324","420389","0.0-1.0-437.0-0.0","0","0","49598","","719","","","68","48","","","2","48","training","adjacent","CD","3","4","N.jpg","R.jpg","1","1","1","",""
"","feedback","","html-keyboard-response","325","421391","0.0-1.0-438.0-0.0","0","0","49598","","null","","","null","48","","","","","","","","","","","","","","","",""
"","ITI","","html-keyboard-response","326","422394","0.0-1.0-441.0","0","0","49598","","null","","","null","48","","","","","","","","","","","","","","","NaN",""
"","S1","","html-keyboard-response","327","422547","0.0-1.0-443.0","0","0","49598","","null","","","null","49","","","","","","","","","","","","","","","",""
"","ISI","","html-keyboard-response","328","424549","0.0-1.0-444.0","0","0","49598","","null","","","null","49","NaN","","","","","","","","","","","","","","",""
"","S2","","html-keyboard-response","329","424702","0.0-1.0-445.0","0","0","49598","","null","","","null","49","","NaN","","","","","","","","","","","","","",""
"","response","","html-keyboard-response","330","425010","0.0-1.0-446.0-0.0","0","0","49598","","306","","","75","49","","","2","49","training","adjacent","DC","4","3","R.jpg","N.jpg","0","0","1","",""
"","feedback","","html-keyboard-response","331","426012","0.0-1.0-447.0-0.0","0","0","49598","","null","","","null","49","","","","","","","","","","","","","","","",""
"","ITI","","html-keyboard-response","332","427015","0.0-1.0-450.0","0","0","49598","","null","","","null","49","","","","","","","","","","","","","","","NaN",""
"","S1","","html-keyboard-response","333","427167","0.0-1.0-452.0","0","0","49598","","null","","","null","50","","","","","","","","","","","","","","","",""
"","ISI","","html-keyboard-response","334","429170","0.0-1.0-453.0","0","0","49598","","null","","","null","50","NaN","","","","","","","","","","","","","","",""
"","S2","","html-keyboard-response","335","429323","0.0-1.0-454.0","0","0","49598","","null","","","null","50","","NaN","","","","","","","","","","","","","",""
"","response","","html-keyboard-response","336","430034","0.0-1.0-455.0-0.0","0","0","49598","","711","","","75","50","","","2","50","training","adjacent","CD","3","4","N.jpg","R.jpg","0","1","0","",""
"","feedback","","html-keyboard-response","337","431036","0.0-1.0-456.0-0.0","0","0","49598","","null","","","null","50","","","","","","","","","","","","","","","",""
"","time_out","","html-keyboard-response","338","433039","0.0-1.0-458.0-0.0","0","0","49598","","null","","","null","50","","","","","","","","","","","","","","","",""
"","ITI","","html-keyboard-response","339","434042","0.0-1.0-459.0","0","0","49598","","null","","","null","50","","","","","","","","","","","","","","","NaN",""
"","S1","","html-keyboard-response","340","434195","0.0-1.0-461.0","0","0","49598","","null","","","null","51","","","","","","","","","","","","","","","",""
"","ISI","","html-keyboard-response","341","436197","0.0-1.0-462.0","0","0","49598","","null","","","null","51","NaN","","","","","","","","","","","","","","",""
"","S2","","html-keyboard-response","342","436349","0.0-1.0-463.0","0","0","49598","","null","","","null","51","","NaN","","","","","","","","","","","","","",""
"","response","","html-keyboard-response","343","437040","0.0-1.0-464.0-0.0","0","0","49598","","691","","","75","51","","","2","51","training","adjacent","BA","2","1","L.jpg","Q.jpg","0","0","1","",""
"","feedback","","html-keyboard-response","344","438042","0.0-1.0-465.0-0.0","0","0","49598","","null","","","null","51","","","","","","","","","","","","","","","",""
"","ITI","","html-keyboard-response","345","439044","0.0-1.0-468.0","0","0","49598","","null","","","null","51","","","","","","","","","","","","","","","NaN",""
"","S1","","html-keyboard-response","346","439196","0.0-1.0-470.0","0","0","49598","","null","","","null","52","","","","","","","","","","","","","","","",""
"","ISI","","html-keyboard-response","347","441199","0.0-1.0-471.0","0","0","49598","","null","","","null","52","NaN","","","","","","","","","","","","","","",""
"","S2","","html-keyboard-response","348","441352","0.0-1.0-472.0","0","0","49598","","null","","","null","52","","NaN","","","","","","","","","","","","","",""
"","response","","html-keyboard-response","349","442832","0.0-1.0-473.0-0.0","0","0","49598","","1480","","","68","52","","","2","52","training","adjacent","DC","4","3","R.jpg","N.jpg","1","0","0","",""
"","feedback","","html-keyboard-response","350","443834","0.0-1.0-474.0-0.0","0","0","49598","","null","","","null","52","","","","","","","","","","","","","","","",""
"","time_out","","html-keyboard-response","351","445836","0.0-1.0-476.0-0.0","0","0","49598","","null","","","null","52","","","","","","","","","","","","","","","",""
"","ITI","","html-keyboard-response","352","446839","0.0-1.0-477.0","0","0","49598","","null","","","null","52","","","","","","","","","","","","","","","NaN",""
"","S1","","html-keyboard-response","353","446993","0.0-1.0-479.0","0","0","49598","","null","","","null","53","","","","","","","","","","","","","","","",""
"","ISI","","html-keyboard-response","354","448995","0.0-1.0-480.0","0","0","49598","","null","","","null","53","NaN","","","","","","","","","","","","","","",""
"","S2","","html-keyboard-response","355","449148","0.0-1.0-481.0","0","0","49598","","null","","","null","53","","NaN","","","","","","","","","","","","","",""
"","response","","html-keyboard-response","356","449633","0.0-1.0-482.0-0.0","0","0","49598","","483","","","75","53","","","2","53","training","adjacent","FE","6","5","P.jpg","M.jpg","0","0","1","",""
"","feedback","","html-keyboard-response","357","450635","0.0-1.0-483.0-0.0","0","0","49598","","null","","","null","53","","","","","","","","","","","","","","","",""
"","ITI","","html-keyboard-response","358","451638","0.0-1.0-486.0","0","0","49598","","null","","","null","53","","","","","","","","","","","","","","","NaN",""
"","S1","","html-keyboard-response","359","451792","0.0-1.0-488.0","0","0","49598","","null","","","null","54","","","","","","","","","","","","","","","",""
"","ISI","","html-keyboard-response","360","453793","0.0-1.0-489.0","0","0","49598","","null","","","null","54","NaN","","","","","","","","","","","","","","",""
"","S2","","html-keyboard-response","361","453945","0.0-1.0-490.0","0","0","49598","","null","","","null","54","","NaN","","","","","","","","","","","","","",""
"","response","","html-keyboard-response","362","454573","0.0-1.0-491.0-0.0","0","0","49598","","627","","","68","54","","","2","54","training","adjacent","FG","6","7","P.jpg","O.jpg","1","1","1","",""
"","feedback","","html-keyboard-response","363","455575","0.0-1.0-492.0-0.0","0","0","49598","","null","","","null","54","","","","","","","","","","","","","","","",""
"","ITI","","html-keyboard-response","364","456577","0.0-1.0-495.0","0","0","49598","","null","","","null","54","","","","","","","","","","","","","","","NaN",""
"","S1","","html-keyboard-response","365","456729","0.0-1.0-497.0","0","0","49598","","null","","","null","55","","","","","","","","","","","","","","","",""
"","ISI","","html-keyboard-response","366","458731","0.0-1.0-498.0","0","0","49598","","null","","","null","55","NaN","","","","","","","","","","","","","","",""
"","S2","","html-keyboard-response","367","458884","0.0-1.0-499.0","0","0","49598","","null","","","null","55","","NaN","","","","","","","","","","","","","",""
"","response","","html-keyboard-response","368","459673","0.0-1.0-500.0-0.0","0","0","49598","","788","","","68","55","","","2","55","training","adjacent","CB","3","2","N.jpg","L.jpg","1","0","0","",""
"","feedback","","html-keyboard-response","369","460675","0.0-1.0-501.0-0.0","0","0","49598","","null","","","null","55","","","","","","","","","","","","","","","",""
"","time_out","","html-keyboard-response","370","462677","0.0-1.0-503.0-0.0","0","0","49598","","null","","","null","55","","","","","","","","","","","","","","","",""
"","ITI","","html-keyboard-response","371","463679","0.0-1.0-504.0","0","0","49598","","null","","","null","55","","","","","","","","","","","","","","","NaN",""
"","S1","","html-keyboard-response","372","463831","0.0-1.0-506.0","0","0","49598","","null","","","null","56","","","","","","","","","","","","","","","",""
"","ISI","","html-keyboard-response","373","465834","0.0-1.0-507.0","0","0","49598","","null","","","null","56","NaN","","","","","","","","","","","","","","",""
"","S2","","html-keyboard-response","374","465986","0.0-1.0-508.0","0","0","49598","","null","","","null","56","","NaN","","","","","","","","","","","","","",""
"","response","","html-keyboard-response","375","466425","0.0-1.0-509.0-0.0","0","0","49598","","437","","","75","56","","","2","56","training","adjacent","ED","5","4","M.jpg","R.jpg","0","0","1","",""
"","feedback","","html-keyboard-response","376","467428","0.0-1.0-510.0-0.0","0","0","49598","","null","","","null","56","","","","","","","","","","","","","","","",""
"","ITI","","html-keyboard-response","377","468431","0.0-1.0-513.0","0","0","49598","","null","","","null","56","","","","","","","","","","","","","","","NaN",""
"","S1","","html-keyboard-response","378","468584","0.0-1.0-515.0","0","0","49598","","null","","","null","57","","","","","","","","","","","","","","","",""
"","ISI","","html-keyboard-response","379","470586","0.0-1.0-516.0","0","0","49598","","null","","","null","57","NaN","","","","","","","","","","","","","","",""
"","S2","","html-keyboard-response","380","470739","0.0-1.0-517.0","0","0","49598","","null","","","null","57","","NaN","","","","","","","","","","","","","",""
"","response","","html-keyboard-response","381","471585","0.0-1.0-518.0-0.0","0","0","49598","","845","","","75","57","","","2","57","training","adjacent","CB","3","2","N.jpg","L.jpg","0","0","1","",""
"","feedback","","html-keyboard-response","382","472586","0.0-1.0-519.0-0.0","0","0","49598","","null","","","null","57","","","","","","","","","","","","","","","",""
"","ITI","","html-keyboard-response","383","473588","0.0-1.0-522.0","0","0","49598","","null","","","null","57","","","","","","","","","","","","","","","NaN",""
"","S1","","html-keyboard-response","384","473740","0.0-1.0-524.0","0","0","49598","","null","","","null","58","","","","","","","","","","","","","","","",""
"","ISI","","html-keyboard-response","385","475742","0.0-1.0-525.0","0","0","49598","","null","","","null","58","NaN","","","","","","","","","","","","","","",""
"","S2","","html-keyboard-response","386","475895","0.0-1.0-526.0","0","0","49598","","null","","","null","58","","NaN","","","","","","","","","","","","","",""
"","response","","html-keyboard-response","387","476294","0.0-1.0-527.0-0.0","0","0","49598","","398","","","75","58","","","2","58","training","adjacent","DC","4","3","R.jpg","N.jpg","0","0","1","",""
"","feedback","","html-keyboard-response","388","477296","0.0-1.0-528.0-0.0","0","0","49598","","null","","","null","58","","","","","","","","","","","","","","","",""
"","ITI","","html-keyboard-response","389","478298","0.0-1.0-531.0","0","0","49598","","null","","","null","58","","","","","","","","","","","","","","","NaN",""
"","S1","","html-keyboard-response","390","478456","0.0-1.0-533.0","0","0","49598","","null","","","null","59","","","","","","","","","","","","","","","",""
"","ISI","","html-keyboard-response","391","480458","0.0-1.0-534.0","0","0","49598","","1312","","","75","59","k","","","","","","","","","","","","","","",""
"","S2","","html-keyboard-response","392","480611","0.0-1.0-535.0","0","0","49598","","null","","","null","59","","NaN","","","","","","","","","","","","","",""
"","response","","html-keyboard-response","393","480675","0.0-1.0-536.0-0.0","0","0","49598","","63","","","75","59","","","2","59","training","adjacent","ED","5","4","M.jpg","R.jpg","0","0","1","",""
"","feedback","","html-keyboard-response","394","481678","0.0-1.0-537.0-0.0","0","0","49598","","null","","","null","59","","","","","","","","","","","","","","","",""
"","ITI","","html-keyboard-response","395","482681","0.0-1.0-540.0","0","0","49598","","null","","","null","59","","","","","","","","","","","","","","","NaN",""
"","S1","","html-keyboard-response","396","482834","0.0-1.0-542.0","0","0","49598","","null","","","null","60","","","","","","","","","","","","","","","",""
"","ISI","","html-keyboard-response","397","484835","0.0-1.0-543.0","0","0","49598","","null","","","null","60","NaN","","","","","","","","","","","","","","",""
"","S2","","html-keyboard-response","398","484986","0.0-1.0-544.0","0","0","49598","","null","","","null","60","","NaN","","","","","","","","","","","","","",""
"","response","","html-keyboard-response","399","485306","0.0-1.0-545.0-0.0","0","0","49598","","318","","","75","60","","","2","60","training","adjacent","FE","6","5","P.jpg","M.jpg","0","0","1","",""
"","feedback","","html-keyboard-response","400","486307","0.0-1.0-546.0-0.0","0","0","49598","","null","","","null","60","","","","","","","","","","","","","","","",""
"","ITI","","html-keyboard-response","401","487309","0.0-1.0-549.0","0","0","49598","","null","","","null","60","","","","","","","","","","","","","","","NaN",""
"","S1","","html-keyboard-response","402","487461","0.0-1.0-551.0","0","0","49598","","null","","","null","61","","","","","","","","","","","","","","","",""
"","ISI","","html-keyboard-response","403","489463","0.0-1.0-552.0","0","0","49598","","null","","","null","61","NaN","","","","","","","","","","","","","","",""
"","S2","","html-keyboard-response","404","489615","0.0-1.0-553.0","0","0","49598","","null","","","null","61","","NaN","","","","","","","","","","","","","",""
"","response","","html-keyboard-response","405","490083","0.0-1.0-554.0-0.0","0","0","49598","","466","","","75","61","","","2","61","training","adjacent","FG","6","7","P.jpg","O.jpg","0","1","0","",""
"","feedback","","html-keyboard-response","406","491084","0.0-1.0-555.0-0.0","0","0","49598","","null","","","null","61","","","","","","","","","","","","","","","",""
"","time_out","","html-keyboard-response","407","493087","0.0-1.0-557.0-0.0","0","0","49598","","null","","","null","61","","","","","","","","","","","","","","","",""
"","ITI","","html-keyboard-response","408","494088","0.0-1.0-558.0","0","0","49598","","null","","","null","61","","","","","","","","","","","","","","","NaN",""
"","S1","","html-keyboard-response","409","494241","0.0-1.0-560.0","0","0","49598","","null","","","null","62","","","","","","","","","","","","","","","",""
"","ISI","","html-keyboard-response","410","496243","0.0-1.0-561.0","0","0","49598","","null","","","null","62","NaN","","","","","","","","","","","","","","",""
"","S2","","html-keyboard-response","411","496395","0.0-1.0-562.0","0","0","49598","","null","","","null","62","","NaN","","","","","","","","","","","","","",""
"","response","","html-keyboard-response","412","496519","0.0-1.0-563.0-0.0","0","0","49598","","122","","","75","62","","","2","62","training","adjacent","BC","2","3","L.jpg","N.jpg","0","1","0","",""
"","feedback","","html-keyboard-response","413","497522","0.0-1.0-564.0-0.0","0","0","49598","","null","","","null","62","","","","","","","","","","","","","","","",""
"","time_out","","html-keyboard-response","414","499524","0.0-1.0-566.0-0.0","0","0","49598","","null","","","null","62","","","","","","","","","","","","","","","",""
"","ITI","","html-keyboard-response","415","500527","0.0-1.0-567.0","0","0","49598","","null","","","null","62","","","","","","","","","","","","","","","NaN",""
"","S1","","html-keyboard-response","416","500679","0.0-1.0-569.0","0","0","49598","","null","","","null","63","","","","","","","","","","","","","","","",""
"","ISI","","html-keyboard-response","417","502682","0.0-1.0-570.0","0","0","49598","","null","","","null","63","NaN","","","","","","","","","","","","","","",""
"","S2","","html-keyboard-response","418","502835","0.0-1.0-571.0","0","0","49598","","null","","","null","63","","NaN","","","","","","","","","","","","","",""
"","response","","html-keyboard-response","419","503597","0.0-1.0-572.0-0.0","0","0","49598","","760","","","75","63","","","2","63","training","adjacent","BA","2","1","L.jpg","Q.jpg","0","0","1","",""
"","feedback","","html-keyboard-response","420","504599","0.0-1.0-573.0-0.0","0","0","49598","","null","","","null","63","","","","","","","","","","","","","","","",""
"","ITI","","html-keyboard-response","421","505602","0.0-1.0-576.0","0","0","49598","","null","","","null","63","","","","","","","","","","","","","","","NaN",""
"","S1","","html-keyboard-response","422","505755","0.0-1.0-578.0","0","0","49598","","null","","","null","64","","","","","","","","","","","","","","","",""
"","ISI","","html-keyboard-response","423","507757","0.0-1.0-579.0","0","0","49598","","null","","","null","64","NaN","","","","","","","","","","","","","","",""
"","S2","","html-keyboard-response","424","507908","0.0-1.0-580.0","0","0","49598","","null","","","null","64","","NaN","","","","","","","","","","","","","",""
"","response","","html-keyboard-response","425","508792","0.0-1.0-581.0-0.0","0","0","49598","","883","","","68","64","","","2","64","training","adjacent","DE","4","5","R.jpg","M.jpg","1","1","1","",""
"","feedback","","html-keyboard-response","426","509794","0.0-1.0-582.0-0.0","0","0","49598","","null","","","null","64","","","","","","","","","","","","","","","",""
"","ITI","","html-keyboard-response","427","510797","0.0-1.0-585.0","0","0","49598","","null","","","null","64","","","","","","","","","","","","","","","NaN",""
"","S1","","html-keyboard-response","428","510950","0.0-1.0-587.0","0","0","49598","","null","","","null","65","","","","","","","","","","","","","","","",""
"","ISI","","html-keyboard-response","429","512953","0.0-1.0-588.0","0","0","49598","","null","","","null","65","NaN","","","","","","","","","","","","","","",""
"","S2","","html-keyboard-response","430","513106","0.0-1.0-589.0","0","0","49598","","null","","","null","65","","NaN","","","","","","","","","","","","","",""
"","response","","html-keyboard-response","431","513893","0.0-1.0-590.0-0.0","0","0","49598","","785","","","75","65","","","2","65","training","adjacent","GF","7","6","O.jpg","P.jpg","0","0","1","",""
"","feedback","","html-keyboard-response","432","514895","0.0-1.0-591.0-0.0","0","0","49598","","null","","","null","65","","","","","","","","","","","","","","","",""
"","ITI","","html-keyboard-response","433","515897","0.0-1.0-594.0","0","0","49598","","null","","","null","65","","","","","","","","","","","","","","","NaN",""
"","S1","","html-keyboard-response","434","516050","0.0-1.0-596.0","0","0","49598","","null","","","null","66","","","","","","","","","","","","","","","",""
"","ISI","","html-keyboard-response","435","518053","0.0-1.0-597.0","0","0","49598","","null","","","null","66","NaN","","","","","","","","","","","","","","",""
"","S2","","html-keyboard-response","436","518205","0.0-1.0-598.0","0","0","49598","","null","","","null","66","","NaN","","","","","","","","","","","","","",""
"","response","","html-keyboard-response","437","518870","0.0-1.0-599.0-0.0","0","0","49598","","665","","","75","66","","","2","66","training","adjacent","DE","4","5","R.jpg","M.jpg","0","1","0","",""
"","feedback","","html-keyboard-response","438","519873","0.0-1.0-600.0-0.0","0","0","49598","","null","","","null","66","","","","","","","","","","","","","","","",""
"","time_out","","html-keyboard-response","439","521875","0.0-1.0-602.0-0.0","0","0","49598","","null","","","null","66","","","","","","","","","","","","","","","",""
"","ITI","","html-keyboard-response","440","522877","0.0-1.0-603.0","0","0","49598","","null","","","null","66","","","","","","","","","","","","","","","NaN",""
"","S1","","html-keyboard-response","441","523030","0.0-1.0-605.0","0","0","49598","","null","","","null","67","","","","","","","","","","","","","","","",""
"","ISI","","html-keyboard-response","442","525033","0.0-1.0-606.0","0","0","49598","","null","","","null","67","NaN","","","","","","","","","","","","","","",""
"","S2","","html-keyboard-response","443","525185","0.0-1.0-607.0","0","0","49598","","null","","","null","67","","NaN","","","","","","","","","","","","","",""
"","response","","html-keyboard-response","444","525897","0.0-1.0-608.0-0.0","0","0","49598","","711","","","75","67","","","2","67","training","adjacent","GF","7","6","O.jpg","P.jpg","0","0","1","",""
"","feedback","","html-keyboard-response","445","526899","0.0-1.0-609.0-0.0","0","0","49598","","null","","","null","67","","","","","","","","","","","","","","","",""
"","ITI","","html-keyboard-response","446","527900","0.0-1.0-612.0","0","0","49598","","null","","","null","67","","","","","","","","","","","","","","","NaN",""
"","S1","","html-keyboard-response","447","528053","0.0-1.0-614.0","0","0","49598","","null","","","null","68","","","","","","","","","","","","","","","",""
"","ISI","","html-keyboard-response","448","530056","0.0-1.0-615.0","0","0","49598","","null","","","null","68","NaN","","","","","","","","","","","","","","",""
"","S2","","html-keyboard-response","449","530209","0.0-1.0-616.0","0","0","49598","","null","","","null","68","","NaN","","","","","","","","","","","","","",""
"","response","","html-keyboard-response","450","531359","0.0-1.0-617.0-0.0","0","0","49598","","1148","","","75","68","","","2","68","training","adjacent","BA","2","1","L.jpg","Q.jpg","0","0","1","",""
"","feedback","","html-keyboard-response","451","532361","0.0-1.0-618.0-0.0","0","0","49598","","null","","","null","68","","","","","","","","","","","","","","","",""
"","ITI","","html-keyboard-response","452","533364","0.0-1.0-621.0","0","0","49598","","null","","","null","68","","","","","","","","","","","","","","","NaN",""
"","S1","","html-keyboard-response","453","533516","0.0-1.0-623.0","0","0","49598","","null","","","null","69","","","","","","","","","","","","","","","",""
"","ISI","","html-keyboard-response","454","535518","0.0-1.0-624.0","0","0","49598","","null","","","null","69","NaN","","","","","","","","","","","","","","",""
"","S2","","html-keyboard-response","455","535671","0.0-1.0-625.0","0","0","49598","","null","","","null","69","","NaN","","","","","","","","","","","","","",""
"","response","","html-keyboard-response","456","536860","0.0-1.0-626.0-0.0","0","0","49598","","1188","","","68","69","","","2","69","training","adjacent","EF","5","6","M.jpg","P.jpg","1","1","1","",""
"","feedback","","html-keyboard-response","457","537862","0.0-1.0-627.0-0.0","0","0","49598","","null","","","null","69","","","","","","","","","","","","","","","",""
"","ITI","","html-keyboard-response","458","538865","0.0-1.0-630.0","0","0","49598","","null","","","null","69","","","","","","","","","","","","","","","NaN",""
"","S1","","html-keyboard-response","459","539018","0.0-1.0-632.0","0","0","49598","","null","","","null","70","","","","","","","","","","","","","","","",""
"","ISI","","html-keyboard-response","460","541020","0.0-1.0-633.0","0","0","49598","","null","","","null","70","NaN","","","","","","","","","","","","","","",""
"","S2","","html-keyboard-response","461","541173","0.0-1.0-634.0","0","0","49598","","null","","","null","70","","NaN","","","","","","","","","","","","","",""
"","response","","html-keyboard-response","462","542727","0.0-1.0-635.0-0.0","0","0","49598","","1552","","","75","70","","","2","70","training","adjacent","CD","3","4","N.jpg","R.jpg","0","1","0","",""
"","feedback","","html-keyboard-response","463","543729","0.0-1.0-636.0-0.0","0","0","49598","","null","","","null","70","","","","","","","","","","","","","","","",""
"","time_out","","html-keyboard-response","464","545732","0.0-1.0-638.0-0.0","0","0","49598","","null","","","null","70","","","","","","","","","","","","","","","",""
"","ITI","","html-keyboard-response","465","546735","0.0-1.0-639.0","0","0","49598","","null","","","null","70","","","","","","","","","","","","","","","NaN",""
"","S1","","html-keyboard-response","466","546886","0.0-1.0-641.0","0","0","49598","","null","","","null","71","","","","","","","","","","","","","","","",""
"","ISI","","html-keyboard-response","467","548888","0.0-1.0-642.0","0","0","49598","","null","","","null","71","NaN","","","","","","","","","","","","","","",""
"","S2","","html-keyboard-response","468","549041","0.0-1.0-643.0","0","0","49598","","null","","","null","71","","NaN","","","","","","","","","","","","","",""
"","response","","html-keyboard-response","469","549983","0.0-1.0-644.0-0.0","0","0","49598","","941","","","68","71","","","2","71","training","adjacent","AB","1","2","Q.jpg","L.jpg","1","1","1","",""
"","feedback","","html-keyboard-response","470","550985","0.0-1.0-645.0-0.0","0","0","49598","","null","","","null","71","","","","","","","","","","","","","","","",""
"","ITI","","html-keyboard-response","471","551988","0.0-1.0-648.0","0","0","49598","","null","","","null","71","","","","","","","","","","","","","","","NaN",""
"","S1","","html-keyboard-response","472","552141","0.0-1.0-650.0","0","0","49598","","null","","","null","72","","","","","","","","","","","","","","","",""
"","ISI","","html-keyboard-response","473","554143","0.0-1.0-651.0","0","0","49598","","1108","","","68","72","d","","","","","","","","","","","","","","",""
"","S2","","html-keyboard-response","474","554294","0.0-1.0-652.0","0","0","49598","","null","","","null","72","","NaN","","","","","","","","","","","","","",""
"","response","","html-keyboard-response","475","556146","0.0-1.0-653.0-0.0","0","0","49598","","null","","","null","72","","","2","72","training","adjacent","ED","5","4","M.jpg","R.jpg","NaN","0","0","",""
"","too_slow_prompt","","html-keyboard-response","476","557149","0.0-1.0-655.0-0.0","1","0","49598","","null","","","null","","","","","","","","","","","","","","","","",""
"","time_out","","html-keyboard-response","477","559151","0.0-1.0-656.0-0.0","0","0","49598","","null","","","null","72","","","","","","","","","","","","","","","",""
"","ITI","","html-keyboard-response","478","560153","0.0-1.0-657.0","0","0","49598","","null","","","null","72","","","","","","","","","","","","","","","NaN",""
"","S1","","html-keyboard-response","479","560305","0.0-1.0-659.0","0","0","49598","","null","","","null","73","","","","","","","","","","","","","","","",""
"","ISI","","html-keyboard-response","480","562308","0.0-1.0-660.0","0","0","49598","","190","","","68","73","d","","","","","","","","","","","","","","",""
"","S2","","html-keyboard-response","481","562460","0.0-1.0-661.0","0","0","49598","","null","","","null","73","","NaN","","","","","","","","","","","","","",""
"","response","","html-keyboard-response","482","562623","0.0-1.0-662.0-0.0","0","0","49598","","162","","","68","73","","","2","73","training","adjacent","DE","4","5","R.jpg","M.jpg","1","1","1","",""
"","feedback","","html-keyboard-response","483","563626","0.0-1.0-663.0-0.0","0","0","49598","","null","","","null","73","","","","","","","","","","","","","","","",""
"","ITI","","html-keyboard-response","484","564628","0.0-1.0-666.0","0","0","49598","","null","","","null","73","","","","","","","","","","","","","","","NaN",""
"","S1","","html-keyboard-response","485","564781","0.0-1.0-668.0","0","0","49598","","null","","","null","74","","","","","","","","","","","","","","","",""
"","ISI","","html-keyboard-response","486","566784","0.0-1.0-669.0","0","0","49598","","null","","","null","74","NaN","","","","","","","","","","","","","","",""
"","S2","","html-keyboard-response","487","566936","0.0-1.0-670.0","0","0","49598","","null","","","null","74","","NaN","","","","","","","","","","","","","",""
"","response","","html-keyboard-response","488","567364","0.0-1.0-671.0-0.0","0","0","49598","","426","","","75","74","","","2","74","training","adjacent","FG","6","7","P.jpg","O.jpg","0","1","0","",""
"","feedback","","html-keyboard-response","489","568366","0.0-1.0-672.0-0.0","0","0","49598","","null","","","null","74","","","","","","","","","","","","","","","",""
"","time_out","","html-keyboard-response","490","570368","0.0-1.0-674.0-0.0","0","0","49598","","null","","","null","74","","","","","","","","","","","","","","","",""
"","ITI","","html-keyboard-response","491","571370","0.0-1.0-675.0","0","0","49598","","null","","","null","74","","","","","","","","","","","","","","","NaN",""
"","S1","","html-keyboard-response","492","571522","0.0-1.0-677.0","0","0","49598","","null","","","null","75","","","","","","","","","","","","","","","",""
"","ISI","","html-keyboard-response","493","573524","0.0-1.0-678.0","0","0","49598","","null","","","null","75","NaN","","","","","","","","","","","","","","",""
"","S2","","html-keyboard-response","494","573676","0.0-1.0-679.0","0","0","49598","","null","","","null","75","","NaN","","","","","","","","","","","","","",""
"","response","","html-keyboard-response","495","574402","0.0-1.0-680.0-0.0","0","0","49598","","724","","","68","75","","","2","75","training","adjacent","DE","4","5","R.jpg","M.jpg","1","1","1","",""
"","feedback","","html-keyboard-response","496","575405","0.0-1.0-681.0-0.0","0","0","49598","","null","","","null","75","","","","","","","","","","","","","","","",""
"","ITI","","html-keyboard-response","497","576408","0.0-1.0-684.0","0","0","49598","","null","","","null","75","","","","","","","","","","","","","","","NaN",""
"","S1","","html-keyboard-response","498","576560","0.0-1.0-686.0","0","0","49598","","null","","","null","76","","","","","","","","","","","","","","","",""
"","ISI","","html-keyboard-response","499","578563","0.0-1.0-687.0","0","0","49598","","null","","","null","76","NaN","","","","","","","","","","","","","","",""
"","S2","","html-keyboard-response","500","578716","0.0-1.0-688.0","0","0","49598","","null","","","null","76","","NaN","","","","","","","","","","","","","",""
"","response","","html-keyboard-response","501","579626","0.0-1.0-689.0-0.0","0","0","49598","","910","","","75","76","","","2","76","training","adjacent","BA","2","1","L.jpg","Q.jpg","0","0","1","",""
"","feedback","","html-keyboard-response","502","580629","0.0-1.0-690.0-0.0","0","0","49598","","null","","","null","76","","","","","","","","","","","","","","","",""
"","ITI","","html-keyboard-response","503","581631","0.0-1.0-693.0","0","0","49598","","null","","","null","76","","","","","","","","","","","","","","","NaN",""
"","S1","","html-keyboard-response","504","581785","0.0-1.0-695.0","0","0","49598","","null","","","null","77","","","","","","","","","","","","","","","",""
"","ISI","","html-keyboard-response","505","583787","0.0-1.0-696.0","0","0","49598","","null","","","null","77","NaN","","","","","","","","","","","","","","",""
"","S2","","html-keyboard-response","506","583938","0.0-1.0-697.0","0","0","49598","","null","","","null","77","","NaN","","","","","","","","","","","","","",""
"","response","","html-keyboard-response","507","585790","0.0-1.0-698.0-0.0","0","0","49598","","null","","","null","77","","","2","77","training","adjacent","FE","6","5","P.jpg","M.jpg","NaN","0","0","",""
"","too_slow_prompt","","html-keyboard-response","508","586793","0.0-1.0-700.0-0.0","1","0","49598","","null","","","null","","","","","","","","","","","","","","","","",""
"","time_out","","html-keyboard-response","509","588795","0.0-1.0-701.0-0.0","0","0","49598","","null","","","null","77","","","","","","","","","","","","","","","",""
"","ITI","","html-keyboard-response","510","589798","0.0-1.0-702.0","0","0","49598","","null","","","null","77","","","","","","","","","","","","","","","NaN",""
"","S1","","html-keyboard-response","511","589950","0.0-1.0-704.0","0","0","49598","","null","","","null","78","","","","","","","","","","","","","","","",""
"","ISI","","html-keyboard-response","512","591952","0.0-1.0-705.0","0","0","49598","","null","","","null","78","NaN","","","","","","","","","","","","","","",""
"","S2","","html-keyboard-response","513","592104","0.0-1.0-706.0","0","0","49598","","null","","","null","78","","NaN","","","","","","","","","","","","","",""
"","response","","html-keyboard-response","514","592640","0.0-1.0-707.0-0.0","0","0","49598","","534","","","75","78","","","2","78","training","adjacent","ED","5","4","M.jpg","R.jpg","0","0","1","",""
"","feedback","","html-keyboard-response","515","593643","0.0-1.0-708.0-0.0","0","0","49598","","null","","","null","78","","","","","","","","","","","","","","","",""
"","ITI","","html-keyboard-response","516","594646","0.0-1.0-711.0","0","0","49598","","null","","","null","78","","","","","","","","","","","","","","","NaN",""
"","S1","","html-keyboard-response","517","594798","0.0-1.0-713.0","0","0","49598","","null","","","null","79","","","","","","","","","","","","","","","",""
"","ISI","","html-keyboard-response","518","596801","0.0-1.0-714.0","0","0","49598","","null","","","null","79","NaN","","","","","","","","","","","","","","",""
"","S2","","html-keyboard-response","519","596955","0.0-1.0-715.0","0","0","49598","","null","","","null","79","","NaN","","","","","","","","","","","","","",""
"","response","","html-keyboard-response","520","598063","0.0-1.0-716.0-0.0","0","0","49598","","1107","","","75","79","","","2","79","training","adjacent","CB","3","2","N.jpg","L.jpg","0","0","1","",""
"","feedback","","html-keyboard-response","521","599065","0.0-1.0-717.0-0.0","0","0","49598","","null","","","null","79","","","","","","","","","","","","","","","",""
"","ITI","","html-keyboard-response","522","600068","0.0-1.0-720.0","0","0","49598","","null","","","null","79","","","","","","","","","","","","","","","NaN",""
"","S1","","html-keyboard-response","523","600220","0.0-1.0-722.0","0","0","49598","","null","","","null","80","","","","","","","","","","","","","","","",""
"","ISI","","html-keyboard-response","524","602222","0.0-1.0-723.0","0","0","49598","","null","","","null","80","NaN","","","","","","","","","","","","","","",""
"","S2","","html-keyboard-response","525","602375","0.0-1.0-724.0","0","0","49598","","null","","","null","80","","NaN","","","","","","","","","","","","","",""
"","response","","html-keyboard-response","526","603380","0.0-1.0-725.0-0.0","0","0","49598","","1004","","","75","80","","","2","80","training","adjacent","FE","6","5","P.jpg","M.jpg","0","0","1","",""
"","feedback","","html-keyboard-response","527","604382","0.0-1.0-726.0-0.0","0","0","49598","","null","","","null","80","","","","","","","","","","","","","","","",""
"","ITI","","html-keyboard-response","528","605383","0.0-1.0-729.0","0","0","49598","","null","","","null","80","","","","","","","","","","","","","","","NaN",""
"","S1","","html-keyboard-response","529","605535","0.0-1.0-731.0","0","0","49598","","null","","","null","81","","","","","","","","","","","","","","","",""
"","ISI","","html-keyboard-response","530","607538","0.0-1.0-732.0","0","0","49598","","null","","","null","81","NaN","","","","","","","","","","","","","","",""
"","S2","","html-keyboard-response","531","607690","0.0-1.0-733.0","0","0","49598","","null","","","null","81","","NaN","","","","","","","","","","","","","",""
"","response","","html-keyboard-response","532","607924","0.0-1.0-734.0-0.0","0","0","49598","","232","","","75","81","","","2","81","training","adjacent","GF","7","6","O.jpg","P.jpg","0","0","1","",""
"","feedback","","html-keyboard-response","533","608927","0.0-1.0-735.0-0.0","0","0","49598","","null","","","null","81","","","","","","","","","","","","","","","",""
"","ITI","","html-keyboard-response","534","609930","0.0-1.0-738.0","0","0","49598","","null","","","null","81","","","","","","","","","","","","","","","NaN",""
"","S1","","html-keyboard-response","535","610083","0.0-1.0-740.0","0","0","49598","","null","","","null","82","","","","","","","","","","","","","","","",""
"","ISI","","html-keyboard-response","536","612085","0.0-1.0-741.0","0","0","49598","","null","","","null","82","NaN","","","","","","","","","","","","","","",""
"","S2","","html-keyboard-response","537","612238","0.0-1.0-742.0","0","0","49598","","null","","","null","82","","NaN","","","","","","","","","","","","","",""
"","response","","html-keyboard-response","538","613087","0.0-1.0-743.0-0.0","0","0","49598","","847","","","68","82","","","2","82","training","adjacent","DC","4","3","R.jpg","N.jpg","1","0","0","",""
"","feedback","","html-keyboard-response","539","614091","0.0-1.0-744.0-0.0","0","0","49598","","null","","","null","82","","","","","","","","","","","","","","","",""
"","time_out","","html-keyboard-response","540","616093","0.0-1.0-746.0-0.0","0","0","49598","","null","","","null","82","","","","","","","","","","","","","","","",""
"","ITI","","html-keyboard-response","541","617095","0.0-1.0-747.0","0","0","49598","","null","","","null","82","","","","","","","","","","","","","","","NaN",""
"","S1","","html-keyboard-response","542","617248","0.0-1.0-749.0","0","0","49598","","null","","","null","83","","","","","","","","","","","","","","","",""
"","ISI","","html-keyboard-response","543","619250","0.0-1.0-750.0","0","0","49598","","null","","","null","83","NaN","","","","","","","","","","","","","","",""
"","S2","","html-keyboard-response","544","619402","0.0-1.0-751.0","0","0","49598","","null","","","null","83","","NaN","","","","","","","","","","","","","",""
"","response","","html-keyboard-response","545","620324","0.0-1.0-752.0-0.0","0","0","49598","","920","","","68","83","","","2","83","training","adjacent","EF","5","6","M.jpg","P.jpg","1","1","1","",""
"","feedback","","html-keyboard-response","546","621326","0.0-1.0-753.0-0.0","0","0","49598","","null","","","null","83","","","","","","","","","","","","","","","",""
"","ITI","","html-keyboard-response","547","622329","0.0-1.0-756.0","0","0","49598","","null","","","null","83","","","","","","","","","","","","","","","NaN",""
"","S1","","html-keyboard-response","548","622483","0.0-1.0-758.0","0","0","49598","","null","","","null","84","","","","","","","","","","","","","","","",""
"","ISI","","html-keyboard-response","549","624485","0.0-1.0-759.0","0","0","49598","","null","","","null","84","NaN","","","","","","","","","","","","","","",""
"","S2","","html-keyboard-response","550","624638","0.0-1.0-760.0","0","0","49598","","null","","","null","84","","NaN","","","","","","","","","","","","","",""
"","response","","html-keyboard-response","551","626491","0.0-1.0-761.0-0.0","0","0","49598","","null","","","null","84","","","2","84","training","adjacent","FG","6","7","P.jpg","O.jpg","NaN","1","0","",""
"","too_slow_prompt","","html-keyboard-response","552","627492","0.0-1.0-763.0-0.0","1","0","49598","","null","","","null","","","","","","","","","","","","","","","","",""
"","time_out","","html-keyboard-response","553","629495","0.0-1.0-764.0-0.0","0","0","49598","","null","","","null","84","","","","","","","","","","","","","","","",""
"","ITI","","html-keyboard-response","554","630498","0.0-1.0-765.0","0","0","49598","","null","","","null","84","","","","","","","","","","","","","","","NaN",""
"","S1","","html-keyboard-response","555","630650","0.0-1.0-767.0","0","0","49598","","null","","","null","85","","","","","","","","","","","","","","","",""
"","ISI","","html-keyboard-response","556","632652","0.0-1.0-768.0","0","0","49598","","null","","","null","85","NaN","","","","","","","","","","","","","","",""
"","S2","","html-keyboard-response","557","632805","0.0-1.0-769.0","0","0","49598","","null","","","null","85","","NaN","","","","","","","","","","","","","",""
"","response","","html-keyboard-response","558","633472","0.0-1.0-770.0-0.0","0","0","49598","","666","","","75","85","","","2","85","training","adjacent","GF","7","6","O.jpg","P.jpg","0","0","1","",""
"","feedback","","html-keyboard-response","559","634474","0.0-1.0-771.0-0.0","0","0","49598","","null","","","null","85","","","","","","","","","","","","","","","",""
"","ITI","","html-keyboard-response","560","635477","0.0-1.0-774.0","0","0","49598","","null","","","null","85","","","","","","","","","","","","","","","NaN",""
"","S1","","html-keyboard-response","561","635630","0.0-1.0-776.0","0","0","49598","","null","","","null","86","","","","","","","","","","","","","","","",""
"","ISI","","html-keyboard-response","562","637634","0.0-1.0-777.0","0","0","49598","","null","","","null","86","NaN","","","","","","","","","","","","","","",""
"","S2","","html-keyboard-response","563","637786","0.0-1.0-778.0","0","0","49598","","null","","","null","86","","NaN","","","","","","","","","","","","","",""
"","response","","html-keyboard-response","564","638354","0.0-1.0-779.0-0.0","0","0","49598","","567","","","68","86","","","2","86","training","adjacent","CD","3","4","N.jpg","R.jpg","1","1","1","",""
"","feedback","","html-keyboard-response","565","639356","0.0-1.0-780.0-0.0","0","0","49598","","null","","","null","86","","","","","","","","","","","","","","","",""
"","ITI","","html-keyboard-response","566","640358","0.0-1.0-783.0","0","0","49598","","null","","","null","86","","","","","","","","","","","","","","","NaN",""
"","S1","","html-keyboard-response","567","640509","0.0-1.0-785.0","0","0","49598","","null","","","null","87","","","","","","","","","","","","","","","",""
"","ISI","","html-keyboard-response","568","642511","0.0-1.0-786.0","0","0","49598","","null","","","null","87","NaN","","","","","","","","","","","","","","",""
"","S2","","html-keyboard-response","569","642663","0.0-1.0-787.0","0","0","49598","","null","","","null","87","","NaN","","","","","","","","","","","","","",""
"","response","","html-keyboard-response","570","643262","0.0-1.0-788.0-0.0","0","0","49598","","597","","","68","87","","","2","87","training","adjacent","AB","1","2","Q.jpg","L.jpg","1","1","1","",""
"","feedback","","html-keyboard-response","571","644265","0.0-1.0-789.0-0.0","0","0","49598","","null","","","null","87","","","","","","","","","","","","","","","",""
"","ITI","","html-keyboard-response","572","645268","0.0-1.0-792.0","0","0","49598","","null","","","null","87","","","","","","","","","","","","","","","NaN",""
"","S1","","html-keyboard-response","573","645419","0.0-1.0-794.0","0","0","49598","","null","","","null","88","","","","","","","","","","","","","","","",""
"","ISI","","html-keyboard-response","574","647422","0.0-1.0-795.0","0","0","49598","","null","","","null","88","NaN","","","","","","","","","","","","","","",""
"","S2","","html-keyboard-response","575","647575","0.0-1.0-796.0","0","0","49598","","null","","","null","88","","NaN","","","","","","","","","","","","","",""
"","response","","html-keyboard-response","576","647828","0.0-1.0-797.0-0.0","0","0","49598","","252","","","68","88","","","2","88","training","adjacent","EF","5","6","M.jpg","P.jpg","1","1","1","",""
"","feedback","","html-keyboard-response","577","648830","0.0-1.0-798.0-0.0","0","0","49598","","null","","","null","88","","","","","","","","","","","","","","","",""
"","ITI","","html-keyboard-response","578","649833","0.0-1.0-801.0","0","0","49598","","null","","","null","88","","","","","","","","","","","","","","","NaN",""
"","S1","","html-keyboard-response","579","649986","0.0-1.0-803.0","0","0","49598","","null","","","null","89","","","","","","","","","","","","","","","",""
"","ISI","","html-keyboard-response","580","651988","0.0-1.0-804.0","0","0","49598","","null","","","null","89","NaN","","","","","","","","","","","","","","",""
