"success","ttype","start_time","trial_type","trial_index","time_elapsed","internal_node_id","warning","missed_checkup","PID","view_history","rt","responses","repeat_instructions","key_press","index","keypress_isi","keypress_S2","block","trial_num","phase","group_type","pair_type","S1_stim","S2_stim","S1_img","S2_img","S1_chosen","S1_higher","accuracy","keypress_iti","total_bonus_tally"
"true","full_screen","d03072023hr1949","fullscreen","0","21876","0.0-0.0","0","0","81064","","","","","","","","","","","","","","","","","","","","","",""
"","instructions","","instructions","1","87043","0.0-1.0-0.0-0.0","0","0","81064","[{""page_index"":0,""viewing_time"":10911},{""page_index"":1,""viewing_time"":31533},{""page_index"":2,""viewing_time"":20116},{""page_index"":3,""viewing_time"":2599}]","65160","","","","","","","","","","","","","","","","","","","",""
"","comprehension_check","","survey-multi-choice","2","128329","0.0-1.0-0.0-1.0","0","0","81064","","41274","{""Q0"":""True"",""Q1"":""D"",""Q2"":""Once the second image appears and while the screen 'MAKE A CHOICE' is shown"",""Q3"":""Green mark"",""Q4"":""either D or K""}","0","","","","","","","","","","","","","","","","","",""
"","start_exp","","html-keyboard-response","3","133403","0.0-1.0-1.0","0","0","81064","","5069","","","32","","","","","","","","","","","","","","","","",""
"","S1","","html-keyboard-response","4","133657","0.0-1.0-2.0","0","0","81064","","null","","","null","0","","","","","","","","","","","","","","","",""
"","ISI","","html-keyboard-response","5","134660","0.0-1.0-3.0","0","0","81064","","null","","","null","0","NaN","","","","","","","","","","","","","","",""
"","S2","","html-keyboard-response","6","134916","0.0-1.0-4.0","0","0","81064","","null","","","null","0","","NaN","","","","","","","","","","","","","",""
"","response","","html-keyboard-response","7","135397","0.0-1.0-5.0-0.0","0","0","81064","","479","","","75","0","","","1","0","training","adjacent","GF","7","6","Q.jpg","P.jpg","0","0","1","",""
"","feedback","","html-keyboard-response","8","136403","0.0-1.0-6.0-0.0","0","0","81064","","null","","","null","0","","","","","","","","","","","","","","","",""
"","ITI","","html-keyboard-response","9","137412","0.0-1.0-9.0","0","0","81064","","null","","","null","0","","","","","","","","","","","","","","","NaN",""
"","S1","","html-keyboard-response","10","137665","0.0-1.0-11.0","0","0","81064","","null","","","null","1","","","","","","","","","","","","","","","",""
"","ISI","","html-keyboard-response","11","138675","0.0-1.0-12.0","0","0","81064","","null","","","null","1","NaN","","","","","","","","","","","","","","",""
"","S2","","html-keyboard-response","12","138929","0.0-1.0-13.0","0","0","81064","","null","","","null","1","","NaN","","","","","","","","","","","","","",""
"","response","","html-keyboard-response","13","139388","0.0-1.0-14.0-0.0","0","0","81064","","457","","","75","1","","","1","1","training","adjacent","BA","2","1","N.jpg","O.jpg","0","0","1","",""
"","feedback","","html-keyboard-response","14","140393","0.0-1.0-15.0-0.0","0","0","81064","","null","","","null","1","","","","","","","","","","","","","","","",""
"","ITI","","html-keyboard-response","15","141396","0.0-1.0-18.0","0","0","81064","","null","","","null","1","","","","","","","","","","","","","","","NaN",""
"","S1","","html-keyboard-response","16","141649","0.0-1.0-20.0","0","0","81064","","null","","","null","2","","","","","","","","","","","","","","","",""
"","ISI","","html-keyboard-response","17","142657","0.0-1.0-21.0","0","0","81064","","null","","","null","2","NaN","","","","","","","","","","","","","","",""
"","S2","","html-keyboard-response","18","142914","0.0-1.0-22.0","0","0","81064","","null","","","null","2","","NaN","","","","","","","","","","","","","",""
"","response","","html-keyboard-response","19","143369","0.0-1.0-23.0-0.0","0","0","81064","","453","","","68","2","","","1","2","training","adjacent","FE","6","5","P.jpg","R.jpg","1","0","0","",""
"","feedback","","html-keyboard-response","20","144378","0.0-1.0-24.0-0.0","0","0","81064","","null","","","null","2","","","","","","","","","","","","","","","",""
"","time_out","","html-keyboard-response","21","146386","0.0-1.0-26.0-0.0","0","0","81064","","null","","","null","2","","","","","","","","","","","","","","","",""
"","ITI","","html-keyboard-response","22","147395","0.0-1.0-27.0","0","0","81064","","null","","","null","2","","","","","","","","","","","","","","","NaN",""
"","S1","","html-keyboard-response","23","147651","0.0-1.0-29.0","0","0","81064","","null","","","null","3","","","","","","","","","","","","","","","",""
"","ISI","","html-keyboard-response","24","148659","0.0-1.0-30.0","0","0","81064","","null","","","null","3","NaN","","","","","","","","","","","","","","",""
"","S2","","html-keyboard-response","25","148914","0.0-1.0-31.0","0","0","81064","","null","","","null","3","","NaN","","","","","","","","","","","","","",""
"","response","","html-keyboard-response","26","149346","0.0-1.0-32.0-0.0","0","0","81064","","430","","","75","3","","","1","3","training","adjacent","CB","3","2","L.jpg","N.jpg","0","0","1","",""
"","feedback","","html-keyboard-response","27","150353","0.0-1.0-33.0-0.0","0","0","81064","","null","","","null","3","","","","","","","","","","","","","","","",""
"","ITI","","html-keyboard-response","28","151361","0.0-1.0-36.0","0","0","81064","","null","","","null","3","","","","","","","","","","","","","","","NaN",""
"","S1","","html-keyboard-response","29","151618","0.0-1.0-38.0","0","0","81064","","null","","","null","4","","","","","","","","","","","","","","","",""
"","ISI","","html-keyboard-response","30","152624","0.0-1.0-39.0","0","0","81064","","null","","","null","4","NaN","","","","","","","","","","","","","","",""
"","S2","","html-keyboard-response","31","152884","0.0-1.0-40.0","0","0","81064","","null","","","null","4","","NaN","","","","","","","","","","","","","",""
"","response","","html-keyboard-response","32","153296","0.0-1.0-41.0-0.0","0","0","81064","","411","","","75","4","","","1","4","training","adjacent","BC","2","3","N.jpg","L.jpg","0","1","0","",""
"","feedback","","html-keyboard-response","33","154305","0.0-1.0-42.0-0.0","0","0","81064","","null","","","null","4","","","","","","","","","","","","","","","",""
"","time_out","","html-keyboard-response","34","156307","0.0-1.0-44.0-0.0","0","0","81064","","null","","","null","4","","","","","","","","","","","","","","","",""
"","ITI","","html-keyboard-response","35","157313","0.0-1.0-45.0","0","0","81064","","null","","","null","4","","","","","","","","","","","","","","","NaN",""
"","S1","","html-keyboard-response","36","157568","0.0-1.0-47.0","0","0","81064","","null","","","null","5","","","","","","","","","","","","","","","",""
"","ISI","","html-keyboard-response","37","158578","0.0-1.0-48.0","0","0","81064","","null","","","null","5","NaN","","","","","","","","","","","","","","",""
"","S2","","html-keyboard-response","38","158835","0.0-1.0-49.0","0","0","81064","","null","","","null","5","","NaN","","","","","","","","","","","","","",""
"","response","","html-keyboard-response","39","159249","0.0-1.0-50.0-0.0","0","0","81064","","412","","","68","5","","","1","5","training","adjacent","FG","6","7","P.jpg","Q.jpg","1","1","1","",""
"","feedback","","html-keyboard-response","40","160257","0.0-1.0-51.0-0.0","0","0","81064","","null","","","null","5","","","","","","","","","","","","","","","",""
"","ITI","","html-keyboard-response","41","161267","0.0-1.0-54.0","0","0","81064","","null","","","null","5","","","","","","","","","","","","","","","NaN",""
"","S1","","html-keyboard-response","42","161523","0.0-1.0-56.0","0","0","81064","","null","","","null","6","","","","","","","","","","","","","","","",""
"","ISI","","html-keyboard-response","43","162529","0.0-1.0-57.0","0","0","81064","","null","","","null","6","NaN","","","","","","","","","","","","","","",""
"","S2","","html-keyboard-response","44","162787","0.0-1.0-58.0","0","0","81064","","null","","","null","6","","NaN","","","","","","","","","","","","","",""
"","response","","html-keyboard-response","45","163093","0.0-1.0-59.0-0.0","0","0","81064","","304","","","75","6","","","1","6","training","adjacent","DC","4","3","M.jpg","L.jpg","0","0","1","",""
"","feedback","","html-keyboard-response","46","164097","0.0-1.0-60.0-0.0","0","0","81064","","null","","","null","6","","","","","","","","","","","","","","","",""
"","ITI","","html-keyboard-response","47","165105","0.0-1.0-63.0","0","0","81064","","null","","","null","6","","","","","","","","","","","","","","","NaN",""
"","S1","","html-keyboard-response","48","165363","0.0-1.0-65.0","0","0","81064","","null","","","null","7","","","","","","","","","","","","","","","",""
"","ISI","","html-keyboard-response","49","166371","0.0-1.0-66.0","0","0","81064","","null","","","null","7","NaN","","","","","","","","","","","","","","",""
"","S2","","html-keyboard-response","50","166624","0.0-1.0-67.0","0","0","81064","","null","","","null","7","","NaN","","","","","","","","","","","","","",""
"","response","","html-keyboard-response","51","166944","0.0-1.0-68.0-0.0","0","0","81064","","318","","","68","7","","","1","7","training","adjacent","CD","3","4","L.jpg","M.jpg","1","1","1","",""
"","feedback","","html-keyboard-response","52","167953","0.0-1.0-69.0-0.0","0","0","81064","","null","","","null","7","","","","","","","","","","","","","","","",""
"","ITI","","html-keyboard-response","53","168961","0.0-1.0-72.0","0","0","81064","","null","","","null","7","","","","","","","","","","","","","","","NaN",""
"","S1","","html-keyboard-response","54","169219","0.0-1.0-74.0","0","0","81064","","null","","","null","8","","","","","","","","","","","","","","","",""
"","ISI","","html-keyboard-response","55","170224","0.0-1.0-75.0","0","0","81064","","null","","","null","8","NaN","","","","","","","","","","","","","","",""
"","S2","","html-keyboard-response","56","170484","0.0-1.0-76.0","0","0","81064","","null","","","null","8","","NaN","","","","","","","","","","","","","",""
"","response","","html-keyboard-response","57","170622","0.0-1.0-77.0-0.0","0","0","81064","","137","","","68","8","","","1","8","training","adjacent","FE","6","5","P.jpg","R.jpg","1","0","0","",""
"","feedback","","html-keyboard-response","58","171633","0.0-1.0-78.0-0.0","0","0","81064","","null","","","null","8","","","","","","","","","","","","","","","",""
"","time_out","","html-keyboard-response","59","173641","0.0-1.0-80.0-0.0","0","0","81064","","null","","","null","8","","","","","","","","","","","","","","","",""
"","ITI","","html-keyboard-response","60","174644","0.0-1.0-81.0","0","0","81064","","null","","","null","8","","","","","","","","","","","","","","","NaN",""
"","S1","","html-keyboard-response","61","174899","0.0-1.0-83.0","0","0","81064","","null","","","null","9","","","","","","","","","","","","","","","",""
"","ISI","","html-keyboard-response","62","175905","0.0-1.0-84.0","0","0","81064","","null","","","null","9","NaN","","","","","","","","","","","","","","",""
"","S2","","html-keyboard-response","63","176161","0.0-1.0-85.0","0","0","81064","","null","","","null","9","","NaN","","","","","","","","","","","","","",""
"","response","","html-keyboard-response","64","176388","0.0-1.0-86.0-0.0","0","0","81064","","226","","","75","9","","","1","9","training","adjacent","DC","4","3","M.jpg","L.jpg","0","0","1","",""
"","feedback","","html-keyboard-response","65","177393","0.0-1.0-87.0-0.0","0","0","81064","","null","","","null","9","","","","","","","","","","","","","","","",""
"","ITI","","html-keyboard-response","66","178402","0.0-1.0-90.0","0","0","81064","","null","","","null","9","","","","","","","","","","","","","","","NaN",""
"","S1","","html-keyboard-response","67","178656","0.0-1.0-92.0","0","0","81064","","null","","","null","10","","","","","","","","","","","","","","","",""
"","ISI","","html-keyboard-response","68","179667","0.0-1.0-93.0","0","0","81064","","null","","","null","10","NaN","","","","","","","","","","","","","","",""
"","S2","","html-keyboard-response","69","179921","0.0-1.0-94.0","0","0","81064","","null","","","null","10","","NaN","","","","","","","","","","","","","",""
"","response","","html-keyboard-response","70","180324","0.0-1.0-95.0-0.0","0","0","81064","","402","","","68","10","","","1","10","training","adjacent","CD","3","4","L.jpg","M.jpg","1","1","1","",""
"","feedback","","html-keyboard-response","71","181331","0.0-1.0-96.0-0.0","0","0","81064","","null","","","null","10","","","","","","","","","","","","","","","",""
"","ITI","","html-keyboard-response","72","182339","0.0-1.0-99.0","0","0","81064","","null","","","null","10","","","","","","","","","","","","","","","NaN",""
"","S1","","html-keyboard-response","73","182595","0.0-1.0-101.0","0","0","81064","","null","","","null","11","","","","","","","","","","","","","","","",""
"","ISI","","html-keyboard-response","74","183602","0.0-1.0-102.0","0","0","81064","","null","","","null","11","NaN","","","","","","","","","","","","","","",""
"","S2","","html-keyboard-response","75","183859","0.0-1.0-103.0","0","0","81064","","null","","","null","11","","NaN","","","","","","","","","","","","","",""
"","response","","html-keyboard-response","76","184137","0.0-1.0-104.0-0.0","0","0","81064","","275","","","68","11","","","1","11","training","adjacent","CD","3","4","L.jpg","M.jpg","1","1","1","",""
"","feedback","","html-keyboard-response","77","185139","0.0-1.0-105.0-0.0","0","0","81064","","null","","","null","11","","","","","","","","","","","","","","","",""
"","ITI","","html-keyboard-response","78","186147","0.0-1.0-108.0","0","0","81064","","null","","","null","11","","","","","","","","","","","","","","","NaN",""
"","S1","","html-keyboard-response","79","186400","0.0-1.0-110.0","0","0","81064","","null","","","null","12","","","","","","","","","","","","","","","",""
"","ISI","","html-keyboard-response","80","187411","0.0-1.0-111.0","0","0","81064","","null","","","null","12","NaN","","","","","","","","","","","","","","",""
"","S2","","html-keyboard-response","81","187666","0.0-1.0-112.0","0","0","81064","","null","","","null","12","","NaN","","","","","","","","","","","","","",""
"","response","","html-keyboard-response","82","187825","0.0-1.0-113.0-0.0","0","0","81064","","157","","","68","12","","","1","12","training","adjacent","CD","3","4","L.jpg","M.jpg","1","1","1","",""
"","feedback","","html-keyboard-response","83","188835","0.0-1.0-114.0-0.0","0","0","81064","","null","","","null","12","","","","","","","","","","","","","","","",""
"","ITI","","html-keyboard-response","84","189841","0.0-1.0-117.0","0","0","81064","","null","","","null","12","","","","","","","","","","","","","","","NaN",""
"","S1","","html-keyboard-response","85","190100","0.0-1.0-119.0","0","0","81064","","null","","","null","13","","","","","","","","","","","","","","","",""
"","ISI","","html-keyboard-response","86","191104","0.0-1.0-120.0","0","0","81064","","null","","","null","13","NaN","","","","","","","","","","","","","","",""
"","S2","","html-keyboard-response","87","191363","0.0-1.0-121.0","0","0","81064","","null","","","null","13","","NaN","","","","","","","","","","","","","",""
"","response","","html-keyboard-response","88","191572","0.0-1.0-122.0-0.0","0","0","81064","","208","","","75","13","","","1","13","training","adjacent","DC","4","3","M.jpg","L.jpg","0","0","1","",""
"","feedback","","html-keyboard-response","89","192579","0.0-1.0-123.0-0.0","0","0","81064","","null","","","null","13","","","","","","","","","","","","","","","",""
"","ITI","","html-keyboard-response","90","193586","0.0-1.0-126.0","0","0","81064","","null","","","null","13","","","","","","","","","","","","","","","NaN",""
"","S1","","html-keyboard-response","91","193841","0.0-1.0-128.0","0","0","81064","","null","","","null","14","","","","","","","","","","","","","","","",""
"","ISI","","html-keyboard-response","92","194850","0.0-1.0-129.0","0","0","81064","","null","","","null","14","NaN","","","","","","","","","","","","","","",""
"","S2","","html-keyboard-response","93","195104","0.0-1.0-130.0","0","0","81064","","null","","","null","14","","NaN","","","","","","","","","","","","","",""
"","response","","html-keyboard-response","94","195572","0.0-1.0-131.0-0.0","0","0","81064","","467","","","75","14","","","1","14","training","adjacent","AB","1","2","O.jpg","N.jpg","0","1","0","",""
"","feedback","","html-keyboard-response","95","196576","0.0-1.0-132.0-0.0","0","0","81064","","null","","","null","14","","","","","","","","","","","","","","","",""
"","time_out","","html-keyboard-response","96","198579","0.0-1.0-134.0-0.0","0","0","81064","","null","","","null","14","","","","","","","","","","","","","","","",""
"","ITI","","html-keyboard-response","97","199587","0.0-1.0-135.0","0","0","81064","","null","","","null","14","","","","","","","","","","","","","","","NaN",""
"","S1","","html-keyboard-response","98","199843","0.0-1.0-137.0","0","0","81064","","null","","","null","15","","","","","","","","","","","","","","","",""
"","ISI","","html-keyboard-response","99","200850","0.0-1.0-138.0","0","0","81064","","null","","","null","15","NaN","","","","","","","","","","","","","","",""
"","S2","","html-keyboard-response","100","201106","0.0-1.0-139.0","0","0","81064","","null","","","null","15","","NaN","","","","","","","","","","","","","",""
"","response","","html-keyboard-response","101","201463","0.0-1.0-140.0-0.0","0","0","81064","","356","","","68","15","","","1","15","training","adjacent","AB","1","2","O.jpg","N.jpg","1","1","1","",""
"","feedback","","html-keyboard-response","102","202472","0.0-1.0-141.0-0.0","0","0","81064","","null","","","null","15","","","","","","","","","","","","","","","",""
"","ITI","","html-keyboard-response","103","203480","0.0-1.0-144.0","0","0","81064","","null","","","null","15","","","","","","","","","","","","","","","NaN",""
"","S1","","html-keyboard-response","104","203737","0.0-1.0-146.0","0","0","81064","","null","","","null","16","","","","","","","","","","","","","","","",""
"","ISI","","html-keyboard-response","105","204746","0.0-1.0-147.0","0","0","81064","","null","","","null","16","NaN","","","","","","","","","","","","","","",""
"","S2","","html-keyboard-response","106","205000","0.0-1.0-148.0","0","0","81064","","null","","","null","16","","NaN","","","","","","","","","","","","","",""
"","response","","html-keyboard-response","107","205622","0.0-1.0-149.0-0.0","0","0","81064","","620","","","68","16","","","1","16","training","adjacent","FE","6","5","P.jpg","R.jpg","1","0","0","",""
"","feedback","","html-keyboard-response","108","206624","0.0-1.0-150.0-0.0","0","0","81064","","null","","","null","16","","","","","","","","","","","","","","","",""
"","time_out","","html-keyboard-response","109","208627","0.0-1.0-152.0-0.0","0","0","81064","","null","","","null","16","","","","","","","","","","","","","","","",""
"","ITI","","html-keyboard-response","110","209635","0.0-1.0-153.0","0","0","81064","","null","","","null","16","","","","","","","","","","","","","","","NaN",""
"","S1","","html-keyboard-response","111","209890","0.0-1.0-155.0","0","0","81064","","null","","","null","17","","","","","","","","","","","","","","","",""
"","ISI","","html-keyboard-response","112","210898","0.0-1.0-156.0","0","0","81064","","null","","","null","17","NaN","","","","","","","","","","","","","","",""
"","S2","","html-keyboard-response","113","211155","0.0-1.0-157.0","0","0","81064","","null","","","null","17","","NaN","","","","","","","","","","","","","",""
"","response","","html-keyboard-response","114","211525","0.0-1.0-158.0-0.0","0","0","81064","","369","","","68","17","","","1","17","training","adjacent","FG","6","7","P.jpg","Q.jpg","1","1","1","",""
"","feedback","","html-keyboard-response","115","212531","0.0-1.0-159.0-0.0","0","0","81064","","null","","","null","17","","","","","","","","","","","","","","","",""
"","ITI","","html-keyboard-response","116","213539","0.0-1.0-162.0","0","0","81064","","null","","","null","17","","","","","","","","","","","","","","","NaN",""
"","S1","","html-keyboard-response","117","213794","0.0-1.0-164.0","0","0","81064","","null","","","null","18","","","","","","","","","","","","","","","",""
"","ISI","","html-keyboard-response","118","214802","0.0-1.0-165.0","0","0","81064","","null","","","null","18","NaN","","","","","","","","","","","","","","",""
"","S2","","html-keyboard-response","119","215058","0.0-1.0-166.0","0","0","81064","","null","","","null","18","","NaN","","","","","","","","","","","","","",""
"","response","","html-keyboard-response","120","215614","0.0-1.0-167.0-0.0","0","0","81064","","555","","","68","18","","","1","18","training","adjacent","ED","5","4","R.jpg","M.jpg","1","0","0","",""
"","feedback","","html-keyboard-response","121","216624","0.0-1.0-168.0-0.0","0","0","81064","","null","","","null","18","","","","","","","","","","","","","","","",""
"","time_out","","html-keyboard-response","122","218626","0.0-1.0-170.0-0.0","0","0","81064","","null","","","null","18","","","","","","","","","","","","","","","",""
"","ITI","","html-keyboard-response","123","219634","0.0-1.0-171.0","0","0","81064","","null","","","null","18","","","","","","","","","","","","","","","NaN",""
"","S1","","html-keyboard-response","124","219891","0.0-1.0-173.0","0","0","81064","","null","","","null","19","","","","","","","","","","","","","","","",""
"","ISI","","html-keyboard-response","125","220899","0.0-1.0-174.0","0","0","81064","","null","","","null","19","NaN","","","","","","","","","","","","","","",""
"","S2","","html-keyboard-response","126","221153","0.0-1.0-175.0","0","0","81064","","null","","","null","19","","NaN","","","","","","","","","","","","","",""
"","response","","html-keyboard-response","127","222030","0.0-1.0-176.0-0.0","0","0","81064","","876","","","75","19","","","1","19","training","adjacent","AB","1","2","O.jpg","N.jpg","0","1","0","",""
"","feedback","","html-keyboard-response","128","223042","0.0-1.0-177.0-0.0","0","0","81064","","null","","","null","19","","","","","","","","","","","","","","","",""
"","time_out","","html-keyboard-response","129","225048","0.0-1.0-179.0-0.0","0","0","81064","","null","","","null","19","","","","","","","","","","","","","","","",""
"","ITI","","html-keyboard-response","130","226050","0.0-1.0-180.0","0","0","81064","","null","","","null","19","","","","","","","","","","","","","","","NaN",""
"","S1","","html-keyboard-response","131","226304","0.0-1.0-182.0","0","0","81064","","null","","","null","20","","","","","","","","","","","","","","","",""
"","ISI","","html-keyboard-response","132","227314","0.0-1.0-183.0","0","0","81064","","null","","","null","20","NaN","","","","","","","","","","","","","","",""
"","S2","","html-keyboard-response","133","227567","0.0-1.0-184.0","0","0","81064","","null","","","null","20","","NaN","","","","","","","","","","","","","",""
"","response","","html-keyboard-response","134","228071","0.0-1.0-185.0-0.0","0","0","81064","","501","","","75","20","","","1","20","training","adjacent","EF","5","6","R.jpg","P.jpg","0","1","0","",""
"","feedback","","html-keyboard-response","135","229080","0.0-1.0-186.0-0.0","0","0","81064","","null","","","null","20","","","","","","","","","","","","","","","",""
"","time_out","","html-keyboard-response","136","231091","0.0-1.0-188.0-0.0","0","0","81064","","null","","","null","20","","","","","","","","","","","","","","","",""
"","ITI","","html-keyboard-response","137","232097","0.0-1.0-189.0","0","0","81064","","null","","","null","20","","","","","","","","","","","","","","","NaN",""
"","S1","","html-keyboard-response","138","232354","0.0-1.0-191.0","0","0","81064","","null","","","null","21","","","","","","","","","","","","","","","",""
"","ISI","","html-keyboard-response","139","233359","0.0-1.0-192.0","0","0","81064","","null","","","null","21","NaN","","","","","","","","","","","","","","",""
"","S2","","html-keyboard-response","140","233618","0.0-1.0-193.0","0","0","81064","","null","","","null","21","","NaN","","","","","","","","","","","","","",""
"","response","","html-keyboard-response","141","234006","0.0-1.0-194.0-0.0","0","0","81064","","385","","","68","21","","","1","21","training","adjacent","CB","3","2","L.jpg","N.jpg","1","0","0","",""
"","feedback","","html-keyboard-response","142","235010","0.0-1.0-195.0-0.0","0","0","81064","","null","","","null","21","","","","","","","","","","","","","","","",""
"","time_out","","html-keyboard-response","143","237016","0.0-1.0-197.0-0.0","0","0","81064","","null","","","null","21","","","","","","","","","","","","","","","",""
"","ITI","","html-keyboard-response","144","238024","0.0-1.0-198.0","0","0","81064","","null","","","null","21","","","","","","","","","","","","","","","NaN",""
"","S1","","html-keyboard-response","145","238279","0.0-1.0-200.0","0","0","81064","","null","","","null","22","","","","","","","","","","","","","","","",""
"","ISI","","html-keyboard-response","146","239282","0.0-1.0-201.0","0","0","81064","","null","","","null","22","NaN","","","","","","","","","","","","","","",""
"","S2","","html-keyboard-response","147","239544","0.0-1.0-202.0","0","0","81064","","null","","","null","22","","NaN","","","","","","","","","","","","","",""
"","response","","html-keyboard-response","148","240402","0.0-1.0-203.0-0.0","0","0","81064","","857","","","75","22","","","1","22","training","adjacent","EF","5","6","R.jpg","P.jpg","0","1","0","",""
"","feedback","","html-keyboard-response","149","241410","0.0-1.0-204.0-0.0","0","0","81064","","null","","","null","22","","","","","","","","","","","","","","","",""
"","time_out","","html-keyboard-response","150","243415","0.0-1.0-206.0-0.0","0","0","81064","","null","","","null","22","","","","","","","","","","","","","","","",""
"","ITI","","html-keyboard-response","151","244424","0.0-1.0-207.0","0","0","81064","","null","","","null","22","","","","","","","","","","","","","","","NaN",""
"","S1","","html-keyboard-response","152","244679","0.0-1.0-209.0","0","0","81064","","null","","","null","23","","","","","","","","","","","","","","","",""
"","ISI","","html-keyboard-response","153","245682","0.0-1.0-210.0","0","0","81064","","null","","","null","23","NaN","","","","","","","","","","","","","","",""
"","S2","","html-keyboard-response","154","245936","0.0-1.0-211.0","0","0","81064","","null","","","null","23","","NaN","","","","","","","","","","","","","",""
"","response","","html-keyboard-response","155","246907","0.0-1.0-212.0-0.0","0","0","81064","","969","","","68","23","","","1","23","training","adjacent","AB","1","2","O.jpg","N.jpg","1","1","1","",""
"","feedback","","html-keyboard-response","156","247912","0.0-1.0-213.0-0.0","0","0","81064","","null","","","null","23","","","","","","","","","","","","","","","",""
"","ITI","","html-keyboard-response","157","248913","0.0-1.0-216.0","0","0","81064","","null","","","null","23","","","","","","","","","","","","","","","NaN",""
"","S1","","html-keyboard-response","158","249168","0.0-1.0-218.0","0","0","81064","","null","","","null","24","","","","","","","","","","","","","","","",""
"","ISI","","html-keyboard-response","159","250177","0.0-1.0-219.0","0","0","81064","","null","","","null","24","NaN","","","","","","","","","","","","","","",""
"","S2","","html-keyboard-response","160","250431","0.0-1.0-220.0","0","0","81064","","null","","","null","24","","NaN","","","","","","","","","","","","","",""
"","response","","html-keyboard-response","161","250710","0.0-1.0-221.0-0.0","0","0","81064","","278","","","68","24","","","1","24","training","adjacent","CB","3","2","L.jpg","N.jpg","1","0","0","",""
"","feedback","","html-keyboard-response","162","251714","0.0-1.0-222.0-0.0","0","0","81064","","null","","","null","24","","","","","","","","","","","","","","","",""
"","time_out","","html-keyboard-response","163","253719","0.0-1.0-224.0-0.0","0","0","81064","","null","","","null","24","","","","","","","","","","","","","","","",""
"","ITI","","html-keyboard-response","164","254722","0.0-1.0-225.0","0","0","81064","","null","","","null","24","","","","","","","","","","","","","","","NaN",""
"","S1","","html-keyboard-response","165","254978","0.0-1.0-227.0","0","0","81064","","null","","","null","25","","","","","","","","","","","","","","","",""
"","ISI","","html-keyboard-response","166","255986","0.0-1.0-228.0","0","0","81064","","null","","","null","25","NaN","","","","","","","","","","","","","","",""
"","S2","","html-keyboard-response","167","256239","0.0-1.0-229.0","0","0","81064","","null","","","null","25","","NaN","","","","","","","","","","","","","",""
"","response","","html-keyboard-response","168","256909","0.0-1.0-230.0-0.0","0","0","81064","","668","","","68","25","","","1","25","training","adjacent","BA","2","1","N.jpg","O.jpg","1","0","0","",""
"","feedback","","html-keyboard-response","169","257911","0.0-1.0-231.0-0.0","0","0","81064","","null","","","null","25","","","","","","","","","","","","","","","",""
"","time_out","","html-keyboard-response","170","259920","0.0-1.0-233.0-0.0","0","0","81064","","null","","","null","25","","","","","","","","","","","","","","","",""
"","ITI","","html-keyboard-response","171","260927","0.0-1.0-234.0","0","0","81064","","null","","","null","25","","","","","","","","","","","","","","","NaN",""
"","S1","","html-keyboard-response","172","261188","0.0-1.0-236.0","0","0","81064","","null","","","null","26","","","","","","","","","","","","","","","",""
"","ISI","","html-keyboard-response","173","262193","0.0-1.0-237.0","0","0","81064","","null","","","null","26","NaN","","","","","","","","","","","","","","",""
"","S2","","html-keyboard-response","174","262447","0.0-1.0-238.0","0","0","81064","","null","","","null","26","","NaN","","","","","","","","","","","","","",""
"","response","","html-keyboard-response","175","263043","0.0-1.0-239.0-0.0","0","0","81064","","594","","","68","26","","","1","26","training","adjacent","CB","3","2","L.jpg","N.jpg","1","0","0","",""
"","feedback","","html-keyboard-response","176","264050","0.0-1.0-240.0-0.0","0","0","81064","","null","","","null","26","","","","","","","","","","","","","","","",""
"","time_out","","html-keyboard-response","177","266055","0.0-1.0-242.0-0.0","0","0","81064","","null","","","null","26","","","","","","","","","","","","","","","",""
"","ITI","","html-keyboard-response","178","267058","0.0-1.0-243.0","0","0","81064","","null","","","null","26","","","","","","","","","","","","","","","NaN",""
"","S1","","html-keyboard-response","179","267311","0.0-1.0-245.0","0","0","81064","","null","","","null","27","","","","","","","","","","","","","","","",""
"","ISI","","html-keyboard-response","180","268320","0.0-1.0-246.0","0","0","81064","","null","","","null","27","NaN","","","","","","","","","","","","","","",""
"","S2","","html-keyboard-response","181","268578","0.0-1.0-247.0","0","0","81064","","null","","","null","27","","NaN","","","","","","","","","","","","","",""
"","response","","html-keyboard-response","182","269565","0.0-1.0-248.0-0.0","0","0","81064","","986","","","68","27","","","1","27","training","adjacent","BC","2","3","N.jpg","L.jpg","1","1","1","",""
"","feedback","","html-keyboard-response","183","270575","0.0-1.0-249.0-0.0","0","0","81064","","null","","","null","27","","","","","","","","","","","","","","","",""
"","ITI","","html-keyboard-response","184","271584","0.0-1.0-252.0","0","0","81064","","null","","","null","27","","","","","","","","","","","","","","","NaN",""
"","S1","","html-keyboard-response","185","271842","0.0-1.0-254.0","0","0","81064","","null","","","null","28","","","","","","","","","","","","","","","",""
"","ISI","","html-keyboard-response","186","272848","0.0-1.0-255.0","0","0","81064","","null","","","null","28","NaN","","","","","","","","","","","","","","",""
"","S2","","html-keyboard-response","187","273106","0.0-1.0-256.0","0","0","81064","","null","","","null","28","","NaN","","","","","","","","","","","","","",""
"","response","","html-keyboard-response","188","273479","0.0-1.0-257.0-0.0","0","0","81064","","371","","","75","28","","","1","28","training","adjacent","DE","4","5","M.jpg","R.jpg","0","1","0","",""
"","feedback","","html-keyboard-response","189","274482","0.0-1.0-258.0-0.0","0","0","81064","","null","","","null","28","","","","","","","","","","","","","","","",""
"","time_out","","html-keyboard-response","190","276487","0.0-1.0-260.0-0.0","0","0","81064","","null","","","null","28","","","","","","","","","","","","","","","",""
"","ITI","","html-keyboard-response","191","277490","0.0-1.0-261.0","0","0","81064","","null","","","null","28","","","","","","","","","","","","","","","NaN",""
"","S1","","html-keyboard-response","192","277743","0.0-1.0-263.0","0","0","81064","","null","","","null","29","","","","","","","","","","","","","","","",""
"","ISI","","html-keyboard-response","193","278754","0.0-1.0-264.0","0","0","81064","","null","","","null","29","NaN","","","","","","","","","","","","","","",""
"","S2","","html-keyboard-response","194","279008","0.0-1.0-265.0","0","0","81064","","null","","","null","29","","NaN","","","","","","","","","","","","","",""
"","response","","html-keyboard-response","195","279586","0.0-1.0-266.0-0.0","0","0","81064","","577","","","75","29","","","1","29","training","adjacent","DE","4","5","M.jpg","R.jpg","0","1","0","",""
"","feedback","","html-keyboard-response","196","280594","0.0-1.0-267.0-0.0","0","0","81064","","null","","","null","29","","","","","","","","","","","","","","","",""
"","time_out","","html-keyboard-response","197","282599","0.0-1.0-269.0-0.0","0","0","81064","","null","","","null","29","","","","","","","","","","","","","","","",""
"","ITI","","html-keyboard-response","198","283602","0.0-1.0-270.0","0","0","81064","","null","","","null","29","","","","","","","","","","","","","","","NaN",""
"","S1","","html-keyboard-response","199","283856","0.0-1.0-272.0","0","0","81064","","null","","","null","30","","","","","","","","","","","","","","","",""
"","ISI","","html-keyboard-response","200","284866","0.0-1.0-273.0","0","0","81064","","null","","","null","30","NaN","","","","","","","","","","","","","","",""
"","S2","","html-keyboard-response","201","285122","0.0-1.0-274.0","0","0","81064","","null","","","null","30","","NaN","","","","","","","","","","","","","",""
"","response","","html-keyboard-response","202","286051","0.0-1.0-275.0-0.0","0","0","81064","","928","","","75","30","","","1","30","training","adjacent","BA","2","1","N.jpg","O.jpg","0","0","1","",""
"","feedback","","html-keyboard-response","203","287058","0.0-1.0-276.0-0.0","0","0","81064","","null","","","null","30","","","","","","","","","","","","","","","",""
"","ITI","","html-keyboard-response","204","288063","0.0-1.0-279.0","0","0","81064","","null","","","null","30","","","","","","","","","","","","","","","NaN",""
"","S1","","html-keyboard-response","205","288319","0.0-1.0-281.0","0","0","81064","","null","","","null","31","","","","","","","","","","","","","","","",""
"","ISI","","html-keyboard-response","206","289330","0.0-1.0-282.0","0","0","81064","","null","","","null","31","NaN","","","","","","","","","","","","","","",""
"","S2","","html-keyboard-response","207","289586","0.0-1.0-283.0","0","0","81064","","null","","","null","31","","NaN","","","","","","","","","","","","","",""
"","response","","html-keyboard-response","208","290127","0.0-1.0-284.0-0.0","0","0","81064","","539","","","75","31","","","1","31","training","adjacent","FE","6","5","P.jpg","R.jpg","0","0","1","",""
"","feedback","","html-keyboard-response","209","291139","0.0-1.0-285.0-0.0","0","0","81064","","null","","","null","31","","","","","","","","","","","","","","","",""
"","ITI","","html-keyboard-response","210","292146","0.0-1.0-288.0","0","0","81064","","null","","","null","31","","","","","","","","","","","","","","","NaN",""
"","S1","","html-keyboard-response","211","292401","0.0-1.0-290.0","0","0","81064","","null","","","null","32","","","","","","","","","","","","","","","",""
"","ISI","","html-keyboard-response","212","293410","0.0-1.0-291.0","0","0","81064","","null","","","null","32","NaN","","","","","","","","","","","","","","",""
"","S2","","html-keyboard-response","213","293666","0.0-1.0-292.0","0","0","81064","","null","","","null","32","","NaN","","","","","","","","","","","","","",""
"","response","","html-keyboard-response","214","293927","0.0-1.0-293.0-0.0","0","0","81064","","260","","","75","32","","","1","32","training","adjacent","DC","4","3","M.jpg","L.jpg","0","0","1","",""
"","feedback","","html-keyboard-response","215","294930","0.0-1.0-294.0-0.0","0","0","81064","","null","","","null","32","","","","","","","","","","","","","","","",""
"","ITI","","html-keyboard-response","216","295937","0.0-1.0-297.0","0","0","81064","","null","","","null","32","","","","","","","","","","","","","","","NaN",""
"","S1","","html-keyboard-response","217","296192","0.0-1.0-299.0","0","0","81064","","null","","","null","33","","","","","","","","","","","","","","","",""
"","ISI","","html-keyboard-response","218","297202","0.0-1.0-300.0","0","0","81064","","null","","","null","33","NaN","","","","","","","","","","","","","","",""
"","S2","","html-keyboard-response","219","297459","0.0-1.0-301.0","0","0","81064","","null","","","null","33","","NaN","","","","","","","","","","","","","",""
"","response","","html-keyboard-response","220","298186","0.0-1.0-302.0-0.0","0","0","81064","","726","","","68","33","","","1","33","training","adjacent","ED","5","4","R.jpg","M.jpg","1","0","0","",""
"","feedback","","html-keyboard-response","221","299191","0.0-1.0-303.0-0.0","0","0","81064","","null","","","null","33","","","","","","","","","","","","","","","",""
"","time_out","","html-keyboard-response","222","301198","0.0-1.0-305.0-0.0","0","0","81064","","null","","","null","33","","","","","","","","","","","","","","","",""
"","ITI","","html-keyboard-response","223","302205","0.0-1.0-306.0","0","0","81064","","null","","","null","33","","","","","","","","","","","","","","","NaN",""
"","S1","","html-keyboard-response","224","302466","0.0-1.0-308.0","0","0","81064","","null","","","null","34","","","","","","","","","","","","","","","",""
"","ISI","","html-keyboard-response","225","303472","0.0-1.0-309.0","0","0","81064","","null","","","null","34","NaN","","","","","","","","","","","","","","",""
"","S2","","html-keyboard-response","226","303730","0.0-1.0-310.0","0","0","81064","","null","","","null","34","","NaN","","","","","","","","","","","","","",""
"","response","","html-keyboard-response","227","304350","0.0-1.0-311.0-0.0","0","0","81064","","619","","","75","34","","","1","34","training","adjacent","BC","2","3","N.jpg","L.jpg","0","1","0","",""
"","feedback","","html-keyboard-response","228","305359","0.0-1.0-312.0-0.0","0","0","81064","","null","","","null","34","","","","","","","","","","","","","","","",""
"","time_out","","html-keyboard-response","229","307362","0.0-1.0-314.0-0.0","0","0","81064","","null","","","null","34","","","","","","","","","","","","","","","",""
"","ITI","","html-keyboard-response","230","308367","0.0-1.0-315.0","0","0","81064","","null","","","null","34","","","","","","","","","","","","","","","NaN",""
"","S1","","html-keyboard-response","231","308626","0.0-1.0-317.0","0","0","81064","","null","","","null","35","","","","","","","","","","","","","","","",""
"","ISI","","html-keyboard-response","232","309633","0.0-1.0-318.0","0","0","81064","","null","","","null","35","NaN","","","","","","","","","","","","","","",""
"","S2","","html-keyboard-response","233","309888","0.0-1.0-319.0","0","0","81064","","null","","","null","35","","NaN","","","","","","","","","","","","","",""
"","response","","html-keyboard-response","234","310065","0.0-1.0-320.0-0.0","0","0","81064","","175","","","68","35","","","1","35","training","adjacent","BC","2","3","N.jpg","L.jpg","1","1","1","",""
"","feedback","","html-keyboard-response","235","311074","0.0-1.0-321.0-0.0","0","0","81064","","null","","","null","35","","","","","","","","","","","","","","","",""
"","ITI","","html-keyboard-response","236","312081","0.0-1.0-324.0","0","0","81064","","null","","","null","35","","","","","","","","","","","","","","","NaN",""
"","S1","","html-keyboard-response","237","312337","0.0-1.0-326.0","0","0","81064","","null","","","null","36","","","","","","","","","","","","","","","",""
"","ISI","","html-keyboard-response","238","313344","0.0-1.0-327.0","0","0","81064","","null","","","null","36","NaN","","","","","","","","","","","","","","",""
"","S2","","html-keyboard-response","239","313600","0.0-1.0-328.0","0","0","81064","","null","","","null","36","","NaN","","","","","","","","","","","","","",""
"","response","","html-keyboard-response","240","314040","0.0-1.0-329.0-0.0","0","0","81064","","436","","","68","36","","","1","36","training","adjacent","EF","5","6","R.jpg","P.jpg","1","1","1","",""
"","feedback","","html-keyboard-response","241","315048","0.0-1.0-330.0-0.0","0","0","81064","","null","","","null","36","","","","","","","","","","","","","","","",""
"","ITI","","html-keyboard-response","242","316055","0.0-1.0-333.0","0","0","81064","","null","","","null","36","","","","","","","","","","","","","","","NaN",""
"","S1","","html-keyboard-response","243","316310","0.0-1.0-335.0","0","0","81064","","null","","","null","37","","","","","","","","","","","","","","","",""
"","ISI","","html-keyboard-response","244","317322","0.0-1.0-336.0","0","0","81064","","null","","","null","37","NaN","","","","","","","","","","","","","","",""
"","S2","","html-keyboard-response","245","317575","0.0-1.0-337.0","0","0","81064","","null","","","null","37","","NaN","","","","","","","","","","","","","",""
"","response","","html-keyboard-response","246","318408","0.0-1.0-338.0-0.0","0","0","81064","","832","","","75","37","","","1","37","training","adjacent","DE","4","5","M.jpg","R.jpg","0","1","0","",""
"","feedback","","html-keyboard-response","247","319411","0.0-1.0-339.0-0.0","0","0","81064","","null","","","null","37","","","","","","","","","","","","","","","",""
"","time_out","","html-keyboard-response","248","321414","0.0-1.0-341.0-0.0","0","0","81064","","null","","","null","37","","","","","","","","","","","","","","","",""
"","ITI","","html-keyboard-response","249","322417","0.0-1.0-342.0","0","0","81064","","null","","","null","37","","","","","","","","","","","","","","","NaN",""
"","S1","","html-keyboard-response","250","322671","0.0-1.0-344.0","0","0","81064","","null","","","null","38","","","","","","","","","","","","","","","",""
"","ISI","","html-keyboard-response","251","323681","0.0-1.0-345.0","0","0","81064","","null","","","null","38","NaN","","","","","","","","","","","","","","",""
"","S2","","html-keyboard-response","252","323937","0.0-1.0-346.0","0","0","81064","","null","","","null","38","","NaN","","","","","","","","","","","","","",""
"","response","","html-keyboard-response","253","324862","0.0-1.0-347.0-0.0","0","0","81064","","923","","","68","38","","","1","38","training","adjacent","FG","6","7","P.jpg","Q.jpg","1","1","1","",""
"","feedback","","html-keyboard-response","254","325873","0.0-1.0-348.0-0.0","0","0","81064","","null","","","null","38","","","","","","","","","","","","","","","",""
"","ITI","","html-keyboard-response","255","326880","0.0-1.0-351.0","0","0","81064","","null","","","null","38","","","","","","","","","","","","","","","NaN",""
"","S1","","html-keyboard-response","256","327137","0.0-1.0-353.0","0","0","81064","","null","","","null","39","","","","","","","","","","","","","","","",""
"","ISI","","html-keyboard-response","257","328143","0.0-1.0-354.0","0","0","81064","","null","","","null","39","NaN","","","","","","","","","","","","","","",""
"","S2","","html-keyboard-response","258","328401","0.0-1.0-355.0","0","0","81064","","null","","","null","39","","NaN","","","","","","","","","","","","","",""
"","response","","html-keyboard-response","259","329653","0.0-1.0-356.0-0.0","0","0","81064","","1250","","","68","39","","","1","39","training","adjacent","DE","4","5","M.jpg","R.jpg","1","1","1","",""
"","feedback","","html-keyboard-response","260","330657","0.0-1.0-357.0-0.0","0","0","81064","","null","","","null","39","","","","","","","","","","","","","","","",""
"","ITI","","html-keyboard-response","261","331665","0.0-1.0-360.0","0","0","81064","","null","","","null","39","","","","","","","","","","","","","","","NaN",""
"","S1","","html-keyboard-response","262","331919","0.0-1.0-362.0","0","0","81064","","null","","","null","40","","","","","","","","","","","","","","","",""
"","ISI","","html-keyboard-response","263","332929","0.0-1.0-363.0","0","0","81064","","null","","","null","40","NaN","","","","","","","","","","","","","","",""
"","S2","","html-keyboard-response","264","333185","0.0-1.0-364.0","0","0","81064","","null","","","null","40","","NaN","","","","","","","","","","","","","",""
"","response","","html-keyboard-response","265","333204","0.0-1.0-365.0-0.0","0","0","81064","","17","","","75","40","","","1","40","training","adjacent","GF","7","6","Q.jpg","P.jpg","0","0","1","",""
"","feedback","","html-keyboard-response","266","334209","0.0-1.0-366.0-0.0","0","0","81064","","null","","","null","40","","","","","","","","","","","","","","","",""
"","ITI","","html-keyboard-response","267","335217","0.0-1.0-369.0","0","0","81064","","null","","","null","40","","","","","","","","","","","","","","","NaN",""
"","S1","","html-keyboard-response","268","335469","0.0-1.0-371.0","0","0","81064","","null","","","null","41","","","","","","","","","","","","","","","",""
"","ISI","","html-keyboard-response","269","336478","0.0-1.0-372.0","0","0","81064","","null","","","null","41","NaN","","","","","","","","","","","","","","",""
"","S2","","html-keyboard-response","270","336737","0.0-1.0-373.0","0","0","81064","","null","","","null","41","","NaN","","","","","","","","","","","","","",""
"","response","","html-keyboard-response","271","337059","0.0-1.0-374.0-0.0","0","0","81064","","320","","","68","41","","","1","41","training","adjacent","FG","6","7","P.jpg","Q.jpg","1","1","1","",""
"","feedback","","html-keyboard-response","272","338065","0.0-1.0-375.0-0.0","0","0","81064","","null","","","null","41","","","","","","","","","","","","","","","",""
"","ITI","","html-keyboard-response","273","339071","0.0-1.0-378.0","0","0","81064","","null","","","null","41","","","","","","","","","","","","","","","NaN",""
"","S1","","html-keyboard-response","274","339329","0.0-1.0-380.0","0","0","81064","","null","","","null","42","","","","","","","","","","","","","","","",""
"","ISI","","html-keyboard-response","275","340337","0.0-1.0-381.0","0","0","81064","","null","","","null","42","NaN","","","","","","","","","","","","","","",""
"","S2","","html-keyboard-response","276","340593","0.0-1.0-382.0","0","0","81064","","null","","","null","42","","NaN","","","","","","","","","","","","","",""
"","response","","html-keyboard-response","277","341320","0.0-1.0-383.0-0.0","0","0","81064","","725","","","68","42","","","1","42","training","adjacent","BA","2","1","N.jpg","O.jpg","1","0","0","",""
"","feedback","","html-keyboard-response","278","342326","0.0-1.0-384.0-0.0","0","0","81064","","null","","","null","42","","","","","","","","","","","","","","","",""
"","time_out","","html-keyboard-response","279","344335","0.0-1.0-386.0-0.0","0","0","81064","","null","","","null","42","","","","","","","","","","","","","","","",""
"","ITI","","html-keyboard-response","280","345345","0.0-1.0-387.0","0","0","81064","","null","","","null","42","","","","","","","","","","","","","","","NaN",""
"","S1","","html-keyboard-response","281","345599","0.0-1.0-389.0","0","0","81064","","null","","","null","43","","","","","","","","","","","","","","","",""
"","ISI","","html-keyboard-response","282","346619","0.0-1.0-390.0","0","0","81064","","null","","","null","43","NaN","","","","","","","","","","","","","","",""
"","S2","","html-keyboard-response","283","346881","0.0-1.0-391.0","0","0","81064","","null","","","null","43","","NaN","","","","","","","","","","","","","",""
"","response","","html-keyboard-response","284","347257","0.0-1.0-392.0-0.0","0","0","81064","","375","","","75","43","","","1","43","training","adjacent","GF","7","6","Q.jpg","P.jpg","0","0","1","",""
"","feedback","","html-keyboard-response","285","348262","0.0-1.0-393.0-0.0","0","0","81064","","null","","","null","43","","","","","","","","","","","","","","","",""
"","ITI","","html-keyboard-response","286","349265","0.0-1.0-396.0","0","0","81064","","null","","","null","43","","","","","","","","","","","","","","","NaN",""
"","S1","","html-keyboard-response","287","349521","0.0-1.0-398.0","0","0","81064","","null","","","null","44","","","","","","","","","","","","","","","",""
"","ISI","","html-keyboard-response","288","350529","0.0-1.0-399.0","0","0","81064","","null","","","null","44","NaN","","","","","","","","","","","","","","",""
"","S2","","html-keyboard-response","289","350785","0.0-1.0-400.0","0","0","81064","","null","","","null","44","","NaN","","","","","","","","","","","","","",""
"","response","","html-keyboard-response","290","351476","0.0-1.0-401.0-0.0","0","0","81064","","688","","","68","44","","","1","44","training","adjacent","EF","5","6","R.jpg","P.jpg","1","1","1","",""
"","feedback","","html-keyboard-response","291","352479","0.0-1.0-402.0-0.0","0","0","81064","","null","","","null","44","","","","","","","","","","","","","","","",""
"","ITI","","html-keyboard-response","292","353487","0.0-1.0-405.0","0","0","81064","","null","","","null","44","","","","","","","","","","","","","","","NaN",""
"","S1","","html-keyboard-response","293","353743","0.0-1.0-407.0","0","0","81064","","null","","","null","45","","","","","","","","","","","","","","","",""
"","ISI","","html-keyboard-response","294","354753","0.0-1.0-408.0","0","0","81064","","null","","","null","45","NaN","","","","","","","","","","","","","","",""
"","S2","","html-keyboard-response","295","355009","0.0-1.0-409.0","0","0","81064","","null","","","null","45","","NaN","","","","","","","","","","","","","",""
"","response","","html-keyboard-response","296","355739","0.0-1.0-410.0-0.0","0","0","81064","","728","","","68","45","","","1","45","training","adjacent","ED","5","4","R.jpg","M.jpg","1","0","0","",""
"","feedback","","html-keyboard-response","297","356744","0.0-1.0-411.0-0.0","0","0","81064","","null","","","null","45","","","","","","","","","","","","","","","",""
"","time_out","","html-keyboard-response","298","358751","0.0-1.0-413.0-0.0","0","0","81064","","null","","","null","45","","","","","","","","","","","","","","","",""
"","ITI","","html-keyboard-response","299","359761","0.0-1.0-414.0","0","0","81064","","null","","","null","45","","","","","","","","","","","","","","","NaN",""
"","S1","","html-keyboard-response","300","360017","0.0-1.0-416.0","0","0","81064","","null","","","null","46","","","","","","","","","","","","","","","",""
"","ISI","","html-keyboard-response","301","361025","0.0-1.0-417.0","0","0","81064","","null","","","null","46","NaN","","","","","","","","","","","","","","",""
"","S2","","html-keyboard-response","302","361279","0.0-1.0-418.0","0","0","81064","","null","","","null","46","","NaN","","","","","","","","","","","","","",""
"","response","","html-keyboard-response","303","361457","0.0-1.0-419.0-0.0","0","0","81064","","176","","","75","46","","","1","46","training","adjacent","ED","5","4","R.jpg","M.jpg","0","0","1","",""
"","feedback","","html-keyboard-response","304","362463","0.0-1.0-420.0-0.0","0","0","81064","","null","","","null","46","","","","","","","","","","","","","","","",""
"","ITI","","html-keyboard-response","305","363470","0.0-1.0-423.0","0","0","81064","","null","","","null","46","","","","","","","","","","","","","","","NaN",""
"","S1","","html-keyboard-response","306","363729","0.0-1.0-425.0","0","0","81064","","null","","","null","47","","","","","","","","","","","","","","","",""
"","ISI","","html-keyboard-response","307","364737","0.0-1.0-426.0","0","0","81064","","null","","","null","47","NaN","","","","","","","","","","","","","","",""
"","S2","","html-keyboard-response","308","364991","0.0-1.0-427.0","0","0","81064","","null","","","null","47","","NaN","","","","","","","","","","","","","",""
"","response","","html-keyboard-response","309","365439","0.0-1.0-428.0-0.0","0","0","81064","","447","","","75","47","","","1","47","training","adjacent","GF","7","6","Q.jpg","P.jpg","0","0","1","",""
"","feedback","","html-keyboard-response","310","366447","0.0-1.0-429.0-0.0","0","0","81064","","null","","","null","47","","","","","","","","","","","","","","","",""
"","ITI","","html-keyboard-response","311","367455","0.0-1.0-432.0","0","0","81064","","null","","","null","47","","","","","","","","","","","","","","","NaN",""
"","block_over","","html-keyboard-response","312","375224","0.0-1.0-433.0-0.0","0","0","81064","","7765","","","32","47","","","","","","","","","","","","","","","",""
"","S1","","html-keyboard-response","313","375486","0.0-1.0-434.0","0","0","81064","","null","","","null","48","","","","","","","","","","","","","","","",""
"","ISI","","html-keyboard-response","314","376494","0.0-1.0-435.0","0","0","81064","","null","","","null","48","NaN","","","","","","","","","","","","","","",""
"","S2","","html-keyboard-response","315","376753","0.0-1.0-436.0","0","0","81064","","null","","","null","48","","NaN","","","","","","","","","","","","","",""
"","response","","html-keyboard-response","316","378032","0.0-1.0-437.0-0.0","0","0","81064","","1276","","","68","48","","","2","48","training","adjacent","FE","6","5","P.jpg","R.jpg","1","0","0","",""
"","feedback","","html-keyboard-response","317","379040","0.0-1.0-438.0-0.0","0","0","81064","","null","","","null","48","","","","","","","","","","","","","","","",""
"","time_out","","html-keyboard-response","318","381047","0.0-1.0-440.0-0.0","0","0","81064","","null","","","null","48","","","","","","","","","","","","","","","",""
"","ITI","","html-keyboard-response","319","382060","0.0-1.0-441.0","0","0","81064","","null","","","null","48","","","","","","","","","","","","","","","NaN",""
"","S1","","html-keyboard-response","320","382319","0.0-1.0-443.0","0","0","81064","","null","","","null","49","","","","","","","","","","","","","","","",""
"","ISI","","html-keyboard-response","321","383327","0.0-1.0-444.0","0","0","81064","","null","","","null","49","NaN","","","","","","","","","","","","","","",""
"","S2","","html-keyboard-response","322","383585","0.0-1.0-445.0","0","0","81064","","null","","","null","49","","NaN","","","","","","","","","","","","","",""
"","response","","html-keyboard-response","323","383764","0.0-1.0-446.0-0.0","0","0","81064","","178","","","75","49","","","2","49","training","adjacent","EF","5","6","R.jpg","P.jpg","0","1","0","",""
"","feedback","","html-keyboard-response","324","384767","0.0-1.0-447.0-0.0","0","0","81064","","null","","","null","49","","","","","","","","","","","","","","","",""
"","time_out","","html-keyboard-response","325","386774","0.0-1.0-449.0-0.0","0","0","81064","","null","","","null","49","","","","","","","","","","","","","","","",""
"","ITI","","html-keyboard-response","326","387777","0.0-1.0-450.0","0","0","81064","","null","","","null","49","","","","","","","","","","","","","","","NaN",""
"","S1","","html-keyboard-response","327","388033","0.0-1.0-452.0","0","0","81064","","null","","","null","50","","","","","","","","","","","","","","","",""
"","ISI","","html-keyboard-response","328","389038","0.0-1.0-453.0","0","0","81064","","null","","","null","50","NaN","","","","","","","","","","","","","","",""
"","S2","","html-keyboard-response","329","389297","0.0-1.0-454.0","0","0","81064","","null","","","null","50","","NaN","","","","","","","","","","","","","",""
"","response","","html-keyboard-response","330","389954","0.0-1.0-455.0-0.0","0","0","81064","","656","","","75","50","","","2","50","training","adjacent","AB","1","2","O.jpg","N.jpg","0","1","0","",""
"","feedback","","html-keyboard-response","331","390961","0.0-1.0-456.0-0.0","0","0","81064","","null","","","null","50","","","","","","","","","","","","","","","",""
"","time_out","","html-keyboard-response","332","392966","0.0-1.0-458.0-0.0","0","0","81064","","null","","","null","50","","","","","","","","","","","","","","","",""
"","ITI","","html-keyboard-response","333","393969","0.0-1.0-459.0","0","0","81064","","null","","","null","50","","","","","","","","","","","","","","","NaN",""
"","S1","","html-keyboard-response","334","394224","0.0-1.0-461.0","0","0","81064","","null","","","null","51","","","","","","","","","","","","","","","",""
"","ISI","","html-keyboard-response","335","395231","0.0-1.0-462.0","0","0","81064","","null","","","null","51","NaN","","","","","","","","","","","","","","",""
"","S2","","html-keyboard-response","336","395489","0.0-1.0-463.0","0","0","81064","","null","","","null","51","","NaN","","","","","","","","","","","","","",""
"","response","","html-keyboard-response","337","396097","0.0-1.0-464.0-0.0","0","0","81064","","607","","","75","51","","","2","51","training","adjacent","DC","4","3","M.jpg","L.jpg","0","0","1","",""
"","feedback","","html-keyboard-response","338","397105","0.0-1.0-465.0-0.0","0","0","81064","","null","","","null","51","","","","","","","","","","","","","","","",""
"","ITI","","html-keyboard-response","339","398113","0.0-1.0-468.0","0","0","81064","","null","","","null","51","","","","","","","","","","","","","","","NaN",""
"","S1","","html-keyboard-response","340","398366","0.0-1.0-470.0","0","0","81064","","null","","","null","52","","","","","","","","","","","","","","","",""
"","ISI","","html-keyboard-response","341","399376","0.0-1.0-471.0","0","0","81064","","null","","","null","52","NaN","","","","","","","","","","","","","","",""
"","S2","","html-keyboard-response","342","399632","0.0-1.0-472.0","0","0","81064","","null","","","null","52","","NaN","","","","","","","","","","","","","",""
"","response","","html-keyboard-response","343","400019","0.0-1.0-473.0-0.0","0","0","81064","","386","","","75","52","","","2","52","training","adjacent","FE","6","5","P.jpg","R.jpg","0","0","1","",""
"","feedback","","html-keyboard-response","344","401023","0.0-1.0-474.0-0.0","0","0","81064","","null","","","null","52","","","","","","","","","","","","","","","",""
"","ITI","","html-keyboard-response","345","402030","0.0-1.0-477.0","0","0","81064","","null","","","null","52","","","","","","","","","","","","","","","NaN",""
"","S1","","html-keyboard-response","346","402286","0.0-1.0-479.0","0","0","81064","","null","","","null","53","","","","","","","","","","","","","","","",""
"","ISI","","html-keyboard-response","347","403293","0.0-1.0-480.0","0","0","81064","","null","","","null","53","NaN","","","","","","","","","","","","","","",""
"","S2","","html-keyboard-response","348","403553","0.0-1.0-481.0","0","0","81064","","null","","","null","53","","NaN","","","","","","","","","","","","","",""
"","response","","html-keyboard-response","349","404423","0.0-1.0-482.0-0.0","0","0","81064","","869","","","75","53","","","2","53","training","adjacent","CB","3","2","L.jpg","N.jpg","0","0","1","",""
"","feedback","","html-keyboard-response","350","405430","0.0-1.0-483.0-0.0","0","0","81064","","null","","","null","53","","","","","","","","","","","","","","","",""
"","ITI","","html-keyboard-response","351","406437","0.0-1.0-486.0","0","0","81064","","null","","","null","53","","","","","","","","","","","","","","","NaN",""
"","S1","","html-keyboard-response","352","406694","0.0-1.0-488.0","0","0","81064","","null","","","null","54","","","","","","","","","","","","","","","",""
"","ISI","","html-keyboard-response","353","407696","0.0-1.0-489.0","0","0","81064","","null","","","null","54","NaN","","","","","","","","","","","","","","",""
"","S2","","html-keyboard-response","354","407953","0.0-1.0-490.0","0","0","81064","","null","","","null","54","","NaN","","","","","","","","","","","","","",""
"","response","","html-keyboard-response","355","408787","0.0-1.0-491.0-0.0","0","0","81064","","833","","","75","54","","","2","54","training","adjacent","DE","4","5","M.jpg","R.jpg","0","1","0","",""
"","feedback","","html-keyboard-response","356","409790","0.0-1.0-492.0-0.0","0","0","81064","","null","","","null","54","","","","","","","","","","","","","","","",""
"","time_out","","html-keyboard-response","357","411793","0.0-1.0-494.0-0.0","0","0","81064","","null","","","null","54","","","","","","","","","","","","","","","",""
"","ITI","","html-keyboard-response","358","412801","0.0-1.0-495.0","0","0","81064","","null","","","null","54","","","","","","","","","","","","","","","NaN",""
"","S1","","html-keyboard-response","359","413054","0.0-1.0-497.0","0","0","81064","","null","","","null","55","","","","","","","","","","","","","","","",""
"","ISI","","html-keyboard-response","360","414063","0.0-1.0-498.0","0","0","81064","","null","","","null","55","NaN","","","","","","","","","","","","","","",""
"","S2","","html-keyboard-response","361","414318","0.0-1.0-499.0","0","0","81064","","null","","","null","55","","NaN","","","","","","","","","","","","","",""
"","response","","html-keyboard-response","362","414973","0.0-1.0-500.0-0.0","0","0","81064","","654","","","75","55","","","2","55","training","adjacent","BC","2","3","N.jpg","L.jpg","0","1","0","",""
"","feedback","","html-keyboard-response","363","415984","0.0-1.0-501.0-0.0","0","0","81064","","null","","","null","55","","","","","","","","","","","","","","","",""
"","time_out","","html-keyboard-response","364","417990","0.0-1.0-503.0-0.0","0","0","81064","","null","","","null","55","","","","","","","","","","","","","","","",""
"","ITI","","html-keyboard-response","365","418997","0.0-1.0-504.0","0","0","81064","","null","","","null","55","","","","","","","","","","","","","","","NaN",""
"","S1","","html-keyboard-response","366","419254","0.0-1.0-506.0","0","0","81064","","null","","","null","56","","","","","","","","","","","","","","","",""
"","ISI","","html-keyboard-response","367","420262","0.0-1.0-507.0","0","0","81064","","null","","","null","56","NaN","","","","","","","","","","","","","","",""
"","S2","","html-keyboard-response","368","420517","0.0-1.0-508.0","0","0","81064","","null","","","null","56","","NaN","","","","","","","","","","","","","",""
"","response","","html-keyboard-response","369","421119","0.0-1.0-509.0-0.0","0","0","81064","","599","","","68","56","","","2","56","training","adjacent","FE","6","5","P.jpg","R.jpg","1","0","0","",""
"","feedback","","html-keyboard-response","370","422127","0.0-1.0-510.0-0.0","0","0","81064","","null","","","null","56","","","","","","","","","","","","","","","",""
"","time_out","","html-keyboard-response","371","424134","0.0-1.0-512.0-0.0","0","0","81064","","null","","","null","56","","","","","","","","","","","","","","","",""
"","ITI","","html-keyboard-response","372","425136","0.0-1.0-513.0","0","0","81064","","null","","","null","56","","","","","","","","","","","","","","","NaN",""
"","S1","","html-keyboard-response","373","425392","0.0-1.0-515.0","0","0","81064","","null","","","null","57","","","","","","","","","","","","","","","",""
"","ISI","","html-keyboard-response","374","426400","0.0-1.0-516.0","0","0","81064","","null","","","null","57","NaN","","","","","","","","","","","","","","",""
"","S2","","html-keyboard-response","375","426655","0.0-1.0-517.0","0","0","81064","","null","","","null","57","","NaN","","","","","","","","","","","","","",""
"","response","","html-keyboard-response","376","427070","0.0-1.0-518.0-0.0","0","0","81064","","413","","","68","57","","","2","57","training","adjacent","DE","4","5","M.jpg","R.jpg","1","1","1","",""
"","feedback","","html-keyboard-response","377","428080","0.0-1.0-519.0-0.0","0","0","81064","","null","","","null","57","","","","","","","","","","","","","","","",""
"","ITI","","html-keyboard-response","378","429088","0.0-1.0-522.0","0","0","81064","","null","","","null","57","","","","","","","","","","","","","","","NaN",""
"","S1","","html-keyboard-response","379","429344","0.0-1.0-524.0","0","0","81064","","null","","","null","58","","","","","","","","","","","","","","","",""
"","ISI","","html-keyboard-response","380","430351","0.0-1.0-525.0","0","0","81064","","null","","","null","58","NaN","","","","","","","","","","","","","","",""
"","S2","","html-keyboard-response","381","430606","0.0-1.0-526.0","0","0","81064","","null","","","null","58","","NaN","","","","","","","","","","","","","",""
"","response","","html-keyboard-response","382","431150","0.0-1.0-527.0-0.0","0","0","81064","","542","","","68","58","","","2","58","training","adjacent","FG","6","7","P.jpg","Q.jpg","1","1","1","",""
"","feedback","","html-keyboard-response","383","432160","0.0-1.0-528.0-0.0","0","0","81064","","null","","","null","58","","","","","","","","","","","","","","","",""
"","ITI","","html-keyboard-response","384","433168","0.0-1.0-531.0","0","0","81064","","null","","","null","58","","","","","","","","","","","","","","","NaN",""
"","S1","","html-keyboard-response","385","433424","0.0-1.0-533.0","0","0","81064","","null","","","null","59","","","","","","","","","","","","","","","",""
"","ISI","","html-keyboard-response","386","434432","0.0-1.0-534.0","0","0","81064","","null","","","null","59","NaN","","","","","","","","","","","","","","",""
"","S2","","html-keyboard-response","387","434688","0.0-1.0-535.0","0","0","81064","","null","","","null","59","","NaN","","","","","","","","","","","","","",""
"","response","","html-keyboard-response","388","435220","0.0-1.0-536.0-0.0","0","0","81064","","529","","","75","59","","","2","59","training","adjacent","DC","4","3","M.jpg","L.jpg","0","0","1","",""
"","feedback","","html-keyboard-response","389","436224","0.0-1.0-537.0-0.0","0","0","81064","","null","","","null","59","","","","","","","","","","","","","","","",""
"","ITI","","html-keyboard-response","390","437231","0.0-1.0-540.0","0","0","81064","","null","","","null","59","","","","","","","","","","","","","","","NaN",""
"","S1","","html-keyboard-response","391","437488","0.0-1.0-542.0","0","0","81064","","null","","","null","60","","","","","","","","","","","","","","","",""
"","ISI","","html-keyboard-response","392","438496","0.0-1.0-543.0","0","0","81064","","null","","","null","60","NaN","","","","","","","","","","","","","","",""
"","S2","","html-keyboard-response","393","438752","0.0-1.0-544.0","0","0","81064","","null","","","null","60","","NaN","","","","","","","","","","","","","",""
"","response","","html-keyboard-response","394","439288","0.0-1.0-545.0-0.0","0","0","81064","","534","","","75","60","","","2","60","training","adjacent","AB","1","2","O.jpg","N.jpg","0","1","0","",""
"","feedback","","html-keyboard-response","395","440293","0.0-1.0-546.0-0.0","0","0","81064","","null","","","null","60","","","","","","","","","","","","","","","",""
"","time_out","","html-keyboard-response","396","442304","0.0-1.0-548.0-0.0","0","0","81064","","null","","","null","60","","","","","","","","","","","","","","","",""
"","ITI","","html-keyboard-response","397","443309","0.0-1.0-549.0","0","0","81064","","null","","","null","60","","","","","","","","","","","","","","","NaN",""
"","S1","","html-keyboard-response","398","443568","0.0-1.0-551.0","0","0","81064","","null","","","null","61","","","","","","","","","","","","","","","",""
"","ISI","","html-keyboard-response","399","444575","0.0-1.0-552.0","0","0","81064","","null","","","null","61","NaN","","","","","","","","","","","","","","",""
"","S2","","html-keyboard-response","400","444832","0.0-1.0-553.0","0","0","81064","","null","","","null","61","","NaN","","","","","","","","","","","","","",""
"","response","","html-keyboard-response","401","445808","0.0-1.0-554.0-0.0","0","0","81064","","975","","","68","61","","","2","61","training","adjacent","BC","2","3","N.jpg","L.jpg","1","1","1","",""
"","feedback","","html-keyboard-response","402","446816","0.0-1.0-555.0-0.0","0","0","81064","","null","","","null","61","","","","","","","","","","","","","","","",""
"","ITI","","html-keyboard-response","403","447822","0.0-1.0-558.0","0","0","81064","","null","","","null","61","","","","","","","","","","","","","","","NaN",""
"","S1","","html-keyboard-response","404","448080","0.0-1.0-560.0","0","0","81064","","null","","","null","62","","","","","","","","","","","","","","","",""
"","ISI","","html-keyboard-response","405","449089","0.0-1.0-561.0","0","0","81064","","null","","","null","62","NaN","","","","","","","","","","","","","","",""
"","S2","","html-keyboard-response","406","449344","0.0-1.0-562.0","0","0","81064","","null","","","null","62","","NaN","","","","","","","","","","","","","",""
"","response","","html-keyboard-response","407","449712","0.0-1.0-563.0-0.0","0","0","81064","","367","","","75","62","","","2","62","training","adjacent","GF","7","6","Q.jpg","P.jpg","0","0","1","",""
"","feedback","","html-keyboard-response","408","450721","0.0-1.0-564.0-0.0","0","0","81064","","null","","","null","62","","","","","","","","","","","","","","","",""
"","ITI","","html-keyboard-response","409","451728","0.0-1.0-567.0","0","0","81064","","null","","","null","62","","","","","","","","","","","","","","","NaN",""
"","S1","","html-keyboard-response","410","451981","0.0-1.0-569.0","0","0","81064","","null","","","null","63","","","","","","","","","","","","","","","",""
"","ISI","","html-keyboard-response","411","452992","0.0-1.0-570.0","0","0","81064","","null","","","null","63","NaN","","","","","","","","","","","","","","",""
"","S2","","html-keyboard-response","412","453248","0.0-1.0-571.0","0","0","81064","","null","","","null","63","","NaN","","","","","","","","","","","","","",""
"","response","","html-keyboard-response","413","453825","0.0-1.0-572.0-0.0","0","0","81064","","576","","","75","63","","","2","63","training","adjacent","DC","4","3","M.jpg","L.jpg","0","0","1","",""
"","feedback","","html-keyboard-response","414","454830","0.0-1.0-573.0-0.0","0","0","81064","","null","","","null","63","","","","","","","","","","","","","","","",""
"","ITI","","html-keyboard-response","415","455839","0.0-1.0-576.0","0","0","81064","","null","","","null","63","","","","","","","","","","","","","","","NaN",""
"","S1","","html-keyboard-response","416","456094","0.0-1.0-578.0","0","0","81064","","null","","","null","64","","","","","","","","","","","","","","","",""
"","ISI","","html-keyboard-response","417","457104","0.0-1.0-579.0","0","0","81064","","null","","","null","64","NaN","","","","","","","","","","","","","","",""
"","S2","","html-keyboard-response","418","457360","0.0-1.0-580.0","0","0","81064","","null","","","null","64","","NaN","","","","","","","","","","","","","",""
"","response","","html-keyboard-response","419","457811","0.0-1.0-581.0-0.0","0","0","81064","","450","","","68","64","","","2","64","training","adjacent","EF","5","6","R.jpg","P.jpg","1","1","1","",""
"","feedback","","html-keyboard-response","420","458813","0.0-1.0-582.0-0.0","0","0","81064","","null","","","null","64","","","","","","","","","","","","","","","",""
"","ITI","","html-keyboard-response","421","459821","0.0-1.0-585.0","0","0","81064","","null","","","null","64","","","","","","","","","","","","","","","NaN",""
"","S1","","html-keyboard-response","422","460080","0.0-1.0-587.0","0","0","81064","","null","","","null","65","","","","","","","","","","","","","","","",""
"","ISI","","html-keyboard-response","423","461088","0.0-1.0-588.0","0","0","81064","","null","","","null","65","NaN","","","","","","","","","","","","","","",""
"","S2","","html-keyboard-response","424","461343","0.0-1.0-589.0","0","0","81064","","null","","","null","65","","NaN","","","","","","","","","","","","","",""
"","response","","html-keyboard-response","425","461898","0.0-1.0-590.0-0.0","0","0","81064","","554","","","75","65","","","2","65","training","adjacent","GF","7","6","Q.jpg","P.jpg","0","0","1","",""
"","feedback","","html-keyboard-response","426","462901","0.0-1.0-591.0-0.0","0","0","81064","","null","","","null","65","","","","","","","","","","","","","","","",""
"","ITI","","html-keyboard-response","427","463905","0.0-1.0-594.0","0","0","81064","","null","","","null","65","","","","","","","","","","","","","","","NaN",""
"","S1","","html-keyboard-response","428","464160","0.0-1.0-596.0","0","0","81064","","null","","","null","66","","","","","","","","","","","","","","","",""
"","ISI","","html-keyboard-response","429","465165","0.0-1.0-597.0","0","0","81064","","null","","","null","66","NaN","","","","","","","","","","","","","","",""
"","S2","","html-keyboard-response","430","465424","0.0-1.0-598.0","0","0","81064","","null","","","null","66","","NaN","","","","","","","","","","","","","",""
"","response","","html-keyboard-response","431","466705","0.0-1.0-599.0-0.0","0","0","81064","","1279","","","68","66","","","2","66","training","adjacent","BA","2","1","N.jpg","O.jpg","1","0","0","",""
"","feedback","","html-keyboard-response","432","467712","0.0-1.0-600.0-0.0","0","0","81064","","null","","","null","66","","","","","","","","","","","","","","","",""
"","time_out","","html-keyboard-response","433","469717","0.0-1.0-602.0-0.0","0","0","81064","","null","","","null","66","","","","","","","","","","","","","","","",""
"","ITI","","html-keyboard-response","434","470725","0.0-1.0-603.0","0","0","81064","","null","","","null","66","","","","","","","","","","","","","","","NaN",""
"","S1","","html-keyboard-response","435","470981","0.0-1.0-605.0","0","0","81064","","null","","","null","67","","","","","","","","","","","","","","","",""
"","ISI","","html-keyboard-response","436","471984","0.0-1.0-606.0","0","0","81064","","null","","","null","67","NaN","","","","","","","","","","","","","","",""
"","S2","","html-keyboard-response","437","472237","0.0-1.0-607.0","0","0","81064","","null","","","null","67","","NaN","","","","","","","","","","","","","",""
"","response","","html-keyboard-response","438","472685","0.0-1.0-608.0-0.0","0","0","81064","","447","","","68","67","","","2","67","training","adjacent","FG","6","7","P.jpg","Q.jpg","1","1","1","",""
"","feedback","","html-keyboard-response","439","473695","0.0-1.0-609.0-0.0","0","0","81064","","null","","","null","67","","","","","","","","","","","","","","","",""
"","ITI","","html-keyboard-response","440","474702","0.0-1.0-612.0","0","0","81064","","null","","","null","67","","","","","","","","","","","","","","","NaN",""
"","S1","","html-keyboard-response","441","474957","0.0-1.0-614.0","0","0","81064","","null","","","null","68","","","","","","","","","","","","","","","",""
"","ISI","","html-keyboard-response","442","475965","0.0-1.0-615.0","0","0","81064","","null","","","null","68","NaN","","","","","","","","","","","","","","",""
"","S2","","html-keyboard-response","443","476221","0.0-1.0-616.0","0","0","81064","","null","","","null","68","","NaN","","","","","","","","","","","","","",""
"","response","","html-keyboard-response","444","477027","0.0-1.0-617.0-0.0","0","0","81064","","805","","","75","68","","","2","68","training","adjacent","DC","4","3","M.jpg","L.jpg","0","0","1","",""
"","feedback","","html-keyboard-response","445","478029","0.0-1.0-618.0-0.0","0","0","81064","","null","","","null","68","","","","","","","","","","","","","","","",""
"","ITI","","html-keyboard-response","446","479036","0.0-1.0-621.0","0","0","81064","","null","","","null","68","","","","","","","","","","","","","","","NaN",""
"","S1","","html-keyboard-response","447","479296","0.0-1.0-623.0","0","0","81064","","null","","","null","69","","","","","","","","","","","","","","","",""
"","ISI","","html-keyboard-response","448","480301","0.0-1.0-624.0","0","0","81064","","null","","","null","69","NaN","","","","","","","","","","","","","","",""
"","S2","","html-keyboard-response","449","480560","0.0-1.0-625.0","0","0","81064","","null","","","null","69","","NaN","","","","","","","","","","","","","",""
"","response","","html-keyboard-response","450","481174","0.0-1.0-626.0-0.0","0","0","81064","","613","","","68","69","","","2","69","training","adjacent","FG","6","7","P.jpg","Q.jpg","1","1","1","",""
"","feedback","","html-keyboard-response","451","482181","0.0-1.0-627.0-0.0","0","0","81064","","null","","","null","69","","","","","","","","","","","","","","","",""
"","ITI","","html-keyboard-response","452","483189","0.0-1.0-630.0","0","0","81064","","null","","","null","69","","","","","","","","","","","","","","","NaN",""
"","S1","","html-keyboard-response","453","483445","0.0-1.0-632.0","0","0","81064","","null","","","null","70","","","","","","","","","","","","","","","",""
"","ISI","","html-keyboard-response","454","484448","0.0-1.0-633.0","0","0","81064","","null","","","null","70","NaN","","","","","","","","","","","","","","",""
"","S2","","html-keyboard-response","455","484701","0.0-1.0-634.0","0","0","81064","","null","","","null","70","","NaN","","","","","","","","","","","","","",""
"","response","","html-keyboard-response","456","485120","0.0-1.0-635.0-0.0","0","0","81064","","417","","","75","70","","","2","70","training","adjacent","CB","3","2","L.jpg","N.jpg","0","0","1","",""
"","feedback","","html-keyboard-response","457","486126","0.0-1.0-636.0-0.0","0","0","81064","","null","","","null","70","","","","","","","","","","","","","","","",""
"","ITI","","html-keyboard-response","458","487136","0.0-1.0-639.0","0","0","81064","","null","","","null","70","","","","","","","","","","","","","","","NaN",""
"","S1","","html-keyboard-response","459","487390","0.0-1.0-641.0","0","0","81064","","null","","","null","71","","","","","","","","","","","","","","","",""
"","ISI","","html-keyboard-response","460","488400","0.0-1.0-642.0","0","0","81064","","null","","","null","71","NaN","","","","","","","","","","","","","","",""
"","S2","","html-keyboard-response","461","488653","0.0-1.0-643.0","0","0","81064","","null","","","null","71","","NaN","","","","","","","","","","","","","",""
"","response","","html-keyboard-response","462","489297","0.0-1.0-644.0-0.0","0","0","81064","","642","","","75","71","","","2","71","training","adjacent","EF","5","6","R.jpg","P.jpg","0","1","0","",""
"","feedback","","html-keyboard-response","463","490303","0.0-1.0-645.0-0.0","0","0","81064","","null","","","null","71","","","","","","","","","","","","","","","",""
"","time_out","","html-keyboard-response","464","492308","0.0-1.0-647.0-0.0","0","0","81064","","null","","","null","71","","","","","","","","","","","","","","","",""
"","ITI","","html-keyboard-response","465","493317","0.0-1.0-648.0","0","0","81064","","null","","","null","71","","","","","","","","","","","","","","","NaN",""
"","S1","","html-keyboard-response","466","493573","0.0-1.0-650.0","0","0","81064","","null","","","null","72","","","","","","","","","","","","","","","",""
"","ISI","","html-keyboard-response","467","494576","0.0-1.0-651.0","0","0","81064","","null","","","null","72","NaN","","","","","","","","","","","","","","",""
"","S2","","html-keyboard-response","468","494830","0.0-1.0-652.0","0","0","81064","","null","","","null","72","","NaN","","","","","","","","","","","","","",""
"","response","","html-keyboard-response","469","495573","0.0-1.0-653.0-0.0","0","0","81064","","741","","","68","72","","","2","72","training","adjacent","CD","3","4","L.jpg","M.jpg","1","1","1","",""
"","feedback","","html-keyboard-response","470","496576","0.0-1.0-654.0-0.0","0","0","81064","","null","","","null","72","","","","","","","","","","","","","","","",""
"","ITI","","html-keyboard-response","471","497582","0.0-1.0-657.0","0","0","81064","","null","","","null","72","","","","","","","","","","","","","","","NaN",""
"","S1","","html-keyboard-response","472","497840","0.0-1.0-659.0","0","0","81064","","null","","","null","73","","","","","","","","","","","","","","","",""
"","ISI","","html-keyboard-response","473","498846","0.0-1.0-660.0","0","0","81064","","null","","","null","73","NaN","","","","","","","","","","","","","","",""
"","S2","","html-keyboard-response","474","499104","0.0-1.0-661.0","0","0","81064","","null","","","null","73","","NaN","","","","","","","","","","","","","",""
"","response","","html-keyboard-response","475","500013","0.0-1.0-662.0-0.0","0","0","81064","","908","","","75","73","","","2","73","training","adjacent","BA","2","1","N.jpg","O.jpg","0","0","1","",""
"","feedback","","html-keyboard-response","476","501023","0.0-1.0-663.0-0.0","0","0","81064","","null","","","null","73","","","","","","","","","","","","","","","",""
"","ITI","","html-keyboard-response","477","502031","0.0-1.0-666.0","0","0","81064","","null","","","null","73","","","","","","","","","","","","","","","NaN",""
"","S1","","html-keyboard-response","478","502287","0.0-1.0-668.0","0","0","81064","","null","","","null","74","","","","","","","","","","","","","","","",""
"","ISI","","html-keyboard-response","479","503293","0.0-1.0-669.0","0","0","81064","","null","","","null","74","NaN","","","","","","","","","","","","","","",""
"","S2","","html-keyboard-response","480","503551","0.0-1.0-670.0","0","0","81064","","null","","","null","74","","NaN","","","","","","","","","","","","","",""
"","response","","html-keyboard-response","481","504560","0.0-1.0-671.0-0.0","0","0","81064","","1008","","","68","74","","","2","74","training","adjacent","FE","6","5","P.jpg","R.jpg","1","0","0","",""
"","feedback","","html-keyboard-response","482","505567","0.0-1.0-672.0-0.0","0","0","81064","","null","","","null","74","","","","","","","","","","","","","","","",""
"","time_out","","html-keyboard-response","483","507573","0.0-1.0-674.0-0.0","0","0","81064","","null","","","null","74","","","","","","","","","","","","","","","",""
"","ITI","","html-keyboard-response","484","508581","0.0-1.0-675.0","0","0","81064","","null","","","null","74","","","","","","","","","","","","","","","NaN",""
"","S1","","html-keyboard-response","485","508837","0.0-1.0-677.0","0","0","81064","","null","","","null","75","","","","","","","","","","","","","","","",""
"","ISI","","html-keyboard-response","486","509839","0.0-1.0-678.0","0","0","81064","","null","","","null","75","NaN","","","","","","","","","","","","","","",""
"","S2","","html-keyboard-response","487","510093","0.0-1.0-679.0","0","0","81064","","null","","","null","75","","NaN","","","","","","","","","","","","","",""
"","response","","html-keyboard-response","488","510841","0.0-1.0-680.0-0.0","0","0","81064","","745","","","68","75","","","2","75","training","adjacent","ED","5","4","R.jpg","M.jpg","1","0","0","",""
"","feedback","","html-keyboard-response","489","511844","0.0-1.0-681.0-0.0","0","0","81064","","null","","","null","75","","","","","","","","","","","","","","","",""
"","time_out","","html-keyboard-response","490","513853","0.0-1.0-683.0-0.0","0","0","81064","","null","","","null","75","","","","","","","","","","","","","","","",""
"","ITI","","html-keyboard-response","491","514863","0.0-1.0-684.0","0","0","81064","","null","","","null","75","","","","","","","","","","","","","","","NaN",""
"","S1","","html-keyboard-response","492","515119","0.0-1.0-686.0","0","0","81064","","null","","","null","76","","","","","","","","","","","","","","","",""
"","ISI","","html-keyboard-response","493","516127","0.0-1.0-687.0","0","0","81064","","null","","","null","76","NaN","","","","","","","","","","","","","","",""
"","S2","","html-keyboard-response","494","516383","0.0-1.0-688.0","0","0","81064","","null","","","null","76","","NaN","","","","","","","","","","","","","",""
"","response","","html-keyboard-response","495","516965","0.0-1.0-689.0-0.0","0","0","81064","","581","","","68","76","","","2","76","training","adjacent","AB","1","2","O.jpg","N.jpg","1","1","1","",""
"","feedback","","html-keyboard-response","496","517973","0.0-1.0-690.0-0.0","0","0","81064","","null","","","null","76","","","","","","","","","","","","","","","",""
"","ITI","","html-keyboard-response","497","518980","0.0-1.0-693.0","0","0","81064","","null","","","null","76","","","","","","","","","","","","","","","NaN",""
"","S1","","html-keyboard-response","498","519236","0.0-1.0-695.0","0","0","81064","","null","","","null","77","","","","","","","","","","","","","","","",""
"","ISI","","html-keyboard-response","499","520244","0.0-1.0-696.0","0","0","81064","","null","","","null","77","NaN","","","","","","","","","","","","","","",""
"","S2","","html-keyboard-response","500","520501","0.0-1.0-697.0","0","0","81064","","null","","","null","77","","NaN","","","","","","","","","","","","","",""
"","response","","html-keyboard-response","501","521061","0.0-1.0-698.0-0.0","0","0","81064","","557","","","68","77","","","2","77","training","adjacent","FG","6","7","P.jpg","Q.jpg","1","1","1","",""
"","feedback","","html-keyboard-response","502","522068","0.0-1.0-699.0-0.0","0","0","81064","","null","","","null","77","","","","","","","","","","","","","","","",""
"","ITI","","html-keyboard-response","503","523076","0.0-1.0-702.0","0","0","81064","","null","","","null","77","","","","","","","","","","","","","","","NaN",""
"","S1","","html-keyboard-response","504","523332","0.0-1.0-704.0","0","0","81064","","null","","","null","78","","","","","","","","","","","","","","","",""
"","ISI","","html-keyboard-response","505","524340","0.0-1.0-705.0","0","0","81064","","null","","","null","78","NaN","","","","","","","","","","","","","","",""
"","S2","","html-keyboard-response","506","524596","0.0-1.0-706.0","0","0","81064","","null","","","null","78","","NaN","","","","","","","","","","","","","",""
"","response","","html-keyboard-response","507","525456","0.0-1.0-707.0-0.0","0","0","81064","","857","","","75","78","","","2","78","training","adjacent","DE","4","5","M.jpg","R.jpg","0","1","0","",""
"","feedback","","html-keyboard-response","508","526460","0.0-1.0-708.0-0.0","0","0","81064","","null","","","null","78","","","","","","","","","","","","","","","",""
"","time_out","","html-keyboard-response","509","528463","0.0-1.0-710.0-0.0","0","0","81064","","null","","","null","78","","","","","","","","","","","","","","","",""
"","ITI","","html-keyboard-response","510","529471","0.0-1.0-711.0","0","0","81064","","null","","","null","78","","","","","","","","","","","","","","","NaN",""
"","S1","","html-keyboard-response","511","529729","0.0-1.0-713.0","0","0","81064","","null","","","null","79","","","","","","","","","","","","","","","",""
"","ISI","","html-keyboard-response","512","530732","0.0-1.0-714.0","0","0","81064","","null","","","null","79","NaN","","","","","","","","","","","","","","",""
"","S2","","html-keyboard-response","513","530991","0.0-1.0-715.0","0","0","81064","","null","","","null","79","","NaN","","","","","","","","","","","","","",""
"","response","","html-keyboard-response","514","531800","0.0-1.0-716.0-0.0","0","0","81064","","807","","","75","79","","","2","79","training","adjacent","BA","2","1","N.jpg","O.jpg","0","0","1","",""
"","feedback","","html-keyboard-response","515","532804","0.0-1.0-717.0-0.0","0","0","81064","","null","","","null","79","","","","","","","","","","","","","","","",""
"","ITI","","html-keyboard-response","516","533812","0.0-1.0-720.0","0","0","81064","","null","","","null","79","","","","","","","","","","","","","","","NaN",""
"","S1","","html-keyboard-response","517","534068","0.0-1.0-722.0","0","0","81064","","null","","","null","80","","","","","","","","","","","","","","","",""
"","ISI","","html-keyboard-response","518","535071","0.0-1.0-723.0","0","0","81064","","null","","","null","80","NaN","","","","","","","","","","","","","","",""
"","S2","","html-keyboard-response","519","535327","0.0-1.0-724.0","0","0","81064","","null","","","null","80","","NaN","","","","","","","","","","","","","",""
"","response","","html-keyboard-response","520","535630","0.0-1.0-725.0-0.0","0","0","81064","","301","","","68","80","","","2","80","training","adjacent","AB","1","2","O.jpg","N.jpg","1","1","1","",""
"","feedback","","html-keyboard-response","521","536639","0.0-1.0-726.0-0.0","0","0","81064","","null","","","null","80","","","","","","","","","","","","","","","",""
"","ITI","","html-keyboard-response","522","537645","0.0-1.0-729.0","0","0","81064","","null","","","null","80","","","","","","","","","","","","","","","NaN",""
"","S1","","html-keyboard-response","523","537903","0.0-1.0-731.0","0","0","81064","","null","","","null","81","","","","","","","","","","","","","","","",""
"","ISI","","html-keyboard-response","524","538911","0.0-1.0-732.0","0","0","81064","","null","","","null","81","NaN","","","","","","","","","","","","","","",""
"","S2","","html-keyboard-response","525","539167","0.0-1.0-733.0","0","0","81064","","null","","","null","81","","NaN","","","","","","","","","","","","","",""
"","response","","html-keyboard-response","526","540231","0.0-1.0-734.0-0.0","0","0","81064","","1062","","","68","81","","","2","81","training","adjacent","ED","5","4","R.jpg","M.jpg","1","0","0","",""
"","feedback","","html-keyboard-response","527","541236","0.0-1.0-735.0-0.0","0","0","81064","","null","","","null","81","","","","","","","","","","","","","","","",""
"","time_out","","html-keyboard-response","528","543247","0.0-1.0-737.0-0.0","0","0","81064","","null","","","null","81","","","","","","","","","","","","","","","",""
"","ITI","","html-keyboard-response","529","544252","0.0-1.0-738.0","0","0","81064","","null","","","null","81","","","","","","","","","","","","","","","NaN",""
"","S1","","html-keyboard-response","530","544511","0.0-1.0-740.0","0","0","81064","","null","","","null","82","","","","","","","","","","","","","","","",""
"","ISI","","html-keyboard-response","531","545519","0.0-1.0-741.0","0","0","81064","","null","","","null","82","NaN","","","","","","","","","","","","","","",""
"","S2","","html-keyboard-response","532","545775","0.0-1.0-742.0","0","0","81064","","null","","","null","82","","NaN","","","","","","","","","","","","","",""
"","response","","html-keyboard-response","533","546691","0.0-1.0-743.0-0.0","0","0","81064","","914","","","68","82","","","2","82","training","adjacent","BC","2","3","N.jpg","L.jpg","1","1","1","",""
"","feedback","","html-keyboard-response","534","547700","0.0-1.0-744.0-0.0","0","0","81064","","null","","","null","82","","","","","","","","","","","","","","","",""
"","ITI","","html-keyboard-response","535","548703","0.0-1.0-747.0","0","0","81064","","null","","","null","82","","","","","","","","","","","","","","","NaN",""
"","S1","","html-keyboard-response","536","548959","0.0-1.0-749.0","0","0","81064","","null","","","null","83","","","","","","","","","","","","","","","",""
"","ISI","","html-keyboard-response","537","549966","0.0-1.0-750.0","0","0","81064","","null","","","null","83","NaN","","","","","","","","","","","","","","",""
"","S2","","html-keyboard-response","538","550220","0.0-1.0-751.0","0","0","81064","","null","","","null","83","","NaN","","","","","","","","","","","","","",""
"","response","","html-keyboard-response","539","550951","0.0-1.0-752.0-0.0","0","0","81064","","729","","","75","83","","","2","83","training","adjacent","CB","3","2","L.jpg","N.jpg","0","0","1","",""
"","feedback","","html-keyboard-response","540","551956","0.0-1.0-753.0-0.0","0","0","81064","","null","","","null","83","","","","","","","","","","","","","","","",""
"","ITI","","html-keyboard-response","541","552959","0.0-1.0-756.0","0","0","81064","","null","","","null","83","","","","","","","","","","","","","","","NaN",""
"","S1","","html-keyboard-response","542","553215","0.0-1.0-758.0","0","0","81064","","null","","","null","84","","","","","","","","","","","","","","","",""
"","ISI","","html-keyboard-response","543","554219","0.0-1.0-759.0","0","0","81064","","null","","","null","84","NaN","","","","","","","","","","","","","","",""
"","S2","","html-keyboard-response","544","554479","0.0-1.0-760.0","0","0","81064","","null","","","null","84","","NaN","","","","","","","","","","","","","",""
"","response","","html-keyboard-response","545","555057","0.0-1.0-761.0-0.0","0","0","81064","","576","","","68","84","","","2","84","training","adjacent","CD","3","4","L.jpg","M.jpg","1","1","1","",""
"","feedback","","html-keyboard-response","546","556063","0.0-1.0-762.0-0.0","0","0","81064","","null","","","null","84","","","","","","","","","","","","","","","",""
"","ITI","","html-keyboard-response","547","557071","0.0-1.0-765.0","0","0","81064","","null","","","null","84","","","","","","","","","","","","","","","NaN",""
"","S1","","html-keyboard-response","548","557327","0.0-1.0-767.0","0","0","81064","","null","","","null","85","","","","","","","","","","","","","","","",""
"","ISI","","html-keyboard-response","549","558335","0.0-1.0-768.0","0","0","81064","","null","","","null","85","NaN","","","","","","","","","","","","","","",""
"","S2","","html-keyboard-response","550","558591","0.0-1.0-769.0","0","0","81064","","null","","","null","85","","NaN","","","","","","","","","","","","","",""
"","response","","html-keyboard-response","551","559944","0.0-1.0-770.0-0.0","0","0","81064","","1351","","","75","85","","","2","85","training","adjacent","EF","5","6","R.jpg","P.jpg","0","1","0","",""
"","feedback","","html-keyboard-response","552","560948","0.0-1.0-771.0-0.0","0","0","81064","","null","","","null","85","","","","","","","","","","","","","","","",""
"","time_out","","html-keyboard-response","553","562956","0.0-1.0-773.0-0.0","0","0","81064","","null","","","null","85","","","","","","","","","","","","","","","",""
"","ITI","","html-keyboard-response","554","563967","0.0-1.0-774.0","0","0","81064","","null","","","null","85","","","","","","","","","","","","","","","NaN",""
"","S1","","html-keyboard-response","555","564222","0.0-1.0-776.0","0","0","81064","","null","","","null","86","","","","","","","","","","","","","","","",""
"","ISI","","html-keyboard-response","556","565230","0.0-1.0-777.0","0","0","81064","","null","","","null","86","NaN","","","","","","","","","","","","","","",""
"","S2","","html-keyboard-response","557","565487","0.0-1.0-778.0","0","0","81064","","null","","","null","86","","NaN","","","","","","","","","","","","","",""
"","response","","html-keyboard-response","558","566059","0.0-1.0-779.0-0.0","0","0","81064","","570","","","68","86","","","2","86","training","adjacent","CD","3","4","L.jpg","M.jpg","1","1","1","",""
"","feedback","","html-keyboard-response","559","567068","0.0-1.0-780.0-0.0","0","0","81064","","null","","","null","86","","","","","","","","","","","","","","","",""
"","ITI","","html-keyboard-response","560","568076","0.0-1.0-783.0","0","0","81064","","null","","","null","86","","","","","","","","","","","","","","","NaN",""
"","S1","","html-keyboard-response","561","568334","0.0-1.0-785.0","0","0","81064","","null","","","null","87","","","","","","","","","","","","","","","",""
"","ISI","","html-keyboard-response","562","569340","0.0-1.0-786.0","0","0","81064","","null","","","null","87","NaN","","","","","","","","","","","","","","",""
"","S2","","html-keyboard-response","563","569596","0.0-1.0-787.0","0","0","81064","","null","","","null","87","","NaN","","","","","","","","","","","","","",""
"","response","","html-keyboard-response","564","570619","0.0-1.0-788.0-0.0","0","0","81064","","1020","","","68","87","","","2","87","training","adjacent","BA","2","1","N.jpg","O.jpg","1","0","0","",""
"","feedback","","html-keyboard-response","565","571629","0.0-1.0-789.0-0.0","0","0","81064","","null","","","null","87","","","","","","","","","","","","","","","",""
"","time_out","","html-keyboard-response","566","573636","0.0-1.0-791.0-0.0","0","0","81064","","null","","","null","87","","","","","","","","","","","","","","","",""
"","ITI","","html-keyboard-response","567","574639","0.0-1.0-792.0","0","0","81064","","null","","","null","87","","","","","","","","","","","","","","","NaN",""
"","S1","","html-keyboard-response","568","574894","0.0-1.0-794.0","0","0","81064","","null","","","null","88","","","","","","","","","","","","","","","",""
"","ISI","","html-keyboard-response","569","575903","0.0-1.0-795.0","0","0","81064","","null","","","null","88","NaN","","","","","","","","","","","","","","",""
"","S2","","html-keyboard-response","570","576158","0.0-1.0-796.0","0","0","81064","","null","","","null","88","","NaN","","","","","","","","","","","","","",""
"","response","","html-keyboard-response","571","576548","0.0-1.0-797.0-0.0","0","0","81064","","388","","","75","88","","","2","88","training","adjacent","GF","7","6","Q.jpg","P.jpg","0","0","1","",""
"","feedback","","html-keyboard-response","572","577556","0.0-1.0-798.0-0.0","0","0","81064","","null","","","null","88","","","","","","","","","","","","","","","",""
"","ITI","","html-keyboard-response","573","578564","0.0-1.0-801.0","0","0","81064","","null","","","null","88","","","","","","","","","","","","","","","NaN",""
"","S1","","html-keyboard-response","574","578820","0.0-1.0-803.0","0","0","81064","","null","","","null","89","","","","","","","","","","","","","","","",""
"","ISI","","html-keyboard-response","575","579823","0.0-1.0-804.0","0","0","81064","","null","","","null","89","NaN","","","","","","","","","","","","","","",""
"","S2","","html-keyboard-response","576","580076","0.0-1.0-805.0","0","0","81064","","null","","","null","89","","NaN","","","","","","","","","","","","","",""
"","response","","html-keyboard-response","577","581548","0.0-1.0-806.0-0.0","0","0","81064","","1469","","","75","89","","","2","89","training","adjacent","ED","5","4","R.jpg","M.jpg","0","0","1","",""
"","feedback","","html-keyboard-response","578","582556","0.0-1.0-807.0-0.0","0","0","81064","","null","","","null","89","","","","","","","","","","","","","","","",""
"","ITI","","html-keyboard-response","579","583565","0.0-1.0-810.0","0","0","81064","","null","","","null","89","","","","","","","","","","","","","","","NaN",""
"","S1","","html-keyboard-response","580","583822","0.0-1.0-812.0","0","0","81064","","null","","","null","90","","","","","","","","","","","","","","","",""
"","ISI","","html-keyboard-response","581","584830","0.0-1.0-813.0","0","0","81064","","null","","","null","90","NaN","","","","","","","","","","","","","","",""
"","S2","","html-keyboard-response","582","585086","0.0-1.0-814.0","0","0","81064","","null","","","null","90","","NaN","","","","","","","","","","","","","",""
