"success","ttype","start_time","trial_type","trial_index","time_elapsed","internal_node_id","warning","missed_checkup","PID","view_history","rt","responses","repeat_instructions","key_press","index","keypress_isi","keypress_S2","block","trial_num","phase","group_type","pair_type","S1_stim","S2_stim","S1_img","S2_img","S1_chosen","S1_higher","accuracy","keypress_iti","total_bonus_tally"
"true","full_screen","d04142023hr1445","fullscreen","0","47343","0.0-0.0","0","0","22357","","","","","","","","","","","","","","","","","","","","","",""
"","instructions","","instructions","1","151612","0.0-1.0-0.0-0.0","0","0","22357","[{""page_index"":0,""viewing_time"":2827},{""page_index"":1,""viewing_time"":21438},{""page_index"":2,""viewing_time"":78195},{""page_index"":3,""viewing_time"":1806}]","104266","","","","","","","","","","","","","","","","","","","",""
"","comprehension_check","","survey-multi-choice","2","172232","0.0-1.0-0.0-1.0","0","0","22357","","20615","{""Q0"":""True"",""Q1"":""K"",""Q2"":""Once the second image appears and while the screen 'MAKE A CHOICE' is shown"",""Q3"":""Green mark"",""Q4"":""either D or K""}","0","","","","","","","","","","","","","","","","","",""
"","start_exp","","html-keyboard-response","3","174378","0.0-1.0-1.0","0","0","22357","","2141","","","32","","","","","","","","","","","","","","","","",""
"","S1","","html-keyboard-response","4","174631","0.0-1.0-2.0","0","0","22357","","null","","","null","0","","","","","","","","","","","","","","","",""
"","ISI","","html-keyboard-response","5","175633","0.0-1.0-3.0","0","0","22357","","null","","","null","0","NaN","","","","","","","","","","","","","","",""
"","S2","","html-keyboard-response","6","175887","0.0-1.0-4.0","0","0","22357","","null","","","null","0","","NaN","","","","","","","","","","","","","",""
"","response","","html-keyboard-response","7","177024","0.0-1.0-5.0-0.0","0","0","22357","","1134","","","75","0","","","1","0","training","adjacent","BC","2","3","Q.jpg","L.jpg","1","1","1","",""
"","feedback","","html-keyboard-response","8","178029","0.0-1.0-6.0-0.0","0","0","22357","","null","","","null","0","","","","","","","","","","","","","","","",""
"","ITI","","html-keyboard-response","9","179033","0.0-1.0-9.0","0","0","22357","","null","","","null","0","","","","","","","","","","","","","","","NaN",""
"","S1","","html-keyboard-response","10","179285","0.0-1.0-11.0","0","0","22357","","null","","","null","1","","","","","","","","","","","","","","","",""
"","ISI","","html-keyboard-response","11","180288","0.0-1.0-12.0","0","0","22357","","null","","","null","1","NaN","","","","","","","","","","","","","","",""
"","S2","","html-keyboard-response","12","180541","0.0-1.0-13.0","0","0","22357","","null","","","null","1","","NaN","","","","","","","","","","","","","",""
"","response","","html-keyboard-response","13","181257","0.0-1.0-14.0-0.0","0","0","22357","","713","","","68","1","","","1","1","training","adjacent","EF","5","6","R.jpg","O.jpg","0","1","0","",""
"","feedback","","html-keyboard-response","14","182260","0.0-1.0-15.0-0.0","0","0","22357","","null","","","null","1","","","","","","","","","","","","","","","",""
"","time_out","","html-keyboard-response","15","184263","0.0-1.0-17.0-0.0","0","0","22357","","null","","","null","1","","","","","","","","","","","","","","","",""
"","ITI","","html-keyboard-response","16","185265","0.0-1.0-18.0","0","0","22357","","null","","","null","1","","","","","","","","","","","","","","","NaN",""
"","S1","","html-keyboard-response","17","185518","0.0-1.0-20.0","0","0","22357","","null","","","null","2","","","","","","","","","","","","","","","",""
"","ISI","","html-keyboard-response","18","186522","0.0-1.0-21.0","0","0","22357","","null","","","null","2","NaN","","","","","","","","","","","","","","",""
"","S2","","html-keyboard-response","19","186774","0.0-1.0-22.0","0","0","22357","","null","","","null","2","","NaN","","","","","","","","","","","","","",""
"","response","","html-keyboard-response","20","187316","0.0-1.0-23.0-0.0","0","0","22357","","540","","","68","2","","","1","2","training","adjacent","AB","1","2","M.jpg","Q.jpg","0","1","0","",""
"","feedback","","html-keyboard-response","21","188319","0.0-1.0-24.0-0.0","0","0","22357","","null","","","null","2","","","","","","","","","","","","","","","",""
"","time_out","","html-keyboard-response","22","190322","0.0-1.0-26.0-0.0","0","0","22357","","null","","","null","2","","","","","","","","","","","","","","","",""
"","ITI","","html-keyboard-response","23","191325","0.0-1.0-27.0","0","0","22357","","null","","","null","2","","","","","","","","","","","","","","","NaN",""
"","S1","","html-keyboard-response","24","191578","0.0-1.0-29.0","0","0","22357","","null","","","null","3","","","","","","","","","","","","","","","",""
"","ISI","","html-keyboard-response","25","192580","0.0-1.0-30.0","0","0","22357","","null","","","null","3","NaN","","","","","","","","","","","","","","",""
"","S2","","html-keyboard-response","26","192833","0.0-1.0-31.0","0","0","22357","","null","","","null","3","","NaN","","","","","","","","","","","","","",""
"","response","","html-keyboard-response","27","193073","0.0-1.0-32.0-0.0","0","0","22357","","238","","","68","3","","","1","3","training","adjacent","FE","6","5","O.jpg","R.jpg","0","0","1","",""
"","feedback","","html-keyboard-response","28","194076","0.0-1.0-33.0-0.0","0","0","22357","","null","","","null","3","","","","","","","","","","","","","","","",""
"","ITI","","html-keyboard-response","29","195078","0.0-1.0-36.0","0","0","22357","","null","","","null","3","","","","","","","","","","","","","","","NaN",""
"","S1","","html-keyboard-response","30","195331","0.0-1.0-38.0","0","0","22357","","null","","","null","4","","","","","","","","","","","","","","","",""
"","ISI","","html-keyboard-response","31","196334","0.0-1.0-39.0","0","0","22357","","null","","","null","4","NaN","","","","","","","","","","","","","","",""
"","S2","","html-keyboard-response","32","196587","0.0-1.0-40.0","0","0","22357","","null","","","null","4","","NaN","","","","","","","","","","","","","",""
"","response","","html-keyboard-response","33","197317","0.0-1.0-41.0-0.0","0","0","22357","","729","","","68","4","","","1","4","training","adjacent","CD","3","4","L.jpg","N.jpg","0","1","0","",""
"","feedback","","html-keyboard-response","34","198320","0.0-1.0-42.0-0.0","0","0","22357","","null","","","null","4","","","","","","","","","","","","","","","",""
"","time_out","","html-keyboard-response","35","200323","0.0-1.0-44.0-0.0","0","0","22357","","null","","","null","4","","","","","","","","","","","","","","","",""
"","ITI","","html-keyboard-response","36","201326","0.0-1.0-45.0","0","0","22357","","null","","","null","4","","","","","","","","","","","","","","","NaN",""
"","S1","","html-keyboard-response","37","201579","0.0-1.0-47.0","0","0","22357","","null","","","null","5","","","","","","","","","","","","","","","",""
"","ISI","","html-keyboard-response","38","202581","0.0-1.0-48.0","0","0","22357","","null","","","null","5","NaN","","","","","","","","","","","","","","",""
"","S2","","html-keyboard-response","39","202833","0.0-1.0-49.0","0","0","22357","","null","","","null","5","","NaN","","","","","","","","","","","","","",""
"","response","","html-keyboard-response","40","202918","0.0-1.0-50.0-0.0","0","0","22357","","83","","","75","5","","","1","5","training","adjacent","DE","4","5","N.jpg","R.jpg","1","1","1","",""
"","feedback","","html-keyboard-response","41","203920","0.0-1.0-51.0-0.0","0","0","22357","","null","","","null","5","","","","","","","","","","","","","","","",""
"","ITI","","html-keyboard-response","42","204924","0.0-1.0-54.0","0","0","22357","","null","","","null","5","","","","","","","","","","","","","","","NaN",""
"","S1","","html-keyboard-response","43","205176","0.0-1.0-56.0","0","0","22357","","null","","","null","6","","","","","","","","","","","","","","","",""
"","ISI","","html-keyboard-response","44","206178","0.0-1.0-57.0","0","0","22357","","null","","","null","6","NaN","","","","","","","","","","","","","","",""
"","S2","","html-keyboard-response","45","206431","0.0-1.0-58.0","0","0","22357","","null","","","null","6","","NaN","","","","","","","","","","","","","",""
"","response","","html-keyboard-response","46","206662","0.0-1.0-59.0-0.0","0","0","22357","","228","","","68","6","","","1","6","training","adjacent","DE","4","5","N.jpg","R.jpg","0","1","0","",""
"","feedback","","html-keyboard-response","47","207664","0.0-1.0-60.0-0.0","0","0","22357","","null","","","null","6","","","","","","","","","","","","","","","",""
"","time_out","","html-keyboard-response","48","209666","0.0-1.0-62.0-0.0","0","0","22357","","null","","","null","6","","","","","","","","","","","","","","","",""
"","ITI","","html-keyboard-response","49","210669","0.0-1.0-63.0","0","0","22357","","null","","","null","6","","","","","","","","","","","","","","","NaN",""
"","S1","","html-keyboard-response","50","210921","0.0-1.0-65.0","0","0","22357","","null","","","null","7","","","","","","","","","","","","","","","",""
"","ISI","","html-keyboard-response","51","211924","0.0-1.0-66.0","0","0","22357","","null","","","null","7","NaN","","","","","","","","","","","","","","",""
"","S2","","html-keyboard-response","52","212176","0.0-1.0-67.0","0","0","22357","","null","","","null","7","","NaN","","","","","","","","","","","","","",""
"","response","","html-keyboard-response","53","212648","0.0-1.0-68.0-0.0","0","0","22357","","470","","","68","7","","","1","7","training","adjacent","CD","3","4","L.jpg","N.jpg","0","1","0","",""
"","feedback","","html-keyboard-response","54","213651","0.0-1.0-69.0-0.0","0","0","22357","","null","","","null","7","","","","","","","","","","","","","","","",""
"","time_out","","html-keyboard-response","55","215654","0.0-1.0-71.0-0.0","0","0","22357","","null","","","null","7","","","","","","","","","","","","","","","",""
"","ITI","","html-keyboard-response","56","216657","0.0-1.0-72.0","0","0","22357","","null","","","null","7","","","","","","","","","","","","","","","NaN",""
"","S1","","html-keyboard-response","57","216908","0.0-1.0-74.0","0","0","22357","","null","","","null","8","","","","","","","","","","","","","","","",""
"","ISI","","html-keyboard-response","58","217909","0.0-1.0-75.0","0","0","22357","","null","","","null","8","NaN","","","","","","","","","","","","","","",""
"","S2","","html-keyboard-response","59","218162","0.0-1.0-76.0","0","0","22357","","null","","","null","8","","NaN","","","","","","","","","","","","","",""
"","response","","html-keyboard-response","60","218393","0.0-1.0-77.0-0.0","0","0","22357","","228","","","68","8","","","1","8","training","adjacent","GF","7","6","P.jpg","O.jpg","0","0","1","",""
"","feedback","","html-keyboard-response","61","219396","0.0-1.0-78.0-0.0","0","0","22357","","null","","","null","8","","","","","","","","","","","","","","","",""
"","ITI","","html-keyboard-response","62","220399","0.0-1.0-81.0","0","0","22357","","null","","","null","8","","","","","","","","","","","","","","","NaN",""
"","S1","","html-keyboard-response","63","220652","0.0-1.0-83.0","0","0","22357","","null","","","null","9","","","","","","","","","","","","","","","",""
"","ISI","","html-keyboard-response","64","221654","0.0-1.0-84.0","0","0","22357","","null","","","null","9","NaN","","","","","","","","","","","","","","",""
"","S2","","html-keyboard-response","65","221907","0.0-1.0-85.0","0","0","22357","","null","","","null","9","","NaN","","","","","","","","","","","","","",""
"","response","","html-keyboard-response","66","222116","0.0-1.0-86.0-0.0","0","0","22357","","208","","","75","9","","","1","9","training","adjacent","BA","2","1","Q.jpg","M.jpg","1","0","0","",""
"","feedback","","html-keyboard-response","67","223120","0.0-1.0-87.0-0.0","0","0","22357","","null","","","null","9","","","","","","","","","","","","","","","",""
"","time_out","","html-keyboard-response","68","225122","0.0-1.0-89.0-0.0","0","0","22357","","null","","","null","9","","","","","","","","","","","","","","","",""
"","ITI","","html-keyboard-response","69","226125","0.0-1.0-90.0","0","0","22357","","null","","","null","9","","","","","","","","","","","","","","","NaN",""
"","S1","","html-keyboard-response","70","226378","0.0-1.0-92.0","0","0","22357","","null","","","null","10","","","","","","","","","","","","","","","",""
"","ISI","","html-keyboard-response","71","227380","0.0-1.0-93.0","0","0","22357","","null","","","null","10","NaN","","","","","","","","","","","","","","",""
"","S2","","html-keyboard-response","72","227633","0.0-1.0-94.0","0","0","22357","","null","","","null","10","","NaN","","","","","","","","","","","","","",""
"","response","","html-keyboard-response","73","227676","0.0-1.0-95.0-0.0","0","0","22357","","41","","","75","10","","","1","10","training","adjacent","AB","1","2","M.jpg","Q.jpg","1","1","1","",""
"","feedback","","html-keyboard-response","74","228678","0.0-1.0-96.0-0.0","0","0","22357","","null","","","null","10","","","","","","","","","","","","","","","",""
"","ITI","","html-keyboard-response","75","229681","0.0-1.0-99.0","0","0","22357","","null","","","null","10","","","","","","","","","","","","","","","NaN",""
"","S1","","html-keyboard-response","76","229934","0.0-1.0-101.0","0","0","22357","","null","","","null","11","","","","","","","","","","","","","","","",""
"","ISI","","html-keyboard-response","77","230937","0.0-1.0-102.0","0","0","22357","","null","","","null","11","NaN","","","","","","","","","","","","","","",""
"","S2","","html-keyboard-response","78","231189","0.0-1.0-103.0","0","0","22357","","null","","","null","11","","NaN","","","","","","","","","","","","","",""
"","response","","html-keyboard-response","79","231965","0.0-1.0-104.0-0.0","0","0","22357","","774","","","68","11","","","1","11","training","adjacent","BA","2","1","Q.jpg","M.jpg","0","0","1","",""
"","feedback","","html-keyboard-response","80","232970","0.0-1.0-105.0-0.0","0","0","22357","","null","","","null","11","","","","","","","","","","","","","","","",""
"","ITI","","html-keyboard-response","81","233972","0.0-1.0-108.0","0","0","22357","","null","","","null","11","","","","","","","","","","","","","","","NaN",""
"","S1","","html-keyboard-response","82","234225","0.0-1.0-110.0","0","0","22357","","null","","","null","12","","","","","","","","","","","","","","","",""
"","ISI","","html-keyboard-response","83","235227","0.0-1.0-111.0","0","0","22357","","null","","","null","12","NaN","","","","","","","","","","","","","","",""
"","S2","","html-keyboard-response","84","235480","0.0-1.0-112.0","0","0","22357","","null","","","null","12","","NaN","","","","","","","","","","","","","",""
"","response","","html-keyboard-response","85","236064","0.0-1.0-113.0-0.0","0","0","22357","","583","","","75","12","","","1","12","training","adjacent","FG","6","7","O.jpg","P.jpg","1","1","1","",""
"","feedback","","html-keyboard-response","86","237068","0.0-1.0-114.0-0.0","0","0","22357","","null","","","null","12","","","","","","","","","","","","","","","",""
"","ITI","","html-keyboard-response","87","238070","0.0-1.0-117.0","0","0","22357","","null","","","null","12","","","","","","","","","","","","","","","NaN",""
"","S1","","html-keyboard-response","88","238323","0.0-1.0-119.0","0","0","22357","","null","","","null","13","","","","","","","","","","","","","","","",""
"","ISI","","html-keyboard-response","89","239325","0.0-1.0-120.0","0","0","22357","","null","","","null","13","NaN","","","","","","","","","","","","","","",""
"","S2","","html-keyboard-response","90","239578","0.0-1.0-121.0","0","0","22357","","null","","","null","13","","NaN","","","","","","","","","","","","","",""
"","response","","html-keyboard-response","91","239607","0.0-1.0-122.0-0.0","0","0","22357","","28","","","75","13","","","1","13","training","adjacent","ED","5","4","R.jpg","N.jpg","1","0","0","",""
"","feedback","","html-keyboard-response","92","240610","0.0-1.0-123.0-0.0","0","0","22357","","null","","","null","13","","","","","","","","","","","","","","","",""
"","time_out","","html-keyboard-response","93","242613","0.0-1.0-125.0-0.0","0","0","22357","","null","","","null","13","","","","","","","","","","","","","","","",""
"","ITI","","html-keyboard-response","94","243614","0.0-1.0-126.0","0","0","22357","","null","","","null","13","","","","","","","","","","","","","","","NaN",""
"","S1","","html-keyboard-response","95","243867","0.0-1.0-128.0","0","0","22357","","null","","","null","14","","","","","","","","","","","","","","","",""
"","ISI","","html-keyboard-response","96","244868","0.0-1.0-129.0","0","0","22357","","null","","","null","14","NaN","","","","","","","","","","","","","","",""
"","S2","","html-keyboard-response","97","245122","0.0-1.0-130.0","0","0","22357","","null","","","null","14","","NaN","","","","","","","","","","","","","",""
"","response","","html-keyboard-response","98","245637","0.0-1.0-131.0-0.0","0","0","22357","","514","","","75","14","","","1","14","training","adjacent","BC","2","3","Q.jpg","L.jpg","1","1","1","",""
"","feedback","","html-keyboard-response","99","246640","0.0-1.0-132.0-0.0","0","0","22357","","null","","","null","14","","","","","","","","","","","","","","","",""
"","ITI","","html-keyboard-response","100","247642","0.0-1.0-135.0","0","0","22357","","null","","","null","14","","","","","","","","","","","","","","","NaN",""
"","S1","","html-keyboard-response","101","247895","0.0-1.0-137.0","0","0","22357","","null","","","null","15","","","","","","","","","","","","","","","",""
"","ISI","","html-keyboard-response","102","248897","0.0-1.0-138.0","0","0","22357","","null","","","null","15","NaN","","","","","","","","","","","","","","",""
"","S2","","html-keyboard-response","103","249151","0.0-1.0-139.0","0","0","22357","","null","","","null","15","","NaN","","","","","","","","","","","","","",""
"","response","","html-keyboard-response","104","250428","0.0-1.0-140.0-0.0","0","0","22357","","1275","","","68","15","","","1","15","training","adjacent","DC","4","3","N.jpg","L.jpg","0","0","1","",""
"","feedback","","html-keyboard-response","105","251432","0.0-1.0-141.0-0.0","0","0","22357","","null","","","null","15","","","","","","","","","","","","","","","",""
"","ITI","","html-keyboard-response","106","252434","0.0-1.0-144.0","0","0","22357","","null","","","null","15","","","","","","","","","","","","","","","NaN",""
"","S1","","html-keyboard-response","107","252687","0.0-1.0-146.0","0","0","22357","","null","","","null","16","","","","","","","","","","","","","","","",""
"","ISI","","html-keyboard-response","108","253689","0.0-1.0-147.0","0","0","22357","","null","","","null","16","NaN","","","","","","","","","","","","","","",""
"","S2","","html-keyboard-response","109","253943","0.0-1.0-148.0","0","0","22357","","null","","","null","16","","NaN","","","","","","","","","","","","","",""
"","response","","html-keyboard-response","110","255053","0.0-1.0-149.0-0.0","0","0","22357","","1108","","","68","16","","","1","16","training","adjacent","FE","6","5","O.jpg","R.jpg","0","0","1","",""
"","feedback","","html-keyboard-response","111","256056","0.0-1.0-150.0-0.0","0","0","22357","","null","","","null","16","","","","","","","","","","","","","","","",""
"","ITI","","html-keyboard-response","112","257060","0.0-1.0-153.0","0","0","22357","","null","","","null","16","","","","","","","","","","","","","","","NaN",""
"","S1","","html-keyboard-response","113","257313","0.0-1.0-155.0","0","0","22357","","null","","","null","17","","","","","","","","","","","","","","","",""
"","ISI","","html-keyboard-response","114","258317","0.0-1.0-156.0","0","0","22357","","null","","","null","17","NaN","","","","","","","","","","","","","","",""
"","S2","","html-keyboard-response","115","258570","0.0-1.0-157.0","0","0","22357","","null","","","null","17","","NaN","","","","","","","","","","","","","",""
"","response","","html-keyboard-response","116","259178","0.0-1.0-158.0-0.0","0","0","22357","","606","","","75","17","","","1","17","training","adjacent","BC","2","3","Q.jpg","L.jpg","1","1","1","",""
"","feedback","","html-keyboard-response","117","260180","0.0-1.0-159.0-0.0","0","0","22357","","null","","","null","17","","","","","","","","","","","","","","","",""
"","ITI","","html-keyboard-response","118","261182","0.0-1.0-162.0","0","0","22357","","null","","","null","17","","","","","","","","","","","","","","","NaN",""
"","S1","","html-keyboard-response","119","261436","0.0-1.0-164.0","0","0","22357","","null","","","null","18","","","","","","","","","","","","","","","",""
"","ISI","","html-keyboard-response","120","262439","0.0-1.0-165.0","0","0","22357","","null","","","null","18","NaN","","","","","","","","","","","","","","",""
"","S2","","html-keyboard-response","121","262691","0.0-1.0-166.0","0","0","22357","","null","","","null","18","","NaN","","","","","","","","","","","","","",""
"","response","","html-keyboard-response","122","263530","0.0-1.0-167.0-0.0","0","0","22357","","838","","","68","18","","","1","18","training","adjacent","FE","6","5","O.jpg","R.jpg","0","0","1","",""
"","feedback","","html-keyboard-response","123","264534","0.0-1.0-168.0-0.0","0","0","22357","","null","","","null","18","","","","","","","","","","","","","","","",""
"","ITI","","html-keyboard-response","124","265537","0.0-1.0-171.0","0","0","22357","","null","","","null","18","","","","","","","","","","","","","","","NaN",""
"","S1","","html-keyboard-response","125","265789","0.0-1.0-173.0","0","0","22357","","null","","","null","19","","","","","","","","","","","","","","","",""
"","ISI","","html-keyboard-response","126","266792","0.0-1.0-174.0","0","0","22357","","null","","","null","19","NaN","","","","","","","","","","","","","","",""
"","S2","","html-keyboard-response","127","267045","0.0-1.0-175.0","0","0","22357","","null","","","null","19","","NaN","","","","","","","","","","","","","",""
"","response","","html-keyboard-response","128","267216","0.0-1.0-176.0-0.0","0","0","22357","","170","","","75","19","","","1","19","training","adjacent","GF","7","6","P.jpg","O.jpg","1","0","0","",""
"","feedback","","html-keyboard-response","129","268219","0.0-1.0-177.0-0.0","0","0","22357","","null","","","null","19","","","","","","","","","","","","","","","",""
"","time_out","","html-keyboard-response","130","270221","0.0-1.0-179.0-0.0","0","0","22357","","null","","","null","19","","","","","","","","","","","","","","","",""
"","ITI","","html-keyboard-response","131","271225","0.0-1.0-180.0","0","0","22357","","null","","","null","19","","","","","","","","","","","","","","","NaN",""
"","S1","","html-keyboard-response","132","271477","0.0-1.0-182.0","0","0","22357","","null","","","null","20","","","","","","","","","","","","","","","",""
"","ISI","","html-keyboard-response","133","272480","0.0-1.0-183.0","0","0","22357","","null","","","null","20","NaN","","","","","","","","","","","","","","",""
"","S2","","html-keyboard-response","134","272733","0.0-1.0-184.0","0","0","22357","","null","","","null","20","","NaN","","","","","","","","","","","","","",""
"","response","","html-keyboard-response","135","272760","0.0-1.0-185.0-0.0","0","0","22357","","25","","","75","20","","","1","20","training","adjacent","ED","5","4","R.jpg","N.jpg","1","0","0","",""
"","feedback","","html-keyboard-response","136","273763","0.0-1.0-186.0-0.0","0","0","22357","","null","","","null","20","","","","","","","","","","","","","","","",""
"","time_out","","html-keyboard-response","137","275766","0.0-1.0-188.0-0.0","0","0","22357","","null","","","null","20","","","","","","","","","","","","","","","",""
"","ITI","","html-keyboard-response","138","276769","0.0-1.0-189.0","0","0","22357","","null","","","null","20","","","","","","","","","","","","","","","NaN",""
"","S1","","html-keyboard-response","139","277022","0.0-1.0-191.0","0","0","22357","","null","","","null","21","","","","","","","","","","","","","","","",""
"","ISI","","html-keyboard-response","140","278026","0.0-1.0-192.0","0","0","22357","","null","","","null","21","NaN","","","","","","","","","","","","","","",""
"","S2","","html-keyboard-response","141","278280","0.0-1.0-193.0","0","0","22357","","null","","","null","21","","NaN","","","","","","","","","","","","","",""
"","response","","html-keyboard-response","142","278324","0.0-1.0-194.0-0.0","0","0","22357","","42","","","68","21","","","1","21","training","adjacent","CD","3","4","L.jpg","N.jpg","0","1","0","",""
"","feedback","","html-keyboard-response","143","279328","0.0-1.0-195.0-0.0","0","0","22357","","null","","","null","21","","","","","","","","","","","","","","","",""
"","time_out","","html-keyboard-response","144","281331","0.0-1.0-197.0-0.0","0","0","22357","","null","","","null","21","","","","","","","","","","","","","","","",""
"","ITI","","html-keyboard-response","145","282335","0.0-1.0-198.0","0","0","22357","","null","","","null","21","","","","","","","","","","","","","","","NaN",""
"","S1","","html-keyboard-response","146","282589","0.0-1.0-200.0","0","0","22357","","null","","","null","22","","","","","","","","","","","","","","","",""
"","ISI","","html-keyboard-response","147","283593","0.0-1.0-201.0","0","0","22357","","null","","","null","22","NaN","","","","","","","","","","","","","","",""
"","S2","","html-keyboard-response","148","283845","0.0-1.0-202.0","0","0","22357","","null","","","null","22","","NaN","","","","","","","","","","","","","",""
"","response","","html-keyboard-response","149","284267","0.0-1.0-203.0-0.0","0","0","22357","","419","","","75","22","","","1","22","training","adjacent","CD","3","4","L.jpg","N.jpg","1","1","1","",""
"","feedback","","html-keyboard-response","150","285269","0.0-1.0-204.0-0.0","0","0","22357","","null","","","null","22","","","","","","","","","","","","","","","",""
"","ITI","","html-keyboard-response","151","286271","0.0-1.0-207.0","0","0","22357","","null","","","null","22","","","","","","","","","","","","","","","NaN",""
"","S1","","html-keyboard-response","152","286523","0.0-1.0-209.0","0","0","22357","","null","","","null","23","","","","","","","","","","","","","","","",""
"","ISI","","html-keyboard-response","153","287526","0.0-1.0-210.0","0","0","22357","","null","","","null","23","NaN","","","","","","","","","","","","","","",""
"","S2","","html-keyboard-response","154","287778","0.0-1.0-211.0","0","0","22357","","null","","","null","23","","NaN","","","","","","","","","","","","","",""
"","response","","html-keyboard-response","155","287914","0.0-1.0-212.0-0.0","0","0","22357","","134","","","68","23","","","1","23","training","adjacent","EF","5","6","R.jpg","O.jpg","0","1","0","",""
"","feedback","","html-keyboard-response","156","288918","0.0-1.0-213.0-0.0","0","0","22357","","null","","","null","23","","","","","","","","","","","","","","","",""
"","time_out","","html-keyboard-response","157","290921","0.0-1.0-215.0-0.0","0","0","22357","","null","","","null","23","","","","","","","","","","","","","","","",""
"","ITI","","html-keyboard-response","158","291924","0.0-1.0-216.0","0","0","22357","","null","","","null","23","","","","","","","","","","","","","","","NaN",""
"","S1","","html-keyboard-response","159","292177","0.0-1.0-218.0","0","0","22357","","null","","","null","24","","","","","","","","","","","","","","","",""
"","ISI","","html-keyboard-response","160","293180","0.0-1.0-219.0","0","0","22357","","null","","","null","24","NaN","","","","","","","","","","","","","","",""
"","S2","","html-keyboard-response","161","293434","0.0-1.0-220.0","0","0","22357","","null","","","null","24","","NaN","","","","","","","","","","","","","",""
"","response","","html-keyboard-response","162","293456","0.0-1.0-221.0-0.0","0","0","22357","","21","","","68","24","","","1","24","training","adjacent","DC","4","3","N.jpg","L.jpg","0","0","1","",""
"","feedback","","html-keyboard-response","163","294459","0.0-1.0-222.0-0.0","0","0","22357","","null","","","null","24","","","","","","","","","","","","","","","",""
"","ITI","","html-keyboard-response","164","295462","0.0-1.0-225.0","0","0","22357","","null","","","null","24","","","","","","","","","","","","","","","NaN",""
"","S1","","html-keyboard-response","165","295715","0.0-1.0-227.0","0","0","22357","","null","","","null","25","","","","","","","","","","","","","","","",""
"","ISI","","html-keyboard-response","166","296718","0.0-1.0-228.0","0","0","22357","","null","","","null","25","NaN","","","","","","","","","","","","","","",""
"","S2","","html-keyboard-response","167","296970","0.0-1.0-229.0","0","0","22357","","null","","","null","25","","NaN","","","","","","","","","","","","","",""
"","response","","html-keyboard-response","168","297170","0.0-1.0-230.0-0.0","0","0","22357","","199","","","68","25","","","1","25","training","adjacent","EF","5","6","R.jpg","O.jpg","0","1","0","",""
"","feedback","","html-keyboard-response","169","298172","0.0-1.0-231.0-0.0","0","0","22357","","null","","","null","25","","","","","","","","","","","","","","","",""
"","time_out","","html-keyboard-response","170","300174","0.0-1.0-233.0-0.0","0","0","22357","","null","","","null","25","","","","","","","","","","","","","","","",""
"","ITI","","html-keyboard-response","171","301176","0.0-1.0-234.0","0","0","22357","","null","","","null","25","","","","","","","","","","","","","","","NaN",""
"","S1","","html-keyboard-response","172","301429","0.0-1.0-236.0","0","0","22357","","null","","","null","26","","","","","","","","","","","","","","","",""
"","ISI","","html-keyboard-response","173","302432","0.0-1.0-237.0","0","0","22357","","null","","","null","26","NaN","","","","","","","","","","","","","","",""
"","S2","","html-keyboard-response","174","302685","0.0-1.0-238.0","0","0","22357","","null","","","null","26","","NaN","","","","","","","","","","","","","",""
"","response","","html-keyboard-response","175","303187","0.0-1.0-239.0-0.0","0","0","22357","","501","","","68","26","","","1","26","training","adjacent","GF","7","6","P.jpg","O.jpg","0","0","1","",""
"","feedback","","html-keyboard-response","176","304189","0.0-1.0-240.0-0.0","0","0","22357","","null","","","null","26","","","","","","","","","","","","","","","",""
"","ITI","","html-keyboard-response","177","305192","0.0-1.0-243.0","0","0","22357","","null","","","null","26","","","","","","","","","","","","","","","NaN",""
"","S1","","html-keyboard-response","178","305444","0.0-1.0-245.0","0","0","22357","","null","","","null","27","","","","","","","","","","","","","","","",""
"","ISI","","html-keyboard-response","179","306448","0.0-1.0-246.0","0","0","22357","","null","","","null","27","NaN","","","","","","","","","","","","","","",""
"","S2","","html-keyboard-response","180","306702","0.0-1.0-247.0","0","0","22357","","null","","","null","27","","NaN","","","","","","","","","","","","","",""
"","response","","html-keyboard-response","181","307155","0.0-1.0-248.0-0.0","0","0","22357","","453","","","75","27","","","1","27","training","adjacent","BA","2","1","Q.jpg","M.jpg","1","0","0","",""
"","feedback","","html-keyboard-response","182","308159","0.0-1.0-249.0-0.0","0","0","22357","","null","","","null","27","","","","","","","","","","","","","","","",""
"","time_out","","html-keyboard-response","183","310160","0.0-1.0-251.0-0.0","0","0","22357","","null","","","null","27","","","","","","","","","","","","","","","",""
"","ITI","","html-keyboard-response","184","311163","0.0-1.0-252.0","0","0","22357","","null","","","null","27","","","","","","","","","","","","","","","NaN",""
"","S1","","html-keyboard-response","185","311416","0.0-1.0-254.0","0","0","22357","","null","","","null","28","","","","","","","","","","","","","","","",""
"","ISI","","html-keyboard-response","186","312418","0.0-1.0-255.0","0","0","22357","","null","","","null","28","NaN","","","","","","","","","","","","","","",""
"","S2","","html-keyboard-response","187","312671","0.0-1.0-256.0","0","0","22357","","null","","","null","28","","NaN","","","","","","","","","","","","","",""
"","response","","html-keyboard-response","188","312999","0.0-1.0-257.0-0.0","0","0","22357","","326","","","68","28","","","1","28","training","adjacent","ED","5","4","R.jpg","N.jpg","0","0","1","",""
"","feedback","","html-keyboard-response","189","314003","0.0-1.0-258.0-0.0","0","0","22357","","null","","","null","28","","","","","","","","","","","","","","","",""
"","ITI","","html-keyboard-response","190","315004","0.0-1.0-261.0","0","0","22357","","null","","","null","28","","","","","","","","","","","","","","","NaN",""
"","S1","","html-keyboard-response","191","315257","0.0-1.0-263.0","0","0","22357","","null","","","null","29","","","","","","","","","","","","","","","",""
"","ISI","","html-keyboard-response","192","316259","0.0-1.0-264.0","0","0","22357","","null","","","null","29","NaN","","","","","","","","","","","","","","",""
"","S2","","html-keyboard-response","193","316513","0.0-1.0-265.0","0","0","22357","","null","","","null","29","","NaN","","","","","","","","","","","","","",""
"","response","","html-keyboard-response","194","316650","0.0-1.0-266.0-0.0","0","0","22357","","137","","","75","29","","","1","29","training","adjacent","GF","7","6","P.jpg","O.jpg","1","0","0","",""
"","feedback","","html-keyboard-response","195","317652","0.0-1.0-267.0-0.0","0","0","22357","","null","","","null","29","","","","","","","","","","","","","","","",""
"","time_out","","html-keyboard-response","196","319653","0.0-1.0-269.0-0.0","0","0","22357","","null","","","null","29","","","","","","","","","","","","","","","",""
"","ITI","","html-keyboard-response","197","320655","0.0-1.0-270.0","0","0","22357","","null","","","null","29","","","","","","","","","","","","","","","NaN",""
"","S1","","html-keyboard-response","198","320908","0.0-1.0-272.0","0","0","22357","","null","","","null","30","","","","","","","","","","","","","","","",""
"","ISI","","html-keyboard-response","199","321911","0.0-1.0-273.0","0","0","22357","","null","","","null","30","NaN","","","","","","","","","","","","","","",""
"","S2","","html-keyboard-response","200","322166","0.0-1.0-274.0","0","0","22357","","null","","","null","30","","NaN","","","","","","","","","","","","","",""
"","response","","html-keyboard-response","201","322371","0.0-1.0-275.0-0.0","0","0","22357","","204","","","75","30","","","1","30","training","adjacent","CB","3","2","L.jpg","Q.jpg","1","0","0","",""
"","feedback","","html-keyboard-response","202","323375","0.0-1.0-276.0-0.0","0","0","22357","","null","","","null","30","","","","","","","","","","","","","","","",""
"","time_out","","html-keyboard-response","203","325377","0.0-1.0-278.0-0.0","0","0","22357","","null","","","null","30","","","","","","","","","","","","","","","",""
"","ITI","","html-keyboard-response","204","326379","0.0-1.0-279.0","0","0","22357","","null","","","null","30","","","","","","","","","","","","","","","NaN",""
"","S1","","html-keyboard-response","205","326633","0.0-1.0-281.0","0","0","22357","","null","","","null","31","","","","","","","","","","","","","","","",""
"","ISI","","html-keyboard-response","206","327635","0.0-1.0-282.0","0","0","22357","","null","","","null","31","NaN","","","","","","","","","","","","","","",""
"","S2","","html-keyboard-response","207","327887","0.0-1.0-283.0","0","0","22357","","null","","","null","31","","NaN","","","","","","","","","","","","","",""
"","response","","html-keyboard-response","208","328352","0.0-1.0-284.0-0.0","0","0","22357","","464","","","68","31","","","1","31","training","adjacent","DE","4","5","N.jpg","R.jpg","0","1","0","",""
"","feedback","","html-keyboard-response","209","329356","0.0-1.0-285.0-0.0","0","0","22357","","null","","","null","31","","","","","","","","","","","","","","","",""
"","time_out","","html-keyboard-response","210","331358","0.0-1.0-287.0-0.0","0","0","22357","","null","","","null","31","","","","","","","","","","","","","","","",""
"","ITI","","html-keyboard-response","211","332360","0.0-1.0-288.0","0","0","22357","","null","","","null","31","","","","","","","","","","","","","","","NaN",""
"","S1","","html-keyboard-response","212","332613","0.0-1.0-290.0","0","0","22357","","null","","","null","32","","","","","","","","","","","","","","","",""
"","ISI","","html-keyboard-response","213","333615","0.0-1.0-291.0","0","0","22357","","null","","","null","32","NaN","","","","","","","","","","","","","","",""
"","S2","","html-keyboard-response","214","333868","0.0-1.0-292.0","0","0","22357","","null","","","null","32","","NaN","","","","","","","","","","","","","",""
"","response","","html-keyboard-response","215","334417","0.0-1.0-293.0-0.0","0","0","22357","","546","","","75","32","","","1","32","training","adjacent","AB","1","2","M.jpg","Q.jpg","1","1","1","",""
"","feedback","","html-keyboard-response","216","335419","0.0-1.0-294.0-0.0","0","0","22357","","null","","","null","32","","","","","","","","","","","","","","","",""
"","ITI","","html-keyboard-response","217","336422","0.0-1.0-297.0","0","0","22357","","null","","","null","32","","","","","","","","","","","","","","","NaN",""
"","S1","","html-keyboard-response","218","336676","0.0-1.0-299.0","0","0","22357","","null","","","null","33","","","","","","","","","","","","","","","",""
"","ISI","","html-keyboard-response","219","337678","0.0-1.0-300.0","0","0","22357","","null","","","null","33","NaN","","","","","","","","","","","","","","",""
"","S2","","html-keyboard-response","220","337931","0.0-1.0-301.0","0","0","22357","","null","","","null","33","","NaN","","","","","","","","","","","","","",""
"","response","","html-keyboard-response","221","338393","0.0-1.0-302.0-0.0","0","0","22357","","459","","","68","33","","","1","33","training","adjacent","EF","5","6","R.jpg","O.jpg","0","1","0","",""
"","feedback","","html-keyboard-response","222","339396","0.0-1.0-303.0-0.0","0","0","22357","","null","","","null","33","","","","","","","","","","","","","","","",""
"","time_out","","html-keyboard-response","223","341399","0.0-1.0-305.0-0.0","0","0","22357","","null","","","null","33","","","","","","","","","","","","","","","",""
"","ITI","","html-keyboard-response","224","342401","0.0-1.0-306.0","0","0","22357","","null","","","null","33","","","","","","","","","","","","","","","NaN",""
"","S1","","html-keyboard-response","225","342654","0.0-1.0-308.0","0","0","22357","","null","","","null","34","","","","","","","","","","","","","","","",""
"","ISI","","html-keyboard-response","226","343657","0.0-1.0-309.0","0","0","22357","","null","","","null","34","NaN","","","","","","","","","","","","","","",""
"","S2","","html-keyboard-response","227","343909","0.0-1.0-310.0","0","0","22357","","null","","","null","34","","NaN","","","","","","","","","","","","","",""
"","response","","html-keyboard-response","228","344307","0.0-1.0-311.0-0.0","0","0","22357","","396","","","75","34","","","1","34","training","adjacent","CB","3","2","L.jpg","Q.jpg","1","0","0","",""
"","feedback","","html-keyboard-response","229","345311","0.0-1.0-312.0-0.0","0","0","22357","","null","","","null","34","","","","","","","","","","","","","","","",""
"","time_out","","html-keyboard-response","230","347313","0.0-1.0-314.0-0.0","0","0","22357","","null","","","null","34","","","","","","","","","","","","","","","",""
"","ITI","","html-keyboard-response","231","348317","0.0-1.0-315.0","0","0","22357","","null","","","null","34","","","","","","","","","","","","","","","NaN",""
"","S1","","html-keyboard-response","232","348569","0.0-1.0-317.0","0","0","22357","","null","","","null","35","","","","","","","","","","","","","","","",""
"","ISI","","html-keyboard-response","233","349572","0.0-1.0-318.0","0","0","22357","","null","","","null","35","NaN","","","","","","","","","","","","","","",""
"","S2","","html-keyboard-response","234","349824","0.0-1.0-319.0","0","0","22357","","null","","","null","35","","NaN","","","","","","","","","","","","","",""
"","response","","html-keyboard-response","235","350066","0.0-1.0-320.0-0.0","0","0","22357","","242","","","68","35","","","1","35","training","adjacent","CB","3","2","L.jpg","Q.jpg","0","0","1","",""
"","feedback","","html-keyboard-response","236","351069","0.0-1.0-321.0-0.0","0","0","22357","","null","","","null","35","","","","","","","","","","","","","","","",""
"","ITI","","html-keyboard-response","237","352072","0.0-1.0-324.0","0","0","22357","","null","","","null","35","","","","","","","","","","","","","","","NaN",""
"","S1","","html-keyboard-response","238","352324","0.0-1.0-326.0","0","0","22357","","null","","","null","36","","","","","","","","","","","","","","","",""
"","ISI","","html-keyboard-response","239","353327","0.0-1.0-327.0","0","0","22357","","null","","","null","36","NaN","","","","","","","","","","","","","","",""
"","S2","","html-keyboard-response","240","353580","0.0-1.0-328.0","0","0","22357","","null","","","null","36","","NaN","","","","","","","","","","","","","",""
"","response","","html-keyboard-response","241","354090","0.0-1.0-329.0-0.0","0","0","22357","","509","","","75","36","","","1","36","training","adjacent","DC","4","3","N.jpg","L.jpg","1","0","0","",""
"","feedback","","html-keyboard-response","242","355094","0.0-1.0-330.0-0.0","0","0","22357","","null","","","null","36","","","","","","","","","","","","","","","",""
"","time_out","","html-keyboard-response","243","357095","0.0-1.0-332.0-0.0","0","0","22357","","null","","","null","36","","","","","","","","","","","","","","","",""
"","ITI","","html-keyboard-response","244","358098","0.0-1.0-333.0","0","0","22357","","null","","","null","36","","","","","","","","","","","","","","","NaN",""
"","S1","","html-keyboard-response","245","358351","0.0-1.0-335.0","0","0","22357","","null","","","null","37","","","","","","","","","","","","","","","",""
"","ISI","","html-keyboard-response","246","359352","0.0-1.0-336.0","0","0","22357","","null","","","null","37","NaN","","","","","","","","","","","","","","",""
"","S2","","html-keyboard-response","247","359605","0.0-1.0-337.0","0","0","22357","","null","","","null","37","","NaN","","","","","","","","","","","","","",""
"","response","","html-keyboard-response","248","359787","0.0-1.0-338.0-0.0","0","0","22357","","181","","","68","37","","","1","37","training","adjacent","DE","4","5","N.jpg","R.jpg","0","1","0","",""
"","feedback","","html-keyboard-response","249","360789","0.0-1.0-339.0-0.0","0","0","22357","","null","","","null","37","","","","","","","","","","","","","","","",""
"","time_out","","html-keyboard-response","250","362791","0.0-1.0-341.0-0.0","0","0","22357","","null","","","null","37","","","","","","","","","","","","","","","",""
"","ITI","","html-keyboard-response","251","363793","0.0-1.0-342.0","0","0","22357","","null","","","null","37","","","","","","","","","","","","","","","NaN",""
"","S1","","html-keyboard-response","252","364047","0.0-1.0-344.0","0","0","22357","","null","","","null","38","","","","","","","","","","","","","","","",""
"","ISI","","html-keyboard-response","253","365049","0.0-1.0-345.0","0","0","22357","","null","","","null","38","NaN","","","","","","","","","","","","","","",""
"","S2","","html-keyboard-response","254","365301","0.0-1.0-346.0","0","0","22357","","null","","","null","38","","NaN","","","","","","","","","","","","","",""
"","response","","html-keyboard-response","255","365745","0.0-1.0-347.0-0.0","0","0","22357","","442","","","75","38","","","1","38","training","adjacent","FG","6","7","O.jpg","P.jpg","1","1","1","",""
"","feedback","","html-keyboard-response","256","366746","0.0-1.0-348.0-0.0","0","0","22357","","null","","","null","38","","","","","","","","","","","","","","","",""
"","ITI","","html-keyboard-response","257","367749","0.0-1.0-351.0","0","0","22357","","null","","","null","38","","","","","","","","","","","","","","","NaN",""
"","S1","","html-keyboard-response","258","368002","0.0-1.0-353.0","0","0","22357","","null","","","null","39","","","","","","","","","","","","","","","",""
"","ISI","","html-keyboard-response","259","369005","0.0-1.0-354.0","0","0","22357","","null","","","null","39","NaN","","","","","","","","","","","","","","",""
"","S2","","html-keyboard-response","260","369258","0.0-1.0-355.0","0","0","22357","","null","","","null","39","","NaN","","","","","","","","","","","","","",""
"","response","","html-keyboard-response","261","369341","0.0-1.0-356.0-0.0","0","0","22357","","81","","","68","39","","","1","39","training","adjacent","CB","3","2","L.jpg","Q.jpg","0","0","1","",""
"","feedback","","html-keyboard-response","262","370344","0.0-1.0-357.0-0.0","0","0","22357","","null","","","null","39","","","","","","","","","","","","","","","",""
"","ITI","","html-keyboard-response","263","371346","0.0-1.0-360.0","0","0","22357","","null","","","null","39","","","","","","","","","","","","","","","NaN",""
"","S1","","html-keyboard-response","264","371598","0.0-1.0-362.0","0","0","22357","","null","","","null","40","","","","","","","","","","","","","","","",""
"","ISI","","html-keyboard-response","265","372600","0.0-1.0-363.0","0","0","22357","","null","","","null","40","NaN","","","","","","","","","","","","","","",""
"","S2","","html-keyboard-response","266","372852","0.0-1.0-364.0","0","0","22357","","null","","","null","40","","NaN","","","","","","","","","","","","","",""
"","response","","html-keyboard-response","267","373068","0.0-1.0-365.0-0.0","0","0","22357","","214","","","68","40","","","1","40","training","adjacent","FE","6","5","O.jpg","R.jpg","0","0","1","",""
"","feedback","","html-keyboard-response","268","374072","0.0-1.0-366.0-0.0","0","0","22357","","null","","","null","40","","","","","","","","","","","","","","","",""
"","ITI","","html-keyboard-response","269","375075","0.0-1.0-369.0","0","0","22357","","null","","","null","40","","","","","","","","","","","","","","","NaN",""
"","S1","","html-keyboard-response","270","375328","0.0-1.0-371.0","0","0","22357","","null","","","null","41","","","","","","","","","","","","","","","",""
"","ISI","","html-keyboard-response","271","376330","0.0-1.0-372.0","0","0","22357","","null","","","null","41","NaN","","","","","","","","","","","","","","",""
"","S2","","html-keyboard-response","272","376583","0.0-1.0-373.0","0","0","22357","","null","","","null","41","","NaN","","","","","","","","","","","","","",""
"","response","","html-keyboard-response","273","376930","0.0-1.0-374.0-0.0","0","0","22357","","344","","","75","41","","","1","41","training","adjacent","DC","4","3","N.jpg","L.jpg","1","0","0","",""
"","feedback","","html-keyboard-response","274","377934","0.0-1.0-375.0-0.0","0","0","22357","","null","","","null","41","","","","","","","","","","","","","","","",""
"","time_out","","html-keyboard-response","275","379935","0.0-1.0-377.0-0.0","0","0","22357","","null","","","null","41","","","","","","","","","","","","","","","",""
"","ITI","","html-keyboard-response","276","380939","0.0-1.0-378.0","0","0","22357","","null","","","null","41","","","","","","","","","","","","","","","NaN",""
"","S1","","html-keyboard-response","277","381192","0.0-1.0-380.0","0","0","22357","","null","","","null","42","","","","","","","","","","","","","","","",""
"","ISI","","html-keyboard-response","278","382195","0.0-1.0-381.0","0","0","22357","","null","","","null","42","NaN","","","","","","","","","","","","","","",""
"","S2","","html-keyboard-response","279","382446","0.0-1.0-382.0","0","0","22357","","null","","","null","42","","NaN","","","","","","","","","","","","","",""
"","response","","html-keyboard-response","280","382964","0.0-1.0-383.0-0.0","0","0","22357","","516","","","75","42","","","1","42","training","adjacent","BA","2","1","Q.jpg","M.jpg","1","0","0","",""
"","feedback","","html-keyboard-response","281","383967","0.0-1.0-384.0-0.0","0","0","22357","","null","","","null","42","","","","","","","","","","","","","","","",""
"","time_out","","html-keyboard-response","282","385970","0.0-1.0-386.0-0.0","0","0","22357","","null","","","null","42","","","","","","","","","","","","","","","",""
"","ITI","","html-keyboard-response","283","386972","0.0-1.0-387.0","0","0","22357","","null","","","null","42","","","","","","","","","","","","","","","NaN",""
"","S1","","html-keyboard-response","284","387226","0.0-1.0-389.0","0","0","22357","","null","","","null","43","","","","","","","","","","","","","","","",""
"","ISI","","html-keyboard-response","285","388229","0.0-1.0-390.0","0","0","22357","","null","","","null","43","NaN","","","","","","","","","","","","","","",""
"","S2","","html-keyboard-response","286","388483","0.0-1.0-391.0","0","0","22357","","null","","","null","43","","NaN","","","","","","","","","","","","","",""
"","response","","html-keyboard-response","287","388810","0.0-1.0-392.0-0.0","0","0","22357","","327","","","75","43","","","1","43","training","adjacent","AB","1","2","M.jpg","Q.jpg","1","1","1","",""
"","feedback","","html-keyboard-response","288","389813","0.0-1.0-393.0-0.0","0","0","22357","","null","","","null","43","","","","","","","","","","","","","","","",""
"","ITI","","html-keyboard-response","289","390814","0.0-1.0-396.0","0","0","22357","","null","","","null","43","","","","","","","","","","","","","","","NaN",""
"","S1","","html-keyboard-response","290","391066","0.0-1.0-398.0","0","0","22357","","null","","","null","44","","","","","","","","","","","","","","","",""
"","ISI","","html-keyboard-response","291","392068","0.0-1.0-399.0","0","0","22357","","null","","","null","44","NaN","","","","","","","","","","","","","","",""
"","S2","","html-keyboard-response","292","392320","0.0-1.0-400.0","0","0","22357","","null","","","null","44","","NaN","","","","","","","","","","","","","",""
"","response","","html-keyboard-response","293","392764","0.0-1.0-401.0-0.0","0","0","22357","","442","","","75","44","","","1","44","training","adjacent","FG","6","7","O.jpg","P.jpg","1","1","1","",""
"","feedback","","html-keyboard-response","294","393766","0.0-1.0-402.0-0.0","0","0","22357","","null","","","null","44","","","","","","","","","","","","","","","",""
"","ITI","","html-keyboard-response","295","394769","0.0-1.0-405.0","0","0","22357","","null","","","null","44","","","","","","","","","","","","","","","NaN",""
"","S1","","html-keyboard-response","296","395022","0.0-1.0-407.0","0","0","22357","","null","","","null","45","","","","","","","","","","","","","","","",""
"","ISI","","html-keyboard-response","297","396025","0.0-1.0-408.0","0","0","22357","","null","","","null","45","NaN","","","","","","","","","","","","","","",""
"","S2","","html-keyboard-response","298","396278","0.0-1.0-409.0","0","0","22357","","null","","","null","45","","NaN","","","","","","","","","","","","","",""
"","response","","html-keyboard-response","299","396588","0.0-1.0-410.0-0.0","0","0","22357","","308","","","68","45","","","1","45","training","adjacent","BC","2","3","Q.jpg","L.jpg","0","1","0","",""
"","feedback","","html-keyboard-response","300","397591","0.0-1.0-411.0-0.0","0","0","22357","","null","","","null","45","","","","","","","","","","","","","","","",""
"","time_out","","html-keyboard-response","301","399593","0.0-1.0-413.0-0.0","0","0","22357","","null","","","null","45","","","","","","","","","","","","","","","",""
"","ITI","","html-keyboard-response","302","400597","0.0-1.0-414.0","0","0","22357","","null","","","null","45","","","","","","","","","","","","","","","NaN",""
"","S1","","html-keyboard-response","303","400849","0.0-1.0-416.0","0","0","22357","","null","","","null","46","","","","","","","","","","","","","","","",""
"","ISI","","html-keyboard-response","304","401852","0.0-1.0-417.0","0","0","22357","","null","","","null","46","NaN","","","","","","","","","","","","","","",""
"","S2","","html-keyboard-response","305","402106","0.0-1.0-418.0","0","0","22357","","null","","","null","46","","NaN","","","","","","","","","","","","","",""
"","response","","html-keyboard-response","306","402489","0.0-1.0-419.0-0.0","0","0","22357","","382","","","75","46","","","1","46","training","adjacent","FG","6","7","O.jpg","P.jpg","1","1","1","",""
"","feedback","","html-keyboard-response","307","403493","0.0-1.0-420.0-0.0","0","0","22357","","null","","","null","46","","","","","","","","","","","","","","","",""
"","ITI","","html-keyboard-response","308","404496","0.0-1.0-423.0","0","0","22357","","null","","","null","46","","","","","","","","","","","","","","","NaN",""
"","S1","","html-keyboard-response","309","404749","0.0-1.0-425.0","0","0","22357","","null","","","null","47","","","","","","","","","","","","","","","",""
"","ISI","","html-keyboard-response","310","405751","0.0-1.0-426.0","0","0","22357","","null","","","null","47","NaN","","","","","","","","","","","","","","",""
"","S2","","html-keyboard-response","311","406003","0.0-1.0-427.0","0","0","22357","","null","","","null","47","","NaN","","","","","","","","","","","","","",""
"","response","","html-keyboard-response","312","406786","0.0-1.0-428.0-0.0","0","0","22357","","781","","","75","47","","","1","47","training","adjacent","ED","5","4","R.jpg","N.jpg","1","0","0","",""
"","feedback","","html-keyboard-response","313","407788","0.0-1.0-429.0-0.0","0","0","22357","","null","","","null","47","","","","","","","","","","","","","","","",""
"","time_out","","html-keyboard-response","314","409792","0.0-1.0-431.0-0.0","0","0","22357","","null","","","null","47","","","","","","","","","","","","","","","",""
"","ITI","","html-keyboard-response","315","410795","0.0-1.0-432.0","0","0","22357","","null","","","null","47","","","","","","","","","","","","","","","NaN",""
"","block_over","","html-keyboard-response","316","416277","0.0-1.0-433.0-0.0","0","0","22357","","5480","","","32","47","","","","","","","","","","","","","","","",""
"","S1","","html-keyboard-response","317","416530","0.0-1.0-434.0","0","0","22357","","null","","","null","48","","","","","","","","","","","","","","","",""
"","ISI","","html-keyboard-response","318","417531","0.0-1.0-435.0","0","0","22357","","null","","","null","48","NaN","","","","","","","","","","","","","","",""
"","S2","","html-keyboard-response","319","417784","0.0-1.0-436.0","0","0","22357","","null","","","null","48","","NaN","","","","","","","","","","","","","",""
"","response","","html-keyboard-response","320","418415","0.0-1.0-437.0-0.0","0","0","22357","","631","","","68","48","","","2","48","training","adjacent","FE","6","5","O.jpg","R.jpg","0","0","1","",""
"","feedback","","html-keyboard-response","321","419419","0.0-1.0-438.0-0.0","0","0","22357","","null","","","null","48","","","","","","","","","","","","","","","",""
"","ITI","","html-keyboard-response","322","420421","0.0-1.0-441.0","0","0","22357","","null","","","null","48","","","","","","","","","","","","","","","NaN",""
"","S1","","html-keyboard-response","323","420674","0.0-1.0-443.0","0","0","22357","","null","","","null","49","","","","","","","","","","","","","","","",""
"","ISI","","html-keyboard-response","324","421677","0.0-1.0-444.0","0","0","22357","","null","","","null","49","NaN","","","","","","","","","","","","","","",""
"","S2","","html-keyboard-response","325","421930","0.0-1.0-445.0","0","0","22357","","null","","","null","49","","NaN","","","","","","","","","","","","","",""
"","response","","html-keyboard-response","326","422441","0.0-1.0-446.0-0.0","0","0","22357","","509","","","68","49","","","2","49","training","adjacent","BA","2","1","Q.jpg","M.jpg","0","0","1","",""
"","feedback","","html-keyboard-response","327","423443","0.0-1.0-447.0-0.0","0","0","22357","","null","","","null","49","","","","","","","","","","","","","","","",""
"","ITI","","html-keyboard-response","328","424446","0.0-1.0-450.0","0","0","22357","","null","","","null","49","","","","","","","","","","","","","","","NaN",""
"","S1","","html-keyboard-response","329","424698","0.0-1.0-452.0","0","0","22357","","null","","","null","50","","","","","","","","","","","","","","","",""
"","ISI","","html-keyboard-response","330","425700","0.0-1.0-453.0","0","0","22357","","null","","","null","50","NaN","","","","","","","","","","","","","","",""
"","S2","","html-keyboard-response","331","425953","0.0-1.0-454.0","0","0","22357","","null","","","null","50","","NaN","","","","","","","","","","","","","",""
"","response","","html-keyboard-response","332","426392","0.0-1.0-455.0-0.0","0","0","22357","","438","","","68","50","","","2","50","training","adjacent","GF","7","6","P.jpg","O.jpg","0","0","1","",""
"","feedback","","html-keyboard-response","333","427396","0.0-1.0-456.0-0.0","0","0","22357","","null","","","null","50","","","","","","","","","","","","","","","",""
"","ITI","","html-keyboard-response","334","428399","0.0-1.0-459.0","0","0","22357","","null","","","null","50","","","","","","","","","","","","","","","NaN",""
"","S1","","html-keyboard-response","335","428652","0.0-1.0-461.0","0","0","22357","","null","","","null","51","","","","","","","","","","","","","","","",""
"","ISI","","html-keyboard-response","336","429654","0.0-1.0-462.0","0","0","22357","","null","","","null","51","NaN","","","","","","","","","","","","","","",""
"","S2","","html-keyboard-response","337","429907","0.0-1.0-463.0","0","0","22357","","null","","","null","51","","NaN","","","","","","","","","","","","","",""
"","response","","html-keyboard-response","338","430056","0.0-1.0-464.0-0.0","0","0","22357","","147","","","68","51","","","2","51","training","adjacent","FE","6","5","O.jpg","R.jpg","0","0","1","",""
"","feedback","","html-keyboard-response","339","431058","0.0-1.0-465.0-0.0","0","0","22357","","null","","","null","51","","","","","","","","","","","","","","","",""
"","ITI","","html-keyboard-response","340","432061","0.0-1.0-468.0","0","0","22357","","null","","","null","51","","","","","","","","","","","","","","","NaN",""
"","S1","","html-keyboard-response","341","432314","0.0-1.0-470.0","0","0","22357","","null","","","null","52","","","","","","","","","","","","","","","",""
"","ISI","","html-keyboard-response","342","433316","0.0-1.0-471.0","0","0","22357","","null","","","null","52","NaN","","","","","","","","","","","","","","",""
"","S2","","html-keyboard-response","343","433569","0.0-1.0-472.0","0","0","22357","","null","","","null","52","","NaN","","","","","","","","","","","","","",""
"","response","","html-keyboard-response","344","433677","0.0-1.0-473.0-0.0","0","0","22357","","106","","","68","52","","","2","52","training","adjacent","CD","3","4","L.jpg","N.jpg","0","1","0","",""
"","feedback","","html-keyboard-response","345","434679","0.0-1.0-474.0-0.0","0","0","22357","","null","","","null","52","","","","","","","","","","","","","","","",""
"","time_out","","html-keyboard-response","346","436681","0.0-1.0-476.0-0.0","0","0","22357","","null","","","null","52","","","","","","","","","","","","","","","",""
"","ITI","","html-keyboard-response","347","437683","0.0-1.0-477.0","0","0","22357","","null","","","null","52","","","","","","","","","","","","","","","NaN",""
"","S1","","html-keyboard-response","348","437935","0.0-1.0-479.0","0","0","22357","","null","","","null","53","","","","","","","","","","","","","","","",""
"","ISI","","html-keyboard-response","349","438937","0.0-1.0-480.0","0","0","22357","","null","","","null","53","NaN","","","","","","","","","","","","","","",""
"","S2","","html-keyboard-response","350","439190","0.0-1.0-481.0","0","0","22357","","null","","","null","53","","NaN","","","","","","","","","","","","","",""
"","response","","html-keyboard-response","351","439560","0.0-1.0-482.0-0.0","0","0","22357","","368","","","68","53","","","2","53","training","adjacent","FE","6","5","O.jpg","R.jpg","0","0","1","",""
"","feedback","","html-keyboard-response","352","440564","0.0-1.0-483.0-0.0","0","0","22357","","null","","","null","53","","","","","","","","","","","","","","","",""
"","ITI","","html-keyboard-response","353","441568","0.0-1.0-486.0","0","0","22357","","null","","","null","53","","","","","","","","","","","","","","","NaN",""
"","S1","","html-keyboard-response","354","441821","0.0-1.0-488.0","0","0","22357","","null","","","null","54","","","","","","","","","","","","","","","",""
"","ISI","","html-keyboard-response","355","442824","0.0-1.0-489.0","0","0","22357","","null","","","null","54","NaN","","","","","","","","","","","","","","",""
"","S2","","html-keyboard-response","356","443076","0.0-1.0-490.0","0","0","22357","","null","","","null","54","","NaN","","","","","","","","","","","","","",""
"","response","","html-keyboard-response","357","443781","0.0-1.0-491.0-0.0","0","0","22357","","703","","","68","54","","","2","54","training","adjacent","CB","3","2","L.jpg","Q.jpg","0","0","1","",""
"","feedback","","html-keyboard-response","358","444783","0.0-1.0-492.0-0.0","0","0","22357","","null","","","null","54","","","","","","","","","","","","","","","",""
"","ITI","","html-keyboard-response","359","445786","0.0-1.0-495.0","0","0","22357","","null","","","null","54","","","","","","","","","","","","","","","NaN",""
"","S1","","html-keyboard-response","360","446039","0.0-1.0-497.0","0","0","22357","","null","","","null","55","","","","","","","","","","","","","","","",""
"","ISI","","html-keyboard-response","361","447043","0.0-1.0-498.0","0","0","22357","","null","","","null","55","NaN","","","","","","","","","","","","","","",""
"","S2","","html-keyboard-response","362","447296","0.0-1.0-499.0","0","0","22357","","null","","","null","55","","NaN","","","","","","","","","","","","","",""
"","response","","html-keyboard-response","363","447764","0.0-1.0-500.0-0.0","0","0","22357","","466","","","75","55","","","2","55","training","adjacent","FG","6","7","O.jpg","P.jpg","1","1","1","",""
"","feedback","","html-keyboard-response","364","448768","0.0-1.0-501.0-0.0","0","0","22357","","null","","","null","55","","","","","","","","","","","","","","","",""
"","ITI","","html-keyboard-response","365","449771","0.0-1.0-504.0","0","0","22357","","null","","","null","55","","","","","","","","","","","","","","","NaN",""
"","S1","","html-keyboard-response","366","450023","0.0-1.0-506.0","0","0","22357","","null","","","null","56","","","","","","","","","","","","","","","",""
"","ISI","","html-keyboard-response","367","451026","0.0-1.0-507.0","0","0","22357","","null","","","null","56","NaN","","","","","","","","","","","","","","",""
"","S2","","html-keyboard-response","368","451279","0.0-1.0-508.0","0","0","22357","","null","","","null","56","","NaN","","","","","","","","","","","","","",""
"","response","","html-keyboard-response","369","452396","0.0-1.0-509.0-0.0","0","0","22357","","1115","","","75","56","","","2","56","training","adjacent","EF","5","6","R.jpg","O.jpg","1","1","1","",""
"","feedback","","html-keyboard-response","370","453400","0.0-1.0-510.0-0.0","0","0","22357","","null","","","null","56","","","","","","","","","","","","","","","",""
"","ITI","","html-keyboard-response","371","454402","0.0-1.0-513.0","0","0","22357","","null","","","null","56","","","","","","","","","","","","","","","NaN",""
"","S1","","html-keyboard-response","372","454655","0.0-1.0-515.0","0","0","22357","","null","","","null","57","","","","","","","","","","","","","","","",""
"","ISI","","html-keyboard-response","373","455658","0.0-1.0-516.0","0","0","22357","","null","","","null","57","NaN","","","","","","","","","","","","","","",""
"","S2","","html-keyboard-response","374","455911","0.0-1.0-517.0","0","0","22357","","null","","","null","57","","NaN","","","","","","","","","","","","","",""
"","response","","html-keyboard-response","375","456641","0.0-1.0-518.0-0.0","0","0","22357","","728","","","75","57","","","2","57","training","adjacent","BC","2","3","Q.jpg","L.jpg","1","1","1","",""
"","feedback","","html-keyboard-response","376","457643","0.0-1.0-519.0-0.0","0","0","22357","","null","","","null","57","","","","","","","","","","","","","","","",""
"","ITI","","html-keyboard-response","377","458653","0.0-1.0-522.0","0","0","22357","","null","","","null","57","","","","","","","","","","","","","","","NaN",""
"","S1","","html-keyboard-response","378","458907","0.0-1.0-524.0","0","0","22357","","null","","","null","58","","","","","","","","","","","","","","","",""
"","ISI","","html-keyboard-response","379","459911","0.0-1.0-525.0","0","0","22357","","null","","","null","58","NaN","","","","","","","","","","","","","","",""
"","S2","","html-keyboard-response","380","460163","0.0-1.0-526.0","0","0","22357","","null","","","null","58","","NaN","","","","","","","","","","","","","",""
"","response","","html-keyboard-response","381","460228","0.0-1.0-527.0-0.0","0","0","22357","","63","","","75","58","","","2","58","training","adjacent","ED","5","4","R.jpg","N.jpg","1","0","0","",""
"","feedback","","html-keyboard-response","382","461233","0.0-1.0-528.0-0.0","0","0","22357","","null","","","null","58","","","","","","","","","","","","","","","",""
"","time_out","","html-keyboard-response","383","463234","0.0-1.0-530.0-0.0","0","0","22357","","null","","","null","58","","","","","","","","","","","","","","","",""
"","ITI","","html-keyboard-response","384","464236","0.0-1.0-531.0","0","0","22357","","null","","","null","58","","","","","","","","","","","","","","","NaN",""
"","S1","","html-keyboard-response","385","464489","0.0-1.0-533.0","0","0","22357","","null","","","null","59","","","","","","","","","","","","","","","",""
"","ISI","","html-keyboard-response","386","465493","0.0-1.0-534.0","0","0","22357","","null","","","null","59","NaN","","","","","","","","","","","","","","",""
"","S2","","html-keyboard-response","387","465745","0.0-1.0-535.0","0","0","22357","","null","","","null","59","","NaN","","","","","","","","","","","","","",""
"","response","","html-keyboard-response","388","466089","0.0-1.0-536.0-0.0","0","0","22357","","342","","","68","59","","","2","59","training","adjacent","AB","1","2","M.jpg","Q.jpg","0","1","0","",""
"","feedback","","html-keyboard-response","389","467092","0.0-1.0-537.0-0.0","0","0","22357","","null","","","null","59","","","","","","","","","","","","","","","",""
"","time_out","","html-keyboard-response","390","469095","0.0-1.0-539.0-0.0","0","0","22357","","null","","","null","59","","","","","","","","","","","","","","","",""
"","ITI","","html-keyboard-response","391","470099","0.0-1.0-540.0","0","0","22357","","null","","","null","59","","","","","","","","","","","","","","","NaN",""
"","S1","","html-keyboard-response","392","470351","0.0-1.0-542.0","0","0","22357","","null","","","null","60","","","","","","","","","","","","","","","",""
"","ISI","","html-keyboard-response","393","471354","0.0-1.0-543.0","0","0","22357","","null","","","null","60","NaN","","","","","","","","","","","","","","",""
"","S2","","html-keyboard-response","394","471607","0.0-1.0-544.0","0","0","22357","","null","","","null","60","","NaN","","","","","","","","","","","","","",""
"","response","","html-keyboard-response","395","472098","0.0-1.0-545.0-0.0","0","0","22357","","489","","","75","60","","","2","60","training","adjacent","DC","4","3","N.jpg","L.jpg","1","0","0","",""
"","feedback","","html-keyboard-response","396","473100","0.0-1.0-546.0-0.0","0","0","22357","","null","","","null","60","","","","","","","","","","","","","","","",""
"","time_out","","html-keyboard-response","397","475103","0.0-1.0-548.0-0.0","0","0","22357","","null","","","null","60","","","","","","","","","","","","","","","",""
"","ITI","","html-keyboard-response","398","476107","0.0-1.0-549.0","0","0","22357","","null","","","null","60","","","","","","","","","","","","","","","NaN",""
"","S1","","html-keyboard-response","399","476359","0.0-1.0-551.0","0","0","22357","","null","","","null","61","","","","","","","","","","","","","","","",""
"","ISI","","html-keyboard-response","400","477362","0.0-1.0-552.0","0","0","22357","","null","","","null","61","NaN","","","","","","","","","","","","","","",""
"","S2","","html-keyboard-response","401","477614","0.0-1.0-553.0","0","0","22357","","null","","","null","61","","NaN","","","","","","","","","","","","","",""
"","response","","html-keyboard-response","402","478351","0.0-1.0-554.0-0.0","0","0","22357","","736","","","68","61","","","2","61","training","adjacent","AB","1","2","M.jpg","Q.jpg","0","1","0","",""
"","feedback","","html-keyboard-response","403","479353","0.0-1.0-555.0-0.0","0","0","22357","","null","","","null","61","","","","","","","","","","","","","","","",""
"","time_out","","html-keyboard-response","404","481356","0.0-1.0-557.0-0.0","0","0","22357","","null","","","null","61","","","","","","","","","","","","","","","",""
"","ITI","","html-keyboard-response","405","482357","0.0-1.0-558.0","0","0","22357","","null","","","null","61","","","","","","","","","","","","","","","NaN",""
"","S1","","html-keyboard-response","406","482611","0.0-1.0-560.0","0","0","22357","","null","","","null","62","","","","","","","","","","","","","","","",""
"","ISI","","html-keyboard-response","407","483613","0.0-1.0-561.0","0","0","22357","","null","","","null","62","NaN","","","","","","","","","","","","","","",""
"","S2","","html-keyboard-response","408","483867","0.0-1.0-562.0","0","0","22357","","null","","","null","62","","NaN","","","","","","","","","","","","","",""
"","response","","html-keyboard-response","409","484553","0.0-1.0-563.0-0.0","0","0","22357","","685","","","75","62","","","2","62","training","adjacent","BC","2","3","Q.jpg","L.jpg","1","1","1","",""
"","feedback","","html-keyboard-response","410","485554","0.0-1.0-564.0-0.0","0","0","22357","","null","","","null","62","","","","","","","","","","","","","","","",""
"","ITI","","html-keyboard-response","411","486556","0.0-1.0-567.0","0","0","22357","","null","","","null","62","","","","","","","","","","","","","","","NaN",""
"","S1","","html-keyboard-response","412","486810","0.0-1.0-569.0","0","0","22357","","null","","","null","63","","","","","","","","","","","","","","","",""
"","ISI","","html-keyboard-response","413","487812","0.0-1.0-570.0","0","0","22357","","null","","","null","63","NaN","","","","","","","","","","","","","","",""
"","S2","","html-keyboard-response","414","488064","0.0-1.0-571.0","0","0","22357","","null","","","null","63","","NaN","","","","","","","","","","","","","",""
"","response","","html-keyboard-response","415","488259","0.0-1.0-572.0-0.0","0","0","22357","","193","","","68","63","","","2","63","training","adjacent","DE","4","5","N.jpg","R.jpg","0","1","0","",""
"","feedback","","html-keyboard-response","416","489262","0.0-1.0-573.0-0.0","0","0","22357","","null","","","null","63","","","","","","","","","","","","","","","",""
"","time_out","","html-keyboard-response","417","491265","0.0-1.0-575.0-0.0","0","0","22357","","null","","","null","63","","","","","","","","","","","","","","","",""
"","ITI","","html-keyboard-response","418","492269","0.0-1.0-576.0","0","0","22357","","null","","","null","63","","","","","","","","","","","","","","","NaN",""
"","S1","","html-keyboard-response","419","492521","0.0-1.0-578.0","0","0","22357","","null","","","null","64","","","","","","","","","","","","","","","",""
"","ISI","","html-keyboard-response","420","493523","0.0-1.0-579.0","0","0","22357","","null","","","null","64","NaN","","","","","","","","","","","","","","",""
"","S2","","html-keyboard-response","421","493776","0.0-1.0-580.0","0","0","22357","","null","","","null","64","","NaN","","","","","","","","","","","","","",""
"","response","","html-keyboard-response","422","494025","0.0-1.0-581.0-0.0","0","0","22357","","247","","","75","64","","","2","64","training","adjacent","EF","5","6","R.jpg","O.jpg","1","1","1","",""
"","feedback","","html-keyboard-response","423","495028","0.0-1.0-582.0-0.0","0","0","22357","","null","","","null","64","","","","","","","","","","","","","","","",""
"","ITI","","html-keyboard-response","424","496032","0.0-1.0-585.0","0","0","22357","","null","","","null","64","","","","","","","","","","","","","","","NaN",""
"","S1","","html-keyboard-response","425","496284","0.0-1.0-587.0","0","0","22357","","null","","","null","65","","","","","","","","","","","","","","","",""
"","ISI","","html-keyboard-response","426","497286","0.0-1.0-588.0","0","0","22357","","null","","","null","65","NaN","","","","","","","","","","","","","","",""
"","S2","","html-keyboard-response","427","497540","0.0-1.0-589.0","0","0","22357","","null","","","null","65","","NaN","","","","","","","","","","","","","",""
"","response","","html-keyboard-response","428","498195","0.0-1.0-590.0-0.0","0","0","22357","","654","","","75","65","","","2","65","training","adjacent","BA","2","1","Q.jpg","M.jpg","1","0","0","",""
"","feedback","","html-keyboard-response","429","499199","0.0-1.0-591.0-0.0","0","0","22357","","null","","","null","65","","","","","","","","","","","","","","","",""
"","time_out","","html-keyboard-response","430","501203","0.0-1.0-593.0-0.0","0","0","22357","","null","","","null","65","","","","","","","","","","","","","","","",""
"","ITI","","html-keyboard-response","431","502207","0.0-1.0-594.0","0","0","22357","","null","","","null","65","","","","","","","","","","","","","","","NaN",""
"","S1","","html-keyboard-response","432","502460","0.0-1.0-596.0","0","0","22357","","null","","","null","66","","","","","","","","","","","","","","","",""
"","ISI","","html-keyboard-response","433","503463","0.0-1.0-597.0","0","0","22357","","null","","","null","66","NaN","","","","","","","","","","","","","","",""
"","S2","","html-keyboard-response","434","503715","0.0-1.0-598.0","0","0","22357","","null","","","null","66","","NaN","","","","","","","","","","","","","",""
"","response","","html-keyboard-response","435","504083","0.0-1.0-599.0-0.0","0","0","22357","","366","","","75","66","","","2","66","training","adjacent","BA","2","1","Q.jpg","M.jpg","1","0","0","",""
"","feedback","","html-keyboard-response","436","505085","0.0-1.0-600.0-0.0","0","0","22357","","null","","","null","66","","","","","","","","","","","","","","","",""
"","time_out","","html-keyboard-response","437","507087","0.0-1.0-602.0-0.0","0","0","22357","","null","","","null","66","","","","","","","","","","","","","","","",""
"","ITI","","html-keyboard-response","438","508090","0.0-1.0-603.0","0","0","22357","","null","","","null","66","","","","","","","","","","","","","","","NaN",""
"","S1","","html-keyboard-response","439","508344","0.0-1.0-605.0","0","0","22357","","null","","","null","67","","","","","","","","","","","","","","","",""
"","ISI","","html-keyboard-response","440","509346","0.0-1.0-606.0","0","0","22357","","null","","","null","67","NaN","","","","","","","","","","","","","","",""
"","S2","","html-keyboard-response","441","509598","0.0-1.0-607.0","0","0","22357","","null","","","null","67","","NaN","","","","","","","","","","","","","",""
"","response","","html-keyboard-response","442","509911","0.0-1.0-608.0-0.0","0","0","22357","","311","","","75","67","","","2","67","training","adjacent","FG","6","7","O.jpg","P.jpg","1","1","1","",""
"","feedback","","html-keyboard-response","443","510914","0.0-1.0-609.0-0.0","0","0","22357","","null","","","null","67","","","","","","","","","","","","","","","",""
"","ITI","","html-keyboard-response","444","511916","0.0-1.0-612.0","0","0","22357","","null","","","null","67","","","","","","","","","","","","","","","NaN",""
"","S1","","html-keyboard-response","445","512169","0.0-1.0-614.0","0","0","22357","","null","","","null","68","","","","","","","","","","","","","","","",""
"","ISI","","html-keyboard-response","446","513172","0.0-1.0-615.0","0","0","22357","","null","","","null","68","NaN","","","","","","","","","","","","","","",""
"","S2","","html-keyboard-response","447","513424","0.0-1.0-616.0","0","0","22357","","null","","","null","68","","NaN","","","","","","","","","","","","","",""
"","response","","html-keyboard-response","448","513765","0.0-1.0-617.0-0.0","0","0","22357","","339","","","75","68","","","2","68","training","adjacent","BA","2","1","Q.jpg","M.jpg","1","0","0","",""
"","feedback","","html-keyboard-response","449","514769","0.0-1.0-618.0-0.0","0","0","22357","","null","","","null","68","","","","","","","","","","","","","","","",""
"","time_out","","html-keyboard-response","450","516773","0.0-1.0-620.0-0.0","0","0","22357","","null","","","null","68","","","","","","","","","","","","","","","",""
"","ITI","","html-keyboard-response","451","517776","0.0-1.0-621.0","0","0","22357","","null","","","null","68","","","","","","","","","","","","","","","NaN",""
"","S1","","html-keyboard-response","452","518029","0.0-1.0-623.0","0","0","22357","","null","","","null","69","","","","","","","","","","","","","","","",""
"","ISI","","html-keyboard-response","453","519030","0.0-1.0-624.0","0","0","22357","","null","","","null","69","NaN","","","","","","","","","","","","","","",""
"","S2","","html-keyboard-response","454","519284","0.0-1.0-625.0","0","0","22357","","null","","","null","69","","NaN","","","","","","","","","","","","","",""
"","response","","html-keyboard-response","455","519779","0.0-1.0-626.0-0.0","0","0","22357","","493","","","68","69","","","2","69","training","adjacent","CB","3","2","L.jpg","Q.jpg","0","0","1","",""
"","feedback","","html-keyboard-response","456","520781","0.0-1.0-627.0-0.0","0","0","22357","","null","","","null","69","","","","","","","","","","","","","","","",""
"","ITI","","html-keyboard-response","457","521783","0.0-1.0-630.0","0","0","22357","","null","","","null","69","","","","","","","","","","","","","","","NaN",""
"","S1","","html-keyboard-response","458","522035","0.0-1.0-632.0","0","0","22357","","null","","","null","70","","","","","","","","","","","","","","","",""
"","ISI","","html-keyboard-response","459","523038","0.0-1.0-633.0","0","0","22357","","null","","","null","70","NaN","","","","","","","","","","","","","","",""
"","S2","","html-keyboard-response","460","523292","0.0-1.0-634.0","0","0","22357","","null","","","null","70","","NaN","","","","","","","","","","","","","",""
"","response","","html-keyboard-response","461","523805","0.0-1.0-635.0-0.0","0","0","22357","","511","","","75","70","","","2","70","training","adjacent","DC","4","3","N.jpg","L.jpg","1","0","0","",""
"","feedback","","html-keyboard-response","462","524809","0.0-1.0-636.0-0.0","0","0","22357","","null","","","null","70","","","","","","","","","","","","","","","",""
"","time_out","","html-keyboard-response","463","526811","0.0-1.0-638.0-0.0","0","0","22357","","null","","","null","70","","","","","","","","","","","","","","","",""
"","ITI","","html-keyboard-response","464","527813","0.0-1.0-639.0","0","0","22357","","null","","","null","70","","","","","","","","","","","","","","","NaN",""
"","S1","","html-keyboard-response","465","528066","0.0-1.0-641.0","0","0","22357","","null","","","null","71","","","","","","","","","","","","","","","",""
"","ISI","","html-keyboard-response","466","529068","0.0-1.0-642.0","0","0","22357","","null","","","null","71","NaN","","","","","","","","","","","","","","",""
"","S2","","html-keyboard-response","467","529320","0.0-1.0-643.0","0","0","22357","","null","","","null","71","","NaN","","","","","","","","","","","","","",""
"","response","","html-keyboard-response","468","529856","0.0-1.0-644.0-0.0","0","0","22357","","534","","","68","71","","","2","71","training","adjacent","DE","4","5","N.jpg","R.jpg","0","1","0","",""
"","feedback","","html-keyboard-response","469","530860","0.0-1.0-645.0-0.0","0","0","22357","","null","","","null","71","","","","","","","","","","","","","","","",""
"","time_out","","html-keyboard-response","470","532863","0.0-1.0-647.0-0.0","0","0","22357","","null","","","null","71","","","","","","","","","","","","","","","",""
"","ITI","","html-keyboard-response","471","533867","0.0-1.0-648.0","0","0","22357","","null","","","null","71","","","","","","","","","","","","","","","NaN",""
"","S1","","html-keyboard-response","472","534120","0.0-1.0-650.0","0","0","22357","","null","","","null","72","","","","","","","","","","","","","","","",""
"","ISI","","html-keyboard-response","473","535122","0.0-1.0-651.0","0","0","22357","","null","","","null","72","NaN","","","","","","","","","","","","","","",""
"","S2","","html-keyboard-response","474","535375","0.0-1.0-652.0","0","0","22357","","null","","","null","72","","NaN","","","","","","","","","","","","","",""
"","response","","html-keyboard-response","475","535911","0.0-1.0-653.0-0.0","0","0","22357","","534","","","75","72","","","2","72","training","adjacent","EF","5","6","R.jpg","O.jpg","1","1","1","",""
"","feedback","","html-keyboard-response","476","536913","0.0-1.0-654.0-0.0","0","0","22357","","null","","","null","72","","","","","","","","","","","","","","","",""
"","ITI","","html-keyboard-response","477","537916","0.0-1.0-657.0","0","0","22357","","null","","","null","72","","","","","","","","","","","","","","","NaN",""
"","S1","","html-keyboard-response","478","538170","0.0-1.0-659.0","0","0","22357","","null","","","null","73","","","","","","","","","","","","","","","",""
"","ISI","","html-keyboard-response","479","539172","0.0-1.0-660.0","0","0","22357","","null","","","null","73","NaN","","","","","","","","","","","","","","",""
"","S2","","html-keyboard-response","480","539425","0.0-1.0-661.0","0","0","22357","","null","","","null","73","","NaN","","","","","","","","","","","","","",""
"","response","","html-keyboard-response","481","539912","0.0-1.0-662.0-0.0","0","0","22357","","486","","","75","73","","","2","73","training","adjacent","DC","4","3","N.jpg","L.jpg","1","0","0","",""
"","feedback","","html-keyboard-response","482","540915","0.0-1.0-663.0-0.0","0","0","22357","","null","","","null","73","","","","","","","","","","","","","","","",""
"","time_out","","html-keyboard-response","483","542917","0.0-1.0-665.0-0.0","0","0","22357","","null","","","null","73","","","","","","","","","","","","","","","",""
"","ITI","","html-keyboard-response","484","543920","0.0-1.0-666.0","0","0","22357","","null","","","null","73","","","","","","","","","","","","","","","NaN",""
"","S1","","html-keyboard-response","485","544174","0.0-1.0-668.0","0","0","22357","","null","","","null","74","","","","","","","","","","","","","","","",""
"","ISI","","html-keyboard-response","486","545176","0.0-1.0-669.0","0","0","22357","","null","","","null","74","NaN","","","","","","","","","","","","","","",""
"","S2","","html-keyboard-response","487","545429","0.0-1.0-670.0","0","0","22357","","null","","","null","74","","NaN","","","","","","","","","","","","","",""
"","response","","html-keyboard-response","488","546307","0.0-1.0-671.0-0.0","0","0","22357","","876","","","68","74","","","2","74","training","adjacent","GF","7","6","P.jpg","O.jpg","0","0","1","",""
"","feedback","","html-keyboard-response","489","547309","0.0-1.0-672.0-0.0","0","0","22357","","null","","","null","74","","","","","","","","","","","","","","","",""
"","ITI","","html-keyboard-response","490","548311","0.0-1.0-675.0","0","0","22357","","null","","","null","74","","","","","","","","","","","","","","","NaN",""
"","S1","","html-keyboard-response","491","548565","0.0-1.0-677.0","0","0","22357","","null","","","null","75","","","","","","","","","","","","","","","",""
"","ISI","","html-keyboard-response","492","549568","0.0-1.0-678.0","0","0","22357","","null","","","null","75","NaN","","","","","","","","","","","","","","",""
"","S2","","html-keyboard-response","493","549820","0.0-1.0-679.0","0","0","22357","","null","","","null","75","","NaN","","","","","","","","","","","","","",""
"","response","","html-keyboard-response","494","551120","0.0-1.0-680.0-0.0","0","0","22357","","1297","","","75","75","","","2","75","training","adjacent","BC","2","3","Q.jpg","L.jpg","1","1","1","",""
"","feedback","","html-keyboard-response","495","552123","0.0-1.0-681.0-0.0","0","0","22357","","null","","","null","75","","","","","","","","","","","","","","","",""
"","ITI","","html-keyboard-response","496","553126","0.0-1.0-684.0","0","0","22357","","null","","","null","75","","","","","","","","","","","","","","","NaN",""
"","S1","","html-keyboard-response","497","553379","0.0-1.0-686.0","0","0","22357","","null","","","null","76","","","","","","","","","","","","","","","",""
"","ISI","","html-keyboard-response","498","554382","0.0-1.0-687.0","0","0","22357","","null","","","null","76","NaN","","","","","","","","","","","","","","",""
"","S2","","html-keyboard-response","499","554634","0.0-1.0-688.0","0","0","22357","","null","","","null","76","","NaN","","","","","","","","","","","","","",""
"","response","","html-keyboard-response","500","555302","0.0-1.0-689.0-0.0","0","0","22357","","666","","","68","76","","","2","76","training","adjacent","FE","6","5","O.jpg","R.jpg","0","0","1","",""
"","feedback","","html-keyboard-response","501","556306","0.0-1.0-690.0-0.0","0","0","22357","","null","","","null","76","","","","","","","","","","","","","","","",""
"","ITI","","html-keyboard-response","502","557308","0.0-1.0-693.0","0","0","22357","","null","","","null","76","","","","","","","","","","","","","","","NaN",""
"","S1","","html-keyboard-response","503","557561","0.0-1.0-695.0","0","0","22357","","null","","","null","77","","","","","","","","","","","","","","","",""
"","ISI","","html-keyboard-response","504","558564","0.0-1.0-696.0","0","0","22357","","null","","","null","77","NaN","","","","","","","","","","","","","","",""
"","S2","","html-keyboard-response","505","558818","0.0-1.0-697.0","0","0","22357","","null","","","null","77","","NaN","","","","","","","","","","","","","",""
"","response","","html-keyboard-response","506","559595","0.0-1.0-698.0-0.0","0","0","22357","","775","","","68","77","","","2","77","training","adjacent","DE","4","5","N.jpg","R.jpg","0","1","0","",""
"","feedback","","html-keyboard-response","507","560598","0.0-1.0-699.0-0.0","0","0","22357","","null","","","null","77","","","","","","","","","","","","","","","",""
"","time_out","","html-keyboard-response","508","562601","0.0-1.0-701.0-0.0","0","0","22357","","null","","","null","77","","","","","","","","","","","","","","","",""
"","ITI","","html-keyboard-response","509","563603","0.0-1.0-702.0","0","0","22357","","null","","","null","77","","","","","","","","","","","","","","","NaN",""
"","S1","","html-keyboard-response","510","563857","0.0-1.0-704.0","0","0","22357","","null","","","null","78","","","","","","","","","","","","","","","",""
"","ISI","","html-keyboard-response","511","564860","0.0-1.0-705.0","0","0","22357","","null","","","null","78","NaN","","","","","","","","","","","","","","",""
"","S2","","html-keyboard-response","512","565112","0.0-1.0-706.0","0","0","22357","","null","","","null","78","","NaN","","","","","","","","","","","","","",""
"","response","","html-keyboard-response","513","565373","0.0-1.0-707.0-0.0","0","0","22357","","260","","","68","78","","","2","78","training","adjacent","CD","3","4","L.jpg","N.jpg","0","1","0","",""
"","feedback","","html-keyboard-response","514","566375","0.0-1.0-708.0-0.0","0","0","22357","","null","","","null","78","","","","","","","","","","","","","","","",""
"","time_out","","html-keyboard-response","515","568377","0.0-1.0-710.0-0.0","0","0","22357","","null","","","null","78","","","","","","","","","","","","","","","",""
"","ITI","","html-keyboard-response","516","569379","0.0-1.0-711.0","0","0","22357","","null","","","null","78","","","","","","","","","","","","","","","NaN",""
"","S1","","html-keyboard-response","517","569631","0.0-1.0-713.0","0","0","22357","","null","","","null","79","","","","","","","","","","","","","","","",""
"","ISI","","html-keyboard-response","518","570634","0.0-1.0-714.0","0","0","22357","","null","","","null","79","NaN","","","","","","","","","","","","","","",""
"","S2","","html-keyboard-response","519","570887","0.0-1.0-715.0","0","0","22357","","null","","","null","79","","NaN","","","","","","","","","","","","","",""
"","response","","html-keyboard-response","520","571734","0.0-1.0-716.0-0.0","0","0","22357","","845","","","75","79","","","2","79","training","adjacent","FG","6","7","O.jpg","P.jpg","1","1","1","",""
"","feedback","","html-keyboard-response","521","572738","0.0-1.0-717.0-0.0","0","0","22357","","null","","","null","79","","","","","","","","","","","","","","","",""
"","ITI","","html-keyboard-response","522","573742","0.0-1.0-720.0","0","0","22357","","null","","","null","79","","","","","","","","","","","","","","","NaN",""
"","S1","","html-keyboard-response","523","573995","0.0-1.0-722.0","0","0","22357","","null","","","null","80","","","","","","","","","","","","","","","",""
"","ISI","","html-keyboard-response","524","574997","0.0-1.0-723.0","0","0","22357","","null","","","null","80","NaN","","","","","","","","","","","","","","",""
"","S2","","html-keyboard-response","525","575251","0.0-1.0-724.0","0","0","22357","","null","","","null","80","","NaN","","","","","","","","","","","","","",""
"","response","","html-keyboard-response","526","575688","0.0-1.0-725.0-0.0","0","0","22357","","435","","","75","80","","","2","80","training","adjacent","DC","4","3","N.jpg","L.jpg","1","0","0","",""
"","feedback","","html-keyboard-response","527","576691","0.0-1.0-726.0-0.0","0","0","22357","","null","","","null","80","","","","","","","","","","","","","","","",""
"","time_out","","html-keyboard-response","528","578695","0.0-1.0-728.0-0.0","0","0","22357","","null","","","null","80","","","","","","","","","","","","","","","",""
"","ITI","","html-keyboard-response","529","579699","0.0-1.0-729.0","0","0","22357","","null","","","null","80","","","","","","","","","","","","","","","NaN",""
"","S1","","html-keyboard-response","530","579952","0.0-1.0-731.0","0","0","22357","","null","","","null","81","","","","","","","","","","","","","","","",""
"","ISI","","html-keyboard-response","531","580955","0.0-1.0-732.0","0","0","22357","","null","","","null","81","NaN","","","","","","","","","","","","","","",""
"","S2","","html-keyboard-response","532","581208","0.0-1.0-733.0","0","0","22357","","null","","","null","81","","NaN","","","","","","","","","","","","","",""
"","response","","html-keyboard-response","533","581340","0.0-1.0-734.0-0.0","0","0","22357","","130","","","75","81","","","2","81","training","adjacent","FG","6","7","O.jpg","P.jpg","1","1","1","",""
"","feedback","","html-keyboard-response","534","582343","0.0-1.0-735.0-0.0","0","0","22357","","null","","","null","81","","","","","","","","","","","","","","","",""
"","ITI","","html-keyboard-response","535","583345","0.0-1.0-738.0","0","0","22357","","null","","","null","81","","","","","","","","","","","","","","","NaN",""
"","S1","","html-keyboard-response","536","583598","0.0-1.0-740.0","0","0","22357","","null","","","null","82","","","","","","","","","","","","","","","",""
"","ISI","","html-keyboard-response","537","584601","0.0-1.0-741.0","0","0","22357","","null","","","null","82","NaN","","","","","","","","","","","","","","",""
"","S2","","html-keyboard-response","538","584855","0.0-1.0-742.0","0","0","22357","","null","","","null","82","","NaN","","","","","","","","","","","","","",""
"","response","","html-keyboard-response","539","585311","0.0-1.0-743.0-0.0","0","0","22357","","456","","","75","82","","","2","82","training","adjacent","ED","5","4","R.jpg","N.jpg","1","0","0","",""
"","feedback","","html-keyboard-response","540","586314","0.0-1.0-744.0-0.0","0","0","22357","","null","","","null","82","","","","","","","","","","","","","","","",""
"","time_out","","html-keyboard-response","541","588315","0.0-1.0-746.0-0.0","0","0","22357","","null","","","null","82","","","","","","","","","","","","","","","",""
"","ITI","","html-keyboard-response","542","589318","0.0-1.0-747.0","0","0","22357","","null","","","null","82","","","","","","","","","","","","","","","NaN",""
"","S1","","html-keyboard-response","543","589572","0.0-1.0-749.0","0","0","22357","","null","","","null","83","","","","","","","","","","","","","","","",""
"","ISI","","html-keyboard-response","544","590573","0.0-1.0-750.0","0","0","22357","","null","","","null","83","NaN","","","","","","","","","","","","","","",""
"","S2","","html-keyboard-response","545","590826","0.0-1.0-751.0","0","0","22357","","null","","","null","83","","NaN","","","","","","","","","","","","","",""
"","response","","html-keyboard-response","546","591662","0.0-1.0-752.0-0.0","0","0","22357","","834","","","68","83","","","2","83","training","adjacent","AB","1","2","M.jpg","Q.jpg","0","1","0","",""
"","feedback","","html-keyboard-response","547","592666","0.0-1.0-753.0-0.0","0","0","22357","","null","","","null","83","","","","","","","","","","","","","","","",""
"","time_out","","html-keyboard-response","548","594668","0.0-1.0-755.0-0.0","0","0","22357","","null","","","null","83","","","","","","","","","","","","","","","",""
"","ITI","","html-keyboard-response","549","595671","0.0-1.0-756.0","0","0","22357","","null","","","null","83","","","","","","","","","","","","","","","NaN",""
"","S1","","html-keyboard-response","550","595923","0.0-1.0-758.0","0","0","22357","","null","","","null","84","","","","","","","","","","","","","","","",""
"","ISI","","html-keyboard-response","551","596927","0.0-1.0-759.0","0","0","22357","","null","","","null","84","NaN","","","","","","","","","","","","","","",""
"","S2","","html-keyboard-response","552","597180","0.0-1.0-760.0","0","0","22357","","null","","","null","84","","NaN","","","","","","","","","","","","","",""
"","response","","html-keyboard-response","553","598034","0.0-1.0-761.0-0.0","0","0","22357","","852","","","68","84","","","2","84","training","adjacent","GF","7","6","P.jpg","O.jpg","0","0","1","",""
"","feedback","","html-keyboard-response","554","599036","0.0-1.0-762.0-0.0","0","0","22357","","null","","","null","84","","","","","","","","","","","","","","","",""
"","ITI","","html-keyboard-response","555","600038","0.0-1.0-765.0","0","0","22357","","null","","","null","84","","","","","","","","","","","","","","","NaN",""
"","S1","","html-keyboard-response","556","600291","0.0-1.0-767.0","0","0","22357","","null","","","null","85","","","","","","","","","","","","","","","",""
"","ISI","","html-keyboard-response","557","601293","0.0-1.0-768.0","0","0","22357","","null","","","null","85","NaN","","","","","","","","","","","","","","",""
"","S2","","html-keyboard-response","558","601546","0.0-1.0-769.0","0","0","22357","","null","","","null","85","","NaN","","","","","","","","","","","","","",""
"","response","","html-keyboard-response","559","602243","0.0-1.0-770.0-0.0","0","0","22357","","695","","","68","85","","","2","85","training","adjacent","CB","3","2","L.jpg","Q.jpg","0","0","1","",""
"","feedback","","html-keyboard-response","560","603245","0.0-1.0-771.0-0.0","0","0","22357","","null","","","null","85","","","","","","","","","","","","","","","",""
"","ITI","","html-keyboard-response","561","604247","0.0-1.0-774.0","0","0","22357","","null","","","null","85","","","","","","","","","","","","","","","NaN",""
"","S1","","html-keyboard-response","562","604500","0.0-1.0-776.0","0","0","22357","","null","","","null","86","","","","","","","","","","","","","","","",""
"","ISI","","html-keyboard-response","563","605503","0.0-1.0-777.0","0","0","22357","","null","","","null","86","NaN","","","","","","","","","","","","","","",""
"","S2","","html-keyboard-response","564","605756","0.0-1.0-778.0","0","0","22357","","null","","","null","86","","NaN","","","","","","","","","","","","","",""
"","response","","html-keyboard-response","565","606198","0.0-1.0-779.0-0.0","0","0","22357","","440","","","75","86","","","2","86","training","adjacent","EF","5","6","R.jpg","O.jpg","1","1","1","",""
"","feedback","","html-keyboard-response","566","607202","0.0-1.0-780.0-0.0","0","0","22357","","null","","","null","86","","","","","","","","","","","","","","","",""
"","ITI","","html-keyboard-response","567","608205","0.0-1.0-783.0","0","0","22357","","null","","","null","86","","","","","","","","","","","","","","","NaN",""
"","S1","","html-keyboard-response","568","608457","0.0-1.0-785.0","0","0","22357","","null","","","null","87","","","","","","","","","","","","","","","",""
"","ISI","","html-keyboard-response","569","609461","0.0-1.0-786.0","0","0","22357","","null","","","null","87","NaN","","","","","","","","","","","","","","",""
"","S2","","html-keyboard-response","570","609713","0.0-1.0-787.0","0","0","22357","","null","","","null","87","","NaN","","","","","","","","","","","","","",""
"","response","","html-keyboard-response","571","609862","0.0-1.0-788.0-0.0","0","0","22357","","147","","","68","87","","","2","87","training","adjacent","AB","1","2","M.jpg","Q.jpg","0","1","0","",""
"","feedback","","html-keyboard-response","572","610865","0.0-1.0-789.0-0.0","0","0","22357","","null","","","null","87","","","","","","","","","","","","","","","",""
"","time_out","","html-keyboard-response","573","612869","0.0-1.0-791.0-0.0","0","0","22357","","null","","","null","87","","","","","","","","","","","","","","","",""
"","ITI","","html-keyboard-response","574","613872","0.0-1.0-792.0","0","0","22357","","null","","","null","87","","","","","","","","","","","","","","","NaN",""
"","S1","","html-keyboard-response","575","614124","0.0-1.0-794.0","0","0","22357","","null","","","null","88","","","","","","","","","","","","","","","",""
"","ISI","","html-keyboard-response","576","615126","0.0-1.0-795.0","0","0","22357","","null","","","null","88","NaN","","","","","","","","","","","","","","",""
"","S2","","html-keyboard-response","577","615380","0.0-1.0-796.0","0","0","22357","","null","","","null","88","","NaN","","","","","","","","","","","","","",""
"","response","","html-keyboard-response","578","615563","0.0-1.0-797.0-0.0","0","0","22357","","181","","","75","88","","","2","88","training","adjacent","DE","4","5","N.jpg","R.jpg","1","1","1","",""
"","feedback","","html-keyboard-response","579","616567","0.0-1.0-798.0-0.0","0","0","22357","","null","","","null","88","","","","","","","","","","","","","","","",""
"","ITI","","html-keyboard-response","580","617571","0.0-1.0-801.0","0","0","22357","","null","","","null","88","","","","","","","","","","","","","","","NaN",""
"","S1","","html-keyboard-response","581","617825","0.0-1.0-803.0","0","0","22357","","null","","","null","89","","","","","","","","","","","","","","","",""
"","ISI","","html-keyboard-response","582","618829","0.0-1.0-804.0","0","0","22357","","null","","","null","89","NaN","","","","","","","","","","","","","","",""
