"success","ttype","start_time","trial_type","trial_index","time_elapsed","internal_node_id","warning","missed_checkup","PID","view_history","rt","responses","repeat_instructions","key_press","index","keypress_isi","keypress_S2","block","trial_num","phase","group_type","pair_type","S1_stim","S2_stim","S1_img","S2_img","S1_chosen","S1_higher","accuracy","keypress_iti","total_bonus_tally"
"true","full_screen","d03072023hr1856","fullscreen","0","7103","0.0-0.0","0","0","34408","","","","","","","","","","","","","","","","","","","","","",""
"","instructions","","instructions","1","57581","0.0-1.0-0.0-0.0","0","0","34408","[{""page_index"":0,""viewing_time"":3548},{""page_index"":1,""viewing_time"":29992},{""page_index"":2,""viewing_time"":14903},{""page_index"":3,""viewing_time"":2032}]","50476","","","","","","","","","","","","","","","","","","","",""
"","comprehension_check","","survey-multi-choice","2","90005","0.0-1.0-0.0-1.0","0","0","34408","","32419","{""Q0"":""True"",""Q1"":""D"",""Q2"":""Once the second image appears and while the screen 'MAKE A CHOICE' is shown"",""Q3"":""Green mark"",""Q4"":""either D or K""}","0","","","","","","","","","","","","","","","","","",""
"","start_exp","","html-keyboard-response","3","99609","0.0-1.0-1.0","0","0","34408","","9600","","","32","","","","","","","","","","","","","","","","",""
"","S1","","html-keyboard-response","4","99863","0.0-1.0-2.0","0","0","34408","","null","","","null","0","","","","","","","","","","","","","","","",""
"","ISI","","html-keyboard-response","5","100866","0.0-1.0-3.0","0","0","34408","","null","","","null","0","NaN","","","","","","","","","","","","","","",""
"","S2","","html-keyboard-response","6","101118","0.0-1.0-4.0","0","0","34408","","null","","","null","0","","NaN","","","","","","","","","","","","","",""
"","response","","html-keyboard-response","7","102009","0.0-1.0-5.0-0.0","0","0","34408","","888","","","68","0","","","1","0","training","adjacent","DC","4","3","N.jpg","Q.jpg","1","0","0","",""
"","feedback","","html-keyboard-response","8","103012","0.0-1.0-6.0-0.0","0","0","34408","","null","","","null","0","","","","","","","","","","","","","","","",""
"","time_out","","html-keyboard-response","9","105020","0.0-1.0-8.0-0.0","0","0","34408","","null","","","null","0","","","","","","","","","","","","","","","",""
"","ITI","","html-keyboard-response","10","106022","0.0-1.0-9.0","0","0","34408","","null","","","null","0","","","","","","","","","","","","","","","NaN",""
"","S1","","html-keyboard-response","11","106275","0.0-1.0-11.0","0","0","34408","","null","","","null","1","","","","","","","","","","","","","","","",""
"","ISI","","html-keyboard-response","12","107277","0.0-1.0-12.0","0","0","34408","","null","","","null","1","NaN","","","","","","","","","","","","","","",""
"","S2","","html-keyboard-response","13","107530","0.0-1.0-13.0","0","0","34408","","null","","","null","1","","NaN","","","","","","","","","","","","","",""
"","response","","html-keyboard-response","14","108144","0.0-1.0-14.0-0.0","0","0","34408","","613","","","75","1","","","1","1","training","adjacent","AB","1","2","L.jpg","P.jpg","0","1","0","",""
"","feedback","","html-keyboard-response","15","109147","0.0-1.0-15.0-0.0","0","0","34408","","null","","","null","1","","","","","","","","","","","","","","","",""
"","time_out","","html-keyboard-response","16","111150","0.0-1.0-17.0-0.0","0","0","34408","","null","","","null","1","","","","","","","","","","","","","","","",""
"","ITI","","html-keyboard-response","17","112152","0.0-1.0-18.0","0","0","34408","","null","","","null","1","","","","","","","","","","","","","","","NaN",""
"","S1","","html-keyboard-response","18","112405","0.0-1.0-20.0","0","0","34408","","null","","","null","2","","","","","","","","","","","","","","","",""
"","ISI","","html-keyboard-response","19","113407","0.0-1.0-21.0","0","0","34408","","null","","","null","2","NaN","","","","","","","","","","","","","","",""
"","S2","","html-keyboard-response","20","113660","0.0-1.0-22.0","0","0","34408","","null","","","null","2","","NaN","","","","","","","","","","","","","",""
"","response","","html-keyboard-response","21","113800","0.0-1.0-23.0-0.0","0","0","34408","","138","","","75","2","","","1","2","training","adjacent","CB","3","2","Q.jpg","P.jpg","0","0","1","",""
"","feedback","","html-keyboard-response","22","114803","0.0-1.0-24.0-0.0","0","0","34408","","null","","","null","2","","","","","","","","","","","","","","","",""
"","ITI","","html-keyboard-response","23","115805","0.0-1.0-27.0","0","0","34408","","null","","","null","2","","","","","","","","","","","","","","","NaN",""
"","S1","","html-keyboard-response","24","116058","0.0-1.0-29.0","0","0","34408","","null","","","null","3","","","","","","","","","","","","","","","",""
"","ISI","","html-keyboard-response","25","117061","0.0-1.0-30.0","0","0","34408","","null","","","null","3","NaN","","","","","","","","","","","","","","",""
"","S2","","html-keyboard-response","26","117313","0.0-1.0-31.0","0","0","34408","","null","","","null","3","","NaN","","","","","","","","","","","","","",""
"","response","","html-keyboard-response","27","117345","0.0-1.0-32.0-0.0","0","0","34408","","29","","","75","3","","","1","3","training","adjacent","CD","3","4","Q.jpg","N.jpg","0","1","0","",""
"","feedback","","html-keyboard-response","28","118347","0.0-1.0-33.0-0.0","0","0","34408","","null","","","null","3","","","","","","","","","","","","","","","",""
"","time_out","","html-keyboard-response","29","120350","0.0-1.0-35.0-0.0","0","0","34408","","null","","","null","3","","","","","","","","","","","","","","","",""
"","ITI","","html-keyboard-response","30","121352","0.0-1.0-36.0","0","0","34408","","null","","","null","3","","","","","","","","","","","","","","","NaN",""
"","S1","","html-keyboard-response","31","121605","0.0-1.0-38.0","0","0","34408","","null","","","null","4","","","","","","","","","","","","","","","",""
"","ISI","","html-keyboard-response","32","122608","0.0-1.0-39.0","0","0","34408","","null","","","null","4","NaN","","","","","","","","","","","","","","",""
"","S2","","html-keyboard-response","33","122862","0.0-1.0-40.0","0","0","34408","","null","","","null","4","","NaN","","","","","","","","","","","","","",""
"","response","","html-keyboard-response","34","122985","0.0-1.0-41.0-0.0","0","0","34408","","121","","","68","4","","","1","4","training","adjacent","FG","6","7","R.jpg","M.jpg","1","1","1","",""
"","feedback","","html-keyboard-response","35","123988","0.0-1.0-42.0-0.0","0","0","34408","","null","","","null","4","","","","","","","","","","","","","","","",""
"","ITI","","html-keyboard-response","36","124990","0.0-1.0-45.0","0","0","34408","","null","","","null","4","","","","","","","","","","","","","","","NaN",""
"","S1","","html-keyboard-response","37","125242","0.0-1.0-47.0","0","0","34408","","null","","","null","5","","","","","","","","","","","","","","","",""
"","ISI","","html-keyboard-response","38","126245","0.0-1.0-48.0","0","0","34408","","null","","","null","5","NaN","","","","","","","","","","","","","","",""
"","S2","","html-keyboard-response","39","126498","0.0-1.0-49.0","0","0","34408","","null","","","null","5","","NaN","","","","","","","","","","","","","",""
"","response","","html-keyboard-response","40","127185","0.0-1.0-50.0-0.0","0","0","34408","","685","","","68","5","","","1","5","training","adjacent","CD","3","4","Q.jpg","N.jpg","1","1","1","",""
"","feedback","","html-keyboard-response","41","128187","0.0-1.0-51.0-0.0","0","0","34408","","null","","","null","5","","","","","","","","","","","","","","","",""
"","ITI","","html-keyboard-response","42","129190","0.0-1.0-54.0","0","0","34408","","null","","","null","5","","","","","","","","","","","","","","","NaN",""
"","S1","","html-keyboard-response","43","129443","0.0-1.0-56.0","0","0","34408","","null","","","null","6","","","","","","","","","","","","","","","",""
"","ISI","","html-keyboard-response","44","130446","0.0-1.0-57.0","0","0","34408","","null","","","null","6","NaN","","","","","","","","","","","","","","",""
"","S2","","html-keyboard-response","45","130699","0.0-1.0-58.0","0","0","34408","","null","","","null","6","","NaN","","","","","","","","","","","","","",""
"","response","","html-keyboard-response","46","131400","0.0-1.0-59.0-0.0","0","0","34408","","700","","","75","6","","","1","6","training","adjacent","FE","6","5","R.jpg","O.jpg","0","0","1","",""
"","feedback","","html-keyboard-response","47","132403","0.0-1.0-60.0-0.0","0","0","34408","","null","","","null","6","","","","","","","","","","","","","","","",""
"","ITI","","html-keyboard-response","48","133406","0.0-1.0-63.0","0","0","34408","","null","","","null","6","","","","","","","","","","","","","","","NaN",""
"","S1","","html-keyboard-response","49","133659","0.0-1.0-65.0","0","0","34408","","null","","","null","7","","","","","","","","","","","","","","","",""
"","ISI","","html-keyboard-response","50","134662","0.0-1.0-66.0","0","0","34408","","null","","","null","7","NaN","","","","","","","","","","","","","","",""
"","S2","","html-keyboard-response","51","134914","0.0-1.0-67.0","0","0","34408","","null","","","null","7","","NaN","","","","","","","","","","","","","",""
"","response","","html-keyboard-response","52","135352","0.0-1.0-68.0-0.0","0","0","34408","","437","","","68","7","","","1","7","training","adjacent","BC","2","3","P.jpg","Q.jpg","1","1","1","",""
"","feedback","","html-keyboard-response","53","136355","0.0-1.0-69.0-0.0","0","0","34408","","null","","","null","7","","","","","","","","","","","","","","","",""
"","ITI","","html-keyboard-response","54","137357","0.0-1.0-72.0","0","0","34408","","null","","","null","7","","","","","","","","","","","","","","","NaN",""
"","S1","","html-keyboard-response","55","137610","0.0-1.0-74.0","0","0","34408","","null","","","null","8","","","","","","","","","","","","","","","",""
"","ISI","","html-keyboard-response","56","138612","0.0-1.0-75.0","0","0","34408","","null","","","null","8","NaN","","","","","","","","","","","","","","",""
"","S2","","html-keyboard-response","57","138817","0.0-1.0-76.0","0","0","34408","","202","","","75","8","","k","1","8","training","adjacent","DE","4","5","N.jpg","O.jpg","0","1","0","",""
"","feedback","","html-keyboard-response","58","139820","0.0-1.0-78.0-0.0","0","0","34408","","null","","","null","8","","","","","","","","","","","","","","","",""
"","time_out","","html-keyboard-response","59","141823","0.0-1.0-80.0-0.0","0","0","34408","","null","","","null","8","","","","","","","","","","","","","","","",""
"","ITI","","html-keyboard-response","60","142825","0.0-1.0-81.0","0","0","34408","","288","","","68","8","","","","","","","","","","","","","","","d",""
"","S1","","html-keyboard-response","61","143078","0.0-1.0-83.0","0","0","34408","","null","","","null","9","","","","","","","","","","","","","","","",""
"","ISI","","html-keyboard-response","62","144081","0.0-1.0-84.0","0","0","34408","","null","","","null","9","NaN","","","","","","","","","","","","","","",""
"","S2","","html-keyboard-response","63","144334","0.0-1.0-85.0","0","0","34408","","null","","","null","9","","NaN","","","","","","","","","","","","","",""
"","response","","html-keyboard-response","64","144880","0.0-1.0-86.0-0.0","0","0","34408","","545","","","75","9","","","1","9","training","adjacent","EF","5","6","O.jpg","R.jpg","0","1","0","",""
"","feedback","","html-keyboard-response","65","145883","0.0-1.0-87.0-0.0","0","0","34408","","null","","","null","9","","","","","","","","","","","","","","","",""
"","time_out","","html-keyboard-response","66","147885","0.0-1.0-89.0-0.0","0","0","34408","","null","","","null","9","","","","","","","","","","","","","","","",""
"","ITI","","html-keyboard-response","67","148887","0.0-1.0-90.0","0","0","34408","","null","","","null","9","","","","","","","","","","","","","","","NaN",""
"","S1","","html-keyboard-response","68","149140","0.0-1.0-92.0","0","0","34408","","null","","","null","10","","","","","","","","","","","","","","","",""
"","ISI","","html-keyboard-response","69","150147","0.0-1.0-93.0","0","0","34408","","null","","","null","10","NaN","","","","","","","","","","","","","","",""
"","S2","","html-keyboard-response","70","150400","0.0-1.0-94.0","0","0","34408","","null","","","null","10","","NaN","","","","","","","","","","","","","",""
"","response","","html-keyboard-response","71","151048","0.0-1.0-95.0-0.0","0","0","34408","","646","","","75","10","","","1","10","training","adjacent","CD","3","4","Q.jpg","N.jpg","0","1","0","",""
"","feedback","","html-keyboard-response","72","152052","0.0-1.0-96.0-0.0","0","0","34408","","null","","","null","10","","","","","","","","","","","","","","","",""
"","time_out","","html-keyboard-response","73","154054","0.0-1.0-98.0-0.0","0","0","34408","","null","","","null","10","","","","","","","","","","","","","","","",""
"","ITI","","html-keyboard-response","74","155056","0.0-1.0-99.0","0","0","34408","","null","","","null","10","","","","","","","","","","","","","","","NaN",""
"","S1","","html-keyboard-response","75","155309","0.0-1.0-101.0","0","0","34408","","null","","","null","11","","","","","","","","","","","","","","","",""
"","ISI","","html-keyboard-response","76","156311","0.0-1.0-102.0","0","0","34408","","null","","","null","11","NaN","","","","","","","","","","","","","","",""
"","S2","","html-keyboard-response","77","156563","0.0-1.0-103.0","0","0","34408","","null","","","null","11","","NaN","","","","","","","","","","","","","",""
"","response","","html-keyboard-response","78","156864","0.0-1.0-104.0-0.0","0","0","34408","","299","","","68","11","","","1","11","training","adjacent","EF","5","6","O.jpg","R.jpg","1","1","1","",""
"","feedback","","html-keyboard-response","79","157868","0.0-1.0-105.0-0.0","0","0","34408","","null","","","null","11","","","","","","","","","","","","","","","",""
"","ITI","","html-keyboard-response","80","158871","0.0-1.0-108.0","0","0","34408","","null","","","null","11","","","","","","","","","","","","","","","NaN",""
"","S1","","html-keyboard-response","81","159124","0.0-1.0-110.0","0","0","34408","","null","","","null","12","","","","","","","","","","","","","","","",""
"","ISI","","html-keyboard-response","82","160126","0.0-1.0-111.0","0","0","34408","","null","","","null","12","NaN","","","","","","","","","","","","","","",""
"","S2","","html-keyboard-response","83","160379","0.0-1.0-112.0","0","0","34408","","null","","","null","12","","NaN","","","","","","","","","","","","","",""
"","response","","html-keyboard-response","84","161320","0.0-1.0-113.0-0.0","0","0","34408","","940","","","68","12","","","1","12","training","adjacent","FG","6","7","R.jpg","M.jpg","1","1","1","",""
"","feedback","","html-keyboard-response","85","162324","0.0-1.0-114.0-0.0","0","0","34408","","null","","","null","12","","","","","","","","","","","","","","","",""
"","ITI","","html-keyboard-response","86","163327","0.0-1.0-117.0","0","0","34408","","null","","","null","12","","","","","","","","","","","","","","","NaN",""
"","S1","","html-keyboard-response","87","163580","0.0-1.0-119.0","0","0","34408","","null","","","null","13","","","","","","","","","","","","","","","",""
"","ISI","","html-keyboard-response","88","164582","0.0-1.0-120.0","0","0","34408","","null","","","null","13","NaN","","","","","","","","","","","","","","",""
"","S2","","html-keyboard-response","89","164835","0.0-1.0-121.0","0","0","34408","","null","","","null","13","","NaN","","","","","","","","","","","","","",""
"","response","","html-keyboard-response","90","165528","0.0-1.0-122.0-0.0","0","0","34408","","691","","","75","13","","","1","13","training","adjacent","CB","3","2","Q.jpg","P.jpg","0","0","1","",""
"","feedback","","html-keyboard-response","91","166531","0.0-1.0-123.0-0.0","0","0","34408","","null","","","null","13","","","","","","","","","","","","","","","",""
"","ITI","","html-keyboard-response","92","167534","0.0-1.0-126.0","0","0","34408","","null","","","null","13","","","","","","","","","","","","","","","NaN",""
"","S1","","html-keyboard-response","93","167788","0.0-1.0-128.0","0","0","34408","","null","","","null","14","","","","","","","","","","","","","","","",""
"","ISI","","html-keyboard-response","94","168790","0.0-1.0-129.0","0","0","34408","","null","","","null","14","NaN","","","","","","","","","","","","","","",""
"","S2","","html-keyboard-response","95","169043","0.0-1.0-130.0","0","0","34408","","null","","","null","14","","NaN","","","","","","","","","","","","","",""
"","response","","html-keyboard-response","96","169640","0.0-1.0-131.0-0.0","0","0","34408","","596","","","68","14","","","1","14","training","adjacent","CD","3","4","Q.jpg","N.jpg","1","1","1","",""
"","feedback","","html-keyboard-response","97","170644","0.0-1.0-132.0-0.0","0","0","34408","","null","","","null","14","","","","","","","","","","","","","","","",""
"","ITI","","html-keyboard-response","98","171646","0.0-1.0-135.0","0","0","34408","","null","","","null","14","","","","","","","","","","","","","","","NaN",""
"","S1","","html-keyboard-response","99","171898","0.0-1.0-137.0","0","0","34408","","null","","","null","15","","","","","","","","","","","","","","","",""
"","ISI","","html-keyboard-response","100","172901","0.0-1.0-138.0","0","0","34408","","null","","","null","15","NaN","","","","","","","","","","","","","","",""
"","S2","","html-keyboard-response","101","173153","0.0-1.0-139.0","0","0","34408","","null","","","null","15","","NaN","","","","","","","","","","","","","",""
"","response","","html-keyboard-response","102","173584","0.0-1.0-140.0-0.0","0","0","34408","","429","","","75","15","","","1","15","training","adjacent","DC","4","3","N.jpg","Q.jpg","0","0","1","",""
"","feedback","","html-keyboard-response","103","174587","0.0-1.0-141.0-0.0","0","0","34408","","null","","","null","15","","","","","","","","","","","","","","","",""
"","ITI","","html-keyboard-response","104","175590","0.0-1.0-144.0","0","0","34408","","null","","","null","15","","","","","","","","","","","","","","","NaN",""
"","S1","","html-keyboard-response","105","175842","0.0-1.0-146.0","0","0","34408","","null","","","null","16","","","","","","","","","","","","","","","",""
"","ISI","","html-keyboard-response","106","176845","0.0-1.0-147.0","0","0","34408","","null","","","null","16","NaN","","","","","","","","","","","","","","",""
"","S2","","html-keyboard-response","107","177098","0.0-1.0-148.0","0","0","34408","","null","","","null","16","","NaN","","","","","","","","","","","","","",""
"","response","","html-keyboard-response","108","178840","0.0-1.0-149.0-0.0","0","0","34408","","1741","","","68","16","","","1","16","training","adjacent","ED","5","4","O.jpg","N.jpg","1","0","0","",""
"","feedback","","html-keyboard-response","109","179844","0.0-1.0-150.0-0.0","0","0","34408","","null","","","null","16","","","","","","","","","","","","","","","",""
"","time_out","","html-keyboard-response","110","181846","0.0-1.0-152.0-0.0","0","0","34408","","null","","","null","16","","","","","","","","","","","","","","","",""
"","ITI","","html-keyboard-response","111","182848","0.0-1.0-153.0","0","0","34408","","null","","","null","16","","","","","","","","","","","","","","","NaN",""
"","S1","","html-keyboard-response","112","183101","0.0-1.0-155.0","0","0","34408","","null","","","null","17","","","","","","","","","","","","","","","",""
"","ISI","","html-keyboard-response","113","184103","0.0-1.0-156.0","0","0","34408","","null","","","null","17","NaN","","","","","","","","","","","","","","",""
"","S2","","html-keyboard-response","114","184355","0.0-1.0-157.0","0","0","34408","","null","","","null","17","","NaN","","","","","","","","","","","","","",""
"","response","","html-keyboard-response","115","185376","0.0-1.0-158.0-0.0","0","0","34408","","1019","","","68","17","","","1","17","training","adjacent","BA","2","1","P.jpg","L.jpg","1","0","0","",""
"","feedback","","html-keyboard-response","116","186379","0.0-1.0-159.0-0.0","0","0","34408","","null","","","null","17","","","","","","","","","","","","","","","",""
"","time_out","","html-keyboard-response","117","188381","0.0-1.0-161.0-0.0","0","0","34408","","null","","","null","17","","","","","","","","","","","","","","","",""
"","ITI","","html-keyboard-response","118","189383","0.0-1.0-162.0","0","0","34408","","null","","","null","17","","","","","","","","","","","","","","","NaN",""
"","S1","","html-keyboard-response","119","189637","0.0-1.0-164.0","0","0","34408","","null","","","null","18","","","","","","","","","","","","","","","",""
"","ISI","","html-keyboard-response","120","190641","0.0-1.0-165.0","0","0","34408","","null","","","null","18","NaN","","","","","","","","","","","","","","",""
"","S2","","html-keyboard-response","121","190893","0.0-1.0-166.0","0","0","34408","","null","","","null","18","","NaN","","","","","","","","","","","","","",""
"","response","","html-keyboard-response","122","191544","0.0-1.0-167.0-0.0","0","0","34408","","649","","","68","18","","","1","18","training","adjacent","CB","3","2","Q.jpg","P.jpg","1","0","0","",""
"","feedback","","html-keyboard-response","123","192547","0.0-1.0-168.0-0.0","0","0","34408","","null","","","null","18","","","","","","","","","","","","","","","",""
"","time_out","","html-keyboard-response","124","194549","0.0-1.0-170.0-0.0","0","0","34408","","null","","","null","18","","","","","","","","","","","","","","","",""
"","ITI","","html-keyboard-response","125","195552","0.0-1.0-171.0","0","0","34408","","null","","","null","18","","","","","","","","","","","","","","","NaN",""
"","S1","","html-keyboard-response","126","195804","0.0-1.0-173.0","0","0","34408","","null","","","null","19","","","","","","","","","","","","","","","",""
"","ISI","","html-keyboard-response","127","196807","0.0-1.0-174.0","0","0","34408","","null","","","null","19","NaN","","","","","","","","","","","","","","",""
"","S2","","html-keyboard-response","128","197060","0.0-1.0-175.0","0","0","34408","","null","","","null","19","","NaN","","","","","","","","","","","","","",""
"","response","","html-keyboard-response","129","197368","0.0-1.0-176.0-0.0","0","0","34408","","306","","","75","19","","","1","19","training","adjacent","DE","4","5","N.jpg","O.jpg","0","1","0","",""
"","feedback","","html-keyboard-response","130","198371","0.0-1.0-177.0-0.0","0","0","34408","","null","","","null","19","","","","","","","","","","","","","","","",""
"","time_out","","html-keyboard-response","131","200373","0.0-1.0-179.0-0.0","0","0","34408","","null","","","null","19","","","","","","","","","","","","","","","",""
"","ITI","","html-keyboard-response","132","201376","0.0-1.0-180.0","0","0","34408","","null","","","null","19","","","","","","","","","","","","","","","NaN",""
"","S1","","html-keyboard-response","133","201628","0.0-1.0-182.0","0","0","34408","","null","","","null","20","","","","","","","","","","","","","","","",""
"","ISI","","html-keyboard-response","134","202630","0.0-1.0-183.0","0","0","34408","","null","","","null","20","NaN","","","","","","","","","","","","","","",""
"","S2","","html-keyboard-response","135","202883","0.0-1.0-184.0","0","0","34408","","null","","","null","20","","NaN","","","","","","","","","","","","","",""
"","response","","html-keyboard-response","136","203815","0.0-1.0-185.0-0.0","0","0","34408","","932","","","75","20","","","1","20","training","adjacent","FE","6","5","R.jpg","O.jpg","0","0","1","",""
"","feedback","","html-keyboard-response","137","204817","0.0-1.0-186.0-0.0","0","0","34408","","null","","","null","20","","","","","","","","","","","","","","","",""
"","ITI","","html-keyboard-response","138","205820","0.0-1.0-189.0","0","0","34408","","null","","","null","20","","","","","","","","","","","","","","","NaN",""
"","S1","","html-keyboard-response","139","206072","0.0-1.0-191.0","0","0","34408","","null","","","null","21","","","","","","","","","","","","","","","",""
"","ISI","","html-keyboard-response","140","207075","0.0-1.0-192.0","0","0","34408","","null","","","null","21","NaN","","","","","","","","","","","","","","",""
"","S2","","html-keyboard-response","141","207328","0.0-1.0-193.0","0","0","34408","","null","","","null","21","","NaN","","","","","","","","","","","","","",""
"","response","","html-keyboard-response","142","207792","0.0-1.0-194.0-0.0","0","0","34408","","462","","","75","21","","","1","21","training","adjacent","GF","7","6","M.jpg","R.jpg","0","0","1","",""
"","feedback","","html-keyboard-response","143","208796","0.0-1.0-195.0-0.0","0","0","34408","","null","","","null","21","","","","","","","","","","","","","","","",""
"","ITI","","html-keyboard-response","144","209798","0.0-1.0-198.0","0","0","34408","","null","","","null","21","","","","","","","","","","","","","","","NaN",""
"","S1","","html-keyboard-response","145","210050","0.0-1.0-200.0","0","0","34408","","null","","","null","22","","","","","","","","","","","","","","","",""
"","ISI","","html-keyboard-response","146","211053","0.0-1.0-201.0","0","0","34408","","null","","","null","22","NaN","","","","","","","","","","","","","","",""
"","S2","","html-keyboard-response","147","211306","0.0-1.0-202.0","0","0","34408","","null","","","null","22","","NaN","","","","","","","","","","","","","",""
"","response","","html-keyboard-response","148","211592","0.0-1.0-203.0-0.0","0","0","34408","","284","","","75","22","","","1","22","training","adjacent","GF","7","6","M.jpg","R.jpg","0","0","1","",""
"","feedback","","html-keyboard-response","149","212595","0.0-1.0-204.0-0.0","0","0","34408","","null","","","null","22","","","","","","","","","","","","","","","",""
"","ITI","","html-keyboard-response","150","213598","0.0-1.0-207.0","0","0","34408","","null","","","null","22","","","","","","","","","","","","","","","NaN",""
"","S1","","html-keyboard-response","151","213851","0.0-1.0-209.0","0","0","34408","","null","","","null","23","","","","","","","","","","","","","","","",""
"","ISI","","html-keyboard-response","152","214853","0.0-1.0-210.0","0","0","34408","","null","","","null","23","NaN","","","","","","","","","","","","","","",""
"","S2","","html-keyboard-response","153","215107","0.0-1.0-211.0","0","0","34408","","null","","","null","23","","NaN","","","","","","","","","","","","","",""
"","response","","html-keyboard-response","154","215367","0.0-1.0-212.0-0.0","0","0","34408","","259","","","68","23","","","1","23","training","adjacent","BC","2","3","P.jpg","Q.jpg","1","1","1","",""
"","feedback","","html-keyboard-response","155","216370","0.0-1.0-213.0-0.0","0","0","34408","","null","","","null","23","","","","","","","","","","","","","","","",""
"","ITI","","html-keyboard-response","156","217373","0.0-1.0-216.0","0","0","34408","","null","","","null","23","","","","","","","","","","","","","","","NaN",""
"","S1","","html-keyboard-response","157","217626","0.0-1.0-218.0","0","0","34408","","null","","","null","24","","","","","","","","","","","","","","","",""
"","ISI","","html-keyboard-response","158","218628","0.0-1.0-219.0","0","0","34408","","null","","","null","24","NaN","","","","","","","","","","","","","","",""
"","S2","","html-keyboard-response","159","218882","0.0-1.0-220.0","0","0","34408","","null","","","null","24","","NaN","","","","","","","","","","","","","",""
"","response","","html-keyboard-response","160","219600","0.0-1.0-221.0-0.0","0","0","34408","","716","","","68","24","","","1","24","training","adjacent","EF","5","6","O.jpg","R.jpg","1","1","1","",""
"","feedback","","html-keyboard-response","161","220602","0.0-1.0-222.0-0.0","0","0","34408","","null","","","null","24","","","","","","","","","","","","","","","",""
"","ITI","","html-keyboard-response","162","221606","0.0-1.0-225.0","0","0","34408","","null","","","null","24","","","","","","","","","","","","","","","NaN",""
"","S1","","html-keyboard-response","163","221858","0.0-1.0-227.0","0","0","34408","","null","","","null","25","","","","","","","","","","","","","","","",""
"","ISI","","html-keyboard-response","164","222860","0.0-1.0-228.0","0","0","34408","","null","","","null","25","NaN","","","","","","","","","","","","","","",""
"","S2","","html-keyboard-response","165","223113","0.0-1.0-229.0","0","0","34408","","null","","","null","25","","NaN","","","","","","","","","","","","","",""
"","response","","html-keyboard-response","166","223352","0.0-1.0-230.0-0.0","0","0","34408","","236","","","75","25","","","1","25","training","adjacent","DC","4","3","N.jpg","Q.jpg","0","0","1","",""
"","feedback","","html-keyboard-response","167","224355","0.0-1.0-231.0-0.0","0","0","34408","","null","","","null","25","","","","","","","","","","","","","","","",""
"","ITI","","html-keyboard-response","168","225357","0.0-1.0-234.0","0","0","34408","","null","","","null","25","","","","","","","","","","","","","","","NaN",""
"","S1","","html-keyboard-response","169","225609","0.0-1.0-236.0","0","0","34408","","null","","","null","26","","","","","","","","","","","","","","","",""
"","ISI","","html-keyboard-response","170","226611","0.0-1.0-237.0","0","0","34408","","null","","","null","26","NaN","","","","","","","","","","","","","","",""
"","S2","","html-keyboard-response","171","226864","0.0-1.0-238.0","0","0","34408","","null","","","null","26","","NaN","","","","","","","","","","","","","",""
"","response","","html-keyboard-response","172","227528","0.0-1.0-239.0-0.0","0","0","34408","","662","","","68","26","","","1","26","training","adjacent","BA","2","1","P.jpg","L.jpg","1","0","0","",""
"","feedback","","html-keyboard-response","173","228530","0.0-1.0-240.0-0.0","0","0","34408","","null","","","null","26","","","","","","","","","","","","","","","",""
"","time_out","","html-keyboard-response","174","230533","0.0-1.0-242.0-0.0","0","0","34408","","null","","","null","26","","","","","","","","","","","","","","","",""
"","ITI","","html-keyboard-response","175","231535","0.0-1.0-243.0","0","0","34408","","null","","","null","26","","","","","","","","","","","","","","","NaN",""
"","S1","","html-keyboard-response","176","231788","0.0-1.0-245.0","0","0","34408","","null","","","null","27","","","","","","","","","","","","","","","",""
"","ISI","","html-keyboard-response","177","232790","0.0-1.0-246.0","0","0","34408","","null","","","null","27","NaN","","","","","","","","","","","","","","",""
"","S2","","html-keyboard-response","178","233043","0.0-1.0-247.0","0","0","34408","","null","","","null","27","","NaN","","","","","","","","","","","","","",""
"","response","","html-keyboard-response","179","233728","0.0-1.0-248.0-0.0","0","0","34408","","684","","","68","27","","","1","27","training","adjacent","BA","2","1","P.jpg","L.jpg","1","0","0","",""
"","feedback","","html-keyboard-response","180","234731","0.0-1.0-249.0-0.0","0","0","34408","","null","","","null","27","","","","","","","","","","","","","","","",""
"","time_out","","html-keyboard-response","181","236733","0.0-1.0-251.0-0.0","0","0","34408","","null","","","null","27","","","","","","","","","","","","","","","",""
"","ITI","","html-keyboard-response","182","237736","0.0-1.0-252.0","0","0","34408","","null","","","null","27","","","","","","","","","","","","","","","NaN",""
"","S1","","html-keyboard-response","183","237988","0.0-1.0-254.0","0","0","34408","","null","","","null","28","","","","","","","","","","","","","","","",""
"","ISI","","html-keyboard-response","184","238991","0.0-1.0-255.0","0","0","34408","","null","","","null","28","NaN","","","","","","","","","","","","","","",""
"","S2","","html-keyboard-response","185","239243","0.0-1.0-256.0","0","0","34408","","null","","","null","28","","NaN","","","","","","","","","","","","","",""
"","response","","html-keyboard-response","186","239591","0.0-1.0-257.0-0.0","0","0","34408","","346","","","68","28","","","1","28","training","adjacent","ED","5","4","O.jpg","N.jpg","1","0","0","",""
"","feedback","","html-keyboard-response","187","240595","0.0-1.0-258.0-0.0","0","0","34408","","null","","","null","28","","","","","","","","","","","","","","","",""
"","time_out","","html-keyboard-response","188","242598","0.0-1.0-260.0-0.0","0","0","34408","","null","","","null","28","","","","","","","","","","","","","","","",""
"","ITI","","html-keyboard-response","189","243601","0.0-1.0-261.0","0","0","34408","","null","","","null","28","","","","","","","","","","","","","","","NaN",""
"","S1","","html-keyboard-response","190","243854","0.0-1.0-263.0","0","0","34408","","null","","","null","29","","","","","","","","","","","","","","","",""
"","ISI","","html-keyboard-response","191","244857","0.0-1.0-264.0","0","0","34408","","null","","","null","29","NaN","","","","","","","","","","","","","","",""
"","S2","","html-keyboard-response","192","245109","0.0-1.0-265.0","0","0","34408","","null","","","null","29","","NaN","","","","","","","","","","","","","",""
"","response","","html-keyboard-response","193","246288","0.0-1.0-266.0-0.0","0","0","34408","","1176","","","75","29","","","1","29","training","adjacent","AB","1","2","L.jpg","P.jpg","0","1","0","",""
"","feedback","","html-keyboard-response","194","247290","0.0-1.0-267.0-0.0","0","0","34408","","null","","","null","29","","","","","","","","","","","","","","","",""
"","time_out","","html-keyboard-response","195","249293","0.0-1.0-269.0-0.0","0","0","34408","","null","","","null","29","","","","","","","","","","","","","","","",""
"","ITI","","html-keyboard-response","196","250295","0.0-1.0-270.0","0","0","34408","","null","","","null","29","","","","","","","","","","","","","","","NaN",""
"","S1","","html-keyboard-response","197","250548","0.0-1.0-272.0","0","0","34408","","null","","","null","30","","","","","","","","","","","","","","","",""
"","ISI","","html-keyboard-response","198","251551","0.0-1.0-273.0","0","0","34408","","null","","","null","30","NaN","","","","","","","","","","","","","","",""
"","S2","","html-keyboard-response","199","251804","0.0-1.0-274.0","0","0","34408","","null","","","null","30","","NaN","","","","","","","","","","","","","",""
"","response","","html-keyboard-response","200","252511","0.0-1.0-275.0-0.0","0","0","34408","","706","","","75","30","","","1","30","training","adjacent","DC","4","3","N.jpg","Q.jpg","0","0","1","",""
"","feedback","","html-keyboard-response","201","253515","0.0-1.0-276.0-0.0","0","0","34408","","null","","","null","30","","","","","","","","","","","","","","","",""
"","ITI","","html-keyboard-response","202","254518","0.0-1.0-279.0","0","0","34408","","null","","","null","30","","","","","","","","","","","","","","","NaN",""
"","S1","","html-keyboard-response","203","254770","0.0-1.0-281.0","0","0","34408","","null","","","null","31","","","","","","","","","","","","","","","",""
"","ISI","","html-keyboard-response","204","255773","0.0-1.0-282.0","0","0","34408","","null","","","null","31","NaN","","","","","","","","","","","","","","",""
"","S2","","html-keyboard-response","205","256026","0.0-1.0-283.0","0","0","34408","","null","","","null","31","","NaN","","","","","","","","","","","","","",""
"","response","","html-keyboard-response","206","256271","0.0-1.0-284.0-0.0","0","0","34408","","244","","","68","31","","","1","31","training","adjacent","CB","3","2","Q.jpg","P.jpg","1","0","0","",""
"","feedback","","html-keyboard-response","207","257274","0.0-1.0-285.0-0.0","0","0","34408","","null","","","null","31","","","","","","","","","","","","","","","",""
"","time_out","","html-keyboard-response","208","259277","0.0-1.0-287.0-0.0","0","0","34408","","null","","","null","31","","","","","","","","","","","","","","","",""
"","ITI","","html-keyboard-response","209","260280","0.0-1.0-288.0","0","0","34408","","null","","","null","31","","","","","","","","","","","","","","","NaN",""
"","S1","","html-keyboard-response","210","260533","0.0-1.0-290.0","0","0","34408","","null","","","null","32","","","","","","","","","","","","","","","",""
"","ISI","","html-keyboard-response","211","261535","0.0-1.0-291.0","0","0","34408","","null","","","null","32","NaN","","","","","","","","","","","","","","",""
"","S2","","html-keyboard-response","212","261789","0.0-1.0-292.0","0","0","34408","","null","","","null","32","","NaN","","","","","","","","","","","","","",""
"","response","","html-keyboard-response","213","262079","0.0-1.0-293.0-0.0","0","0","34408","","288","","","75","32","","","1","32","training","adjacent","FE","6","5","R.jpg","O.jpg","0","0","1","",""
"","feedback","","html-keyboard-response","214","263082","0.0-1.0-294.0-0.0","0","0","34408","","null","","","null","32","","","","","","","","","","","","","","","",""
"","ITI","","html-keyboard-response","215","264084","0.0-1.0-297.0","0","0","34408","","null","","","null","32","","","","","","","","","","","","","","","NaN",""
"","S1","","html-keyboard-response","216","264337","0.0-1.0-299.0","0","0","34408","","null","","","null","33","","","","","","","","","","","","","","","",""
"","ISI","","html-keyboard-response","217","265341","0.0-1.0-300.0","0","0","34408","","null","","","null","33","NaN","","","","","","","","","","","","","","",""
"","S2","","html-keyboard-response","218","265593","0.0-1.0-301.0","0","0","34408","","null","","","null","33","","NaN","","","","","","","","","","","","","",""
"","response","","html-keyboard-response","219","266055","0.0-1.0-302.0-0.0","0","0","34408","","460","","","68","33","","","1","33","training","adjacent","FG","6","7","R.jpg","M.jpg","1","1","1","",""
"","feedback","","html-keyboard-response","220","267059","0.0-1.0-303.0-0.0","0","0","34408","","null","","","null","33","","","","","","","","","","","","","","","",""
"","ITI","","html-keyboard-response","221","268062","0.0-1.0-306.0","0","0","34408","","null","","","null","33","","","","","","","","","","","","","","","NaN",""
"","S1","","html-keyboard-response","222","268315","0.0-1.0-308.0","0","0","34408","","null","","","null","34","","","","","","","","","","","","","","","",""
"","ISI","","html-keyboard-response","223","269318","0.0-1.0-309.0","0","0","34408","","null","","","null","34","NaN","","","","","","","","","","","","","","",""
"","S2","","html-keyboard-response","224","269571","0.0-1.0-310.0","0","0","34408","","null","","","null","34","","NaN","","","","","","","","","","","","","",""
"","response","","html-keyboard-response","225","269975","0.0-1.0-311.0-0.0","0","0","34408","","403","","","68","34","","","1","34","training","adjacent","FG","6","7","R.jpg","M.jpg","1","1","1","",""
"","feedback","","html-keyboard-response","226","270978","0.0-1.0-312.0-0.0","0","0","34408","","null","","","null","34","","","","","","","","","","","","","","","",""
"","ITI","","html-keyboard-response","227","271981","0.0-1.0-315.0","0","0","34408","","null","","","null","34","","","","","","","","","","","","","","","NaN",""
"","S1","","html-keyboard-response","228","272234","0.0-1.0-317.0","0","0","34408","","null","","","null","35","","","","","","","","","","","","","","","",""
"","ISI","","html-keyboard-response","229","273236","0.0-1.0-318.0","0","0","34408","","null","","","null","35","NaN","","","","","","","","","","","","","","",""
"","S2","","html-keyboard-response","230","273489","0.0-1.0-319.0","0","0","34408","","null","","","null","35","","NaN","","","","","","","","","","","","","",""
"","response","","html-keyboard-response","231","273895","0.0-1.0-320.0-0.0","0","0","34408","","404","","","75","35","","","1","35","training","adjacent","GF","7","6","M.jpg","R.jpg","0","0","1","",""
"","feedback","","html-keyboard-response","232","274898","0.0-1.0-321.0-0.0","0","0","34408","","null","","","null","35","","","","","","","","","","","","","","","",""
"","ITI","","html-keyboard-response","233","275901","0.0-1.0-324.0","0","0","34408","","null","","","null","35","","","","","","","","","","","","","","","NaN",""
"","S1","","html-keyboard-response","234","276154","0.0-1.0-326.0","0","0","34408","","null","","","null","36","","","","","","","","","","","","","","","",""
"","ISI","","html-keyboard-response","235","277156","0.0-1.0-327.0","0","0","34408","","null","","","null","36","NaN","","","","","","","","","","","","","","",""
"","S2","","html-keyboard-response","236","277409","0.0-1.0-328.0","0","0","34408","","null","","","null","36","","NaN","","","","","","","","","","","","","",""
"","response","","html-keyboard-response","237","277695","0.0-1.0-329.0-0.0","0","0","34408","","285","","","75","36","","","1","36","training","adjacent","GF","7","6","M.jpg","R.jpg","0","0","1","",""
"","feedback","","html-keyboard-response","238","278698","0.0-1.0-330.0-0.0","0","0","34408","","null","","","null","36","","","","","","","","","","","","","","","",""
"","ITI","","html-keyboard-response","239","279701","0.0-1.0-333.0","0","0","34408","","null","","","null","36","","","","","","","","","","","","","","","NaN",""
"","S1","","html-keyboard-response","240","279953","0.0-1.0-335.0","0","0","34408","","null","","","null","37","","","","","","","","","","","","","","","",""
"","ISI","","html-keyboard-response","241","280955","0.0-1.0-336.0","0","0","34408","","null","","","null","37","NaN","","","","","","","","","","","","","","",""
"","S2","","html-keyboard-response","242","281209","0.0-1.0-337.0","0","0","34408","","null","","","null","37","","NaN","","","","","","","","","","","","","",""
"","response","","html-keyboard-response","243","281471","0.0-1.0-338.0-0.0","0","0","34408","","261","","","75","37","","","1","37","training","adjacent","DE","4","5","N.jpg","O.jpg","0","1","0","",""
"","feedback","","html-keyboard-response","244","282475","0.0-1.0-339.0-0.0","0","0","34408","","null","","","null","37","","","","","","","","","","","","","","","",""
"","time_out","","html-keyboard-response","245","284477","0.0-1.0-341.0-0.0","0","0","34408","","null","","","null","37","","","","","","","","","","","","","","","",""
"","ITI","","html-keyboard-response","246","285480","0.0-1.0-342.0","0","0","34408","","null","","","null","37","","","","","","","","","","","","","","","NaN",""
"","S1","","html-keyboard-response","247","285733","0.0-1.0-344.0","0","0","34408","","null","","","null","38","","","","","","","","","","","","","","","",""
"","ISI","","html-keyboard-response","248","286735","0.0-1.0-345.0","0","0","34408","","null","","","null","38","NaN","","","","","","","","","","","","","","",""
"","S2","","html-keyboard-response","249","286987","0.0-1.0-346.0","0","0","34408","","null","","","null","38","","NaN","","","","","","","","","","","","","",""
"","response","","html-keyboard-response","250","288239","0.0-1.0-347.0-0.0","0","0","34408","","1250","","","75","38","","","1","38","training","adjacent","FE","6","5","R.jpg","O.jpg","0","0","1","",""
"","feedback","","html-keyboard-response","251","289241","0.0-1.0-348.0-0.0","0","0","34408","","null","","","null","38","","","","","","","","","","","","","","","",""
"","ITI","","html-keyboard-response","252","290244","0.0-1.0-351.0","0","0","34408","","null","","","null","38","","","","","","","","","","","","","","","NaN",""
"","S1","","html-keyboard-response","253","290496","0.0-1.0-353.0","0","0","34408","","null","","","null","39","","","","","","","","","","","","","","","",""
"","ISI","","html-keyboard-response","254","291498","0.0-1.0-354.0","0","0","34408","","null","","","null","39","NaN","","","","","","","","","","","","","","",""
"","S2","","html-keyboard-response","255","291751","0.0-1.0-355.0","0","0","34408","","null","","","null","39","","NaN","","","","","","","","","","","","","",""
"","response","","html-keyboard-response","256","292087","0.0-1.0-356.0-0.0","0","0","34408","","334","","","68","39","","","1","39","training","adjacent","ED","5","4","O.jpg","N.jpg","1","0","0","",""
"","feedback","","html-keyboard-response","257","293090","0.0-1.0-357.0-0.0","0","0","34408","","null","","","null","39","","","","","","","","","","","","","","","",""
"","time_out","","html-keyboard-response","258","295092","0.0-1.0-359.0-0.0","0","0","34408","","null","","","null","39","","","","","","","","","","","","","","","",""
"","ITI","","html-keyboard-response","259","296095","0.0-1.0-360.0","0","0","34408","","null","","","null","39","","","","","","","","","","","","","","","NaN",""
"","S1","","html-keyboard-response","260","296347","0.0-1.0-362.0","0","0","34408","","null","","","null","40","","","","","","","","","","","","","","","",""
"","ISI","","html-keyboard-response","261","297350","0.0-1.0-363.0","0","0","34408","","null","","","null","40","NaN","","","","","","","","","","","","","","",""
"","S2","","html-keyboard-response","262","297602","0.0-1.0-364.0","0","0","34408","","null","","","null","40","","NaN","","","","","","","","","","","","","",""
"","response","","html-keyboard-response","263","298310","0.0-1.0-365.0-0.0","0","0","34408","","706","","","68","40","","","1","40","training","adjacent","DE","4","5","N.jpg","O.jpg","1","1","1","",""
"","feedback","","html-keyboard-response","264","299313","0.0-1.0-366.0-0.0","0","0","34408","","null","","","null","40","","","","","","","","","","","","","","","",""
"","ITI","","html-keyboard-response","265","300316","0.0-1.0-369.0","0","0","34408","","null","","","null","40","","","","","","","","","","","","","","","NaN",""
"","S1","","html-keyboard-response","266","300568","0.0-1.0-371.0","0","0","34408","","null","","","null","41","","","","","","","","","","","","","","","",""
"","ISI","","html-keyboard-response","267","301570","0.0-1.0-372.0","0","0","34408","","null","","","null","41","NaN","","","","","","","","","","","","","","",""
"","S2","","html-keyboard-response","268","301822","0.0-1.0-373.0","0","0","34408","","null","","","null","41","","NaN","","","","","","","","","","","","","",""
"","response","","html-keyboard-response","269","302528","0.0-1.0-374.0-0.0","0","0","34408","","704","","","68","41","","","1","41","training","adjacent","BC","2","3","P.jpg","Q.jpg","1","1","1","",""
"","feedback","","html-keyboard-response","270","303532","0.0-1.0-375.0-0.0","0","0","34408","","null","","","null","41","","","","","","","","","","","","","","","",""
"","ITI","","html-keyboard-response","271","304534","0.0-1.0-378.0","0","0","34408","","null","","","null","41","","","","","","","","","","","","","","","NaN",""
"","S1","","html-keyboard-response","272","304787","0.0-1.0-380.0","0","0","34408","","null","","","null","42","","","","","","","","","","","","","","","",""
"","ISI","","html-keyboard-response","273","305789","0.0-1.0-381.0","0","0","34408","","null","","","null","42","NaN","","","","","","","","","","","","","","",""
"","S2","","html-keyboard-response","274","306042","0.0-1.0-382.0","0","0","34408","","null","","","null","42","","NaN","","","","","","","","","","","","","",""
"","response","","html-keyboard-response","275","306695","0.0-1.0-383.0-0.0","0","0","34408","","652","","","75","42","","","1","42","training","adjacent","EF","5","6","O.jpg","R.jpg","0","1","0","",""
"","feedback","","html-keyboard-response","276","307697","0.0-1.0-384.0-0.0","0","0","34408","","null","","","null","42","","","","","","","","","","","","","","","",""
"","time_out","","html-keyboard-response","277","309699","0.0-1.0-386.0-0.0","0","0","34408","","null","","","null","42","","","","","","","","","","","","","","","",""
"","ITI","","html-keyboard-response","278","310702","0.0-1.0-387.0","0","0","34408","","null","","","null","42","","","","","","","","","","","","","","","NaN",""
"","S1","","html-keyboard-response","279","310955","0.0-1.0-389.0","0","0","34408","","null","","","null","43","","","","","","","","","","","","","","","",""
"","ISI","","html-keyboard-response","280","311958","0.0-1.0-390.0","0","0","34408","","null","","","null","43","NaN","","","","","","","","","","","","","","",""
"","S2","","html-keyboard-response","281","312211","0.0-1.0-391.0","0","0","34408","","null","","","null","43","","NaN","","","","","","","","","","","","","",""
"","response","","html-keyboard-response","282","312311","0.0-1.0-392.0-0.0","0","0","34408","","98","","","68","43","","","1","43","training","adjacent","AB","1","2","L.jpg","P.jpg","1","1","1","",""
"","feedback","","html-keyboard-response","283","313314","0.0-1.0-393.0-0.0","0","0","34408","","null","","","null","43","","","","","","","","","","","","","","","",""
"","ITI","","html-keyboard-response","284","314317","0.0-1.0-396.0","0","0","34408","","null","","","null","43","","","","","","","","","","","","","","","NaN",""
"","S1","","html-keyboard-response","285","314570","0.0-1.0-398.0","0","0","34408","","null","","","null","44","","","","","","","","","","","","","","","",""
"","ISI","","html-keyboard-response","286","315574","0.0-1.0-399.0","0","0","34408","","null","","","null","44","NaN","","","","","","","","","","","","","","",""
"","S2","","html-keyboard-response","287","315827","0.0-1.0-400.0","0","0","34408","","null","","","null","44","","NaN","","","","","","","","","","","","","",""
"","response","","html-keyboard-response","288","316487","0.0-1.0-401.0-0.0","0","0","34408","","659","","","68","44","","","1","44","training","adjacent","BC","2","3","P.jpg","Q.jpg","1","1","1","",""
"","feedback","","html-keyboard-response","289","317489","0.0-1.0-402.0-0.0","0","0","34408","","null","","","null","44","","","","","","","","","","","","","","","",""
"","ITI","","html-keyboard-response","290","318492","0.0-1.0-405.0","0","0","34408","","null","","","null","44","","","","","","","","","","","","","","","NaN",""
"","S1","","html-keyboard-response","291","318746","0.0-1.0-407.0","0","0","34408","","null","","","null","45","","","","","","","","","","","","","","","",""
"","ISI","","html-keyboard-response","292","319749","0.0-1.0-408.0","0","0","34408","","null","","","null","45","NaN","","","","","","","","","","","","","","",""
"","S2","","html-keyboard-response","293","320001","0.0-1.0-409.0","0","0","34408","","null","","","null","45","","NaN","","","","","","","","","","","","","",""
"","response","","html-keyboard-response","294","320694","0.0-1.0-410.0-0.0","0","0","34408","","692","","","75","45","","","1","45","training","adjacent","ED","5","4","O.jpg","N.jpg","0","0","1","",""
"","feedback","","html-keyboard-response","295","321697","0.0-1.0-411.0-0.0","0","0","34408","","null","","","null","45","","","","","","","","","","","","","","","",""
"","ITI","","html-keyboard-response","296","322700","0.0-1.0-414.0","0","0","34408","","null","","","null","45","","","","","","","","","","","","","","","NaN",""
"","S1","","html-keyboard-response","297","322953","0.0-1.0-416.0","0","0","34408","","null","","","null","46","","","","","","","","","","","","","","","",""
"","ISI","","html-keyboard-response","298","323956","0.0-1.0-417.0","0","0","34408","","null","","","null","46","NaN","","","","","","","","","","","","","","",""
"","S2","","html-keyboard-response","299","324209","0.0-1.0-418.0","0","0","34408","","null","","","null","46","","NaN","","","","","","","","","","","","","",""
"","response","","html-keyboard-response","300","324919","0.0-1.0-419.0-0.0","0","0","34408","","709","","","75","46","","","1","46","training","adjacent","AB","1","2","L.jpg","P.jpg","0","1","0","",""
"","feedback","","html-keyboard-response","301","325922","0.0-1.0-420.0-0.0","0","0","34408","","null","","","null","46","","","","","","","","","","","","","","","",""
"","time_out","","html-keyboard-response","302","327924","0.0-1.0-422.0-0.0","0","0","34408","","null","","","null","46","","","","","","","","","","","","","","","",""
"","ITI","","html-keyboard-response","303","328926","0.0-1.0-423.0","0","0","34408","","null","","","null","46","","","","","","","","","","","","","","","NaN",""
"","S1","","html-keyboard-response","304","329179","0.0-1.0-425.0","0","0","34408","","null","","","null","47","","","","","","","","","","","","","","","",""
"","ISI","","html-keyboard-response","305","330181","0.0-1.0-426.0","0","0","34408","","null","","","null","47","NaN","","","","","","","","","","","","","","",""
"","S2","","html-keyboard-response","306","330433","0.0-1.0-427.0","0","0","34408","","null","","","null","47","","NaN","","","","","","","","","","","","","",""
"","response","","html-keyboard-response","307","330951","0.0-1.0-428.0-0.0","0","0","34408","","516","","","68","47","","","1","47","training","adjacent","BA","2","1","P.jpg","L.jpg","1","0","0","",""
"","feedback","","html-keyboard-response","308","331954","0.0-1.0-429.0-0.0","0","0","34408","","null","","","null","47","","","","","","","","","","","","","","","",""
"","time_out","","html-keyboard-response","309","333956","0.0-1.0-431.0-0.0","0","0","34408","","null","","","null","47","","","","","","","","","","","","","","","",""
"","ITI","","html-keyboard-response","310","334959","0.0-1.0-432.0","0","0","34408","","null","","","null","47","","","","","","","","","","","","","","","NaN",""
"","block_over","","html-keyboard-response","311","383078","0.0-1.0-433.0-0.0","0","0","34408","","48116","","","32","47","","","","","","","","","","","","","","","",""
"","S1","","html-keyboard-response","312","383331","0.0-1.0-434.0","0","0","34408","","null","","","null","48","","","","","","","","","","","","","","","",""
"","ISI","","html-keyboard-response","313","384334","0.0-1.0-435.0","0","0","34408","","null","","","null","48","NaN","","","","","","","","","","","","","","",""
"","S2","","html-keyboard-response","314","384587","0.0-1.0-436.0","0","0","34408","","null","","","null","48","","NaN","","","","","","","","","","","","","",""
"","response","","html-keyboard-response","315","384830","0.0-1.0-437.0-0.0","0","0","34408","","242","","","75","48","","","2","48","training","adjacent","GF","7","6","M.jpg","R.jpg","0","0","1","",""
"","feedback","","html-keyboard-response","316","385833","0.0-1.0-438.0-0.0","0","0","34408","","null","","","null","48","","","","","","","","","","","","","","","",""
"","ITI","","html-keyboard-response","317","386835","0.0-1.0-441.0","0","0","34408","","null","","","null","48","","","","","","","","","","","","","","","NaN",""
"","S1","","html-keyboard-response","318","387088","0.0-1.0-443.0","0","0","34408","","null","","","null","49","","","","","","","","","","","","","","","",""
"","ISI","","html-keyboard-response","319","388090","0.0-1.0-444.0","0","0","34408","","null","","","null","49","NaN","","","","","","","","","","","","","","",""
"","S2","","html-keyboard-response","320","388343","0.0-1.0-445.0","0","0","34408","","null","","","null","49","","NaN","","","","","","","","","","","","","",""
"","response","","html-keyboard-response","321","388630","0.0-1.0-446.0-0.0","0","0","34408","","286","","","75","49","","","2","49","training","adjacent","ED","5","4","O.jpg","N.jpg","0","0","1","",""
"","feedback","","html-keyboard-response","322","389633","0.0-1.0-447.0-0.0","0","0","34408","","null","","","null","49","","","","","","","","","","","","","","","",""
"","ITI","","html-keyboard-response","323","390636","0.0-1.0-450.0","0","0","34408","","null","","","null","49","","","","","","","","","","","","","","","NaN",""
"","S1","","html-keyboard-response","324","390890","0.0-1.0-452.0","0","0","34408","","null","","","null","50","","","","","","","","","","","","","","","",""
"","ISI","","html-keyboard-response","325","391892","0.0-1.0-453.0","0","0","34408","","null","","","null","50","NaN","","","","","","","","","","","","","","",""
"","S2","","html-keyboard-response","326","392145","0.0-1.0-454.0","0","0","34408","","null","","","null","50","","NaN","","","","","","","","","","","","","",""
"","response","","html-keyboard-response","327","392558","0.0-1.0-455.0-0.0","0","0","34408","","411","","","68","50","","","2","50","training","adjacent","DC","4","3","N.jpg","Q.jpg","1","0","0","",""
"","feedback","","html-keyboard-response","328","393560","0.0-1.0-456.0-0.0","0","0","34408","","null","","","null","50","","","","","","","","","","","","","","","",""
"","time_out","","html-keyboard-response","329","395563","0.0-1.0-458.0-0.0","0","0","34408","","null","","","null","50","","","","","","","","","","","","","","","",""
"","ITI","","html-keyboard-response","330","396565","0.0-1.0-459.0","0","0","34408","","null","","","null","50","","","","","","","","","","","","","","","NaN",""
"","S1","","html-keyboard-response","331","396817","0.0-1.0-461.0","0","0","34408","","null","","","null","51","","","","","","","","","","","","","","","",""
"","ISI","","html-keyboard-response","332","397821","0.0-1.0-462.0","0","0","34408","","null","","","null","51","NaN","","","","","","","","","","","","","","",""
"","S2","","html-keyboard-response","333","398074","0.0-1.0-463.0","0","0","34408","","null","","","null","51","","NaN","","","","","","","","","","","","","",""
"","response","","html-keyboard-response","334","398222","0.0-1.0-464.0-0.0","0","0","34408","","147","","","75","51","","","2","51","training","adjacent","CB","3","2","Q.jpg","P.jpg","0","0","1","",""
"","feedback","","html-keyboard-response","335","399225","0.0-1.0-465.0-0.0","0","0","34408","","null","","","null","51","","","","","","","","","","","","","","","",""
"","ITI","","html-keyboard-response","336","400228","0.0-1.0-468.0","0","0","34408","","null","","","null","51","","","","","","","","","","","","","","","NaN",""
"","S1","","html-keyboard-response","337","400481","0.0-1.0-470.0","0","0","34408","","null","","","null","52","","","","","","","","","","","","","","","",""
"","ISI","","html-keyboard-response","338","401484","0.0-1.0-471.0","0","0","34408","","null","","","null","52","NaN","","","","","","","","","","","","","","",""
"","S2","","html-keyboard-response","339","401736","0.0-1.0-472.0","0","0","34408","","null","","","null","52","","NaN","","","","","","","","","","","","","",""
"","response","","html-keyboard-response","340","402526","0.0-1.0-473.0-0.0","0","0","34408","","788","","","75","52","","","2","52","training","adjacent","ED","5","4","O.jpg","N.jpg","0","0","1","",""
"","feedback","","html-keyboard-response","341","403529","0.0-1.0-474.0-0.0","0","0","34408","","null","","","null","52","","","","","","","","","","","","","","","",""
"","ITI","","html-keyboard-response","342","404532","0.0-1.0-477.0","0","0","34408","","null","","","null","52","","","","","","","","","","","","","","","NaN",""
"","S1","","html-keyboard-response","343","404785","0.0-1.0-479.0","0","0","34408","","null","","","null","53","","","","","","","","","","","","","","","",""
"","ISI","","html-keyboard-response","344","405787","0.0-1.0-480.0","0","0","34408","","null","","","null","53","NaN","","","","","","","","","","","","","","",""
"","S2","","html-keyboard-response","345","406040","0.0-1.0-481.0","0","0","34408","","null","","","null","53","","NaN","","","","","","","","","","","","","",""
"","response","","html-keyboard-response","346","406750","0.0-1.0-482.0-0.0","0","0","34408","","709","","","68","53","","","2","53","training","adjacent","ED","5","4","O.jpg","N.jpg","1","0","0","",""
"","feedback","","html-keyboard-response","347","407753","0.0-1.0-483.0-0.0","0","0","34408","","null","","","null","53","","","","","","","","","","","","","","","",""
"","time_out","","html-keyboard-response","348","409756","0.0-1.0-485.0-0.0","0","0","34408","","null","","","null","53","","","","","","","","","","","","","","","",""
"","ITI","","html-keyboard-response","349","410759","0.0-1.0-486.0","0","0","34408","","null","","","null","53","","","","","","","","","","","","","","","NaN",""
"","S1","","html-keyboard-response","350","411020","0.0-1.0-488.0","0","0","34408","","null","","","null","54","","","","","","","","","","","","","","","",""
"","ISI","","html-keyboard-response","351","412022","0.0-1.0-489.0","0","0","34408","","null","","","null","54","NaN","","","","","","","","","","","","","","",""
"","S2","","html-keyboard-response","352","412275","0.0-1.0-490.0","0","0","34408","","null","","","null","54","","NaN","","","","","","","","","","","","","",""
"","response","","html-keyboard-response","353","412606","0.0-1.0-491.0-0.0","0","0","34408","","329","","","68","54","","","2","54","training","adjacent","BC","2","3","P.jpg","Q.jpg","1","1","1","",""
"","feedback","","html-keyboard-response","354","413608","0.0-1.0-492.0-0.0","0","0","34408","","null","","","null","54","","","","","","","","","","","","","","","",""
"","ITI","","html-keyboard-response","355","414611","0.0-1.0-495.0","0","0","34408","","null","","","null","54","","","","","","","","","","","","","","","NaN",""
"","S1","","html-keyboard-response","356","414863","0.0-1.0-497.0","0","0","34408","","null","","","null","55","","","","","","","","","","","","","","","",""
"","ISI","","html-keyboard-response","357","415865","0.0-1.0-498.0","0","0","34408","","null","","","null","55","NaN","","","","","","","","","","","","","","",""
"","S2","","html-keyboard-response","358","416119","0.0-1.0-499.0","0","0","34408","","null","","","null","55","","NaN","","","","","","","","","","","","","",""
"","response","","html-keyboard-response","359","416478","0.0-1.0-500.0-0.0","0","0","34408","","357","","","75","55","","","2","55","training","adjacent","EF","5","6","O.jpg","R.jpg","0","1","0","",""
"","feedback","","html-keyboard-response","360","417481","0.0-1.0-501.0-0.0","0","0","34408","","null","","","null","55","","","","","","","","","","","","","","","",""
"","time_out","","html-keyboard-response","361","419483","0.0-1.0-503.0-0.0","0","0","34408","","null","","","null","55","","","","","","","","","","","","","","","",""
"","ITI","","html-keyboard-response","362","420485","0.0-1.0-504.0","0","0","34408","","null","","","null","55","","","","","","","","","","","","","","","NaN",""
"","S1","","html-keyboard-response","363","420738","0.0-1.0-506.0","0","0","34408","","null","","","null","56","","","","","","","","","","","","","","","",""
"","ISI","","html-keyboard-response","364","421740","0.0-1.0-507.0","0","0","34408","","null","","","null","56","NaN","","","","","","","","","","","","","","",""
"","S2","","html-keyboard-response","365","421992","0.0-1.0-508.0","0","0","34408","","null","","","null","56","","NaN","","","","","","","","","","","","","",""
"","response","","html-keyboard-response","366","422926","0.0-1.0-509.0-0.0","0","0","34408","","932","","","75","56","","","2","56","training","adjacent","BA","2","1","P.jpg","L.jpg","0","0","1","",""
"","feedback","","html-keyboard-response","367","423929","0.0-1.0-510.0-0.0","0","0","34408","","null","","","null","56","","","","","","","","","","","","","","","",""
"","ITI","","html-keyboard-response","368","424932","0.0-1.0-513.0","0","0","34408","","null","","","null","56","","","","","","","","","","","","","","","NaN",""
"","S1","","html-keyboard-response","369","425184","0.0-1.0-515.0","0","0","34408","","null","","","null","57","","","","","","","","","","","","","","","",""
"","ISI","","html-keyboard-response","370","426186","0.0-1.0-516.0","0","0","34408","","null","","","null","57","NaN","","","","","","","","","","","","","","",""
"","S2","","html-keyboard-response","371","426439","0.0-1.0-517.0","0","0","34408","","null","","","null","57","","NaN","","","","","","","","","","","","","",""
"","response","","html-keyboard-response","372","426814","0.0-1.0-518.0-0.0","0","0","34408","","374","","","68","57","","","2","57","training","adjacent","DE","4","5","N.jpg","O.jpg","1","1","1","",""
"","feedback","","html-keyboard-response","373","427816","0.0-1.0-519.0-0.0","0","0","34408","","null","","","null","57","","","","","","","","","","","","","","","",""
"","ITI","","html-keyboard-response","374","428819","0.0-1.0-522.0","0","0","34408","","null","","","null","57","","","","","","","","","","","","","","","NaN",""
"","S1","","html-keyboard-response","375","429071","0.0-1.0-524.0","0","0","34408","","null","","","null","58","","","","","","","","","","","","","","","",""
"","ISI","","html-keyboard-response","376","430074","0.0-1.0-525.0","0","0","34408","","null","","","null","58","NaN","","","","","","","","","","","","","","",""
"","S2","","html-keyboard-response","377","430328","0.0-1.0-526.0","0","0","34408","","null","","","null","58","","NaN","","","","","","","","","","","","","",""
"","response","","html-keyboard-response","378","430958","0.0-1.0-527.0-0.0","0","0","34408","","627","","","75","58","","","2","58","training","adjacent","FE","6","5","R.jpg","O.jpg","0","0","1","",""
"","feedback","","html-keyboard-response","379","431960","0.0-1.0-528.0-0.0","0","0","34408","","null","","","null","58","","","","","","","","","","","","","","","",""
"","ITI","","html-keyboard-response","380","432964","0.0-1.0-531.0","0","0","34408","","null","","","null","58","","","","","","","","","","","","","","","NaN",""
"","S1","","html-keyboard-response","381","433217","0.0-1.0-533.0","0","0","34408","","null","","","null","59","","","","","","","","","","","","","","","",""
"","ISI","","html-keyboard-response","382","434220","0.0-1.0-534.0","0","0","34408","","null","","","null","59","NaN","","","","","","","","","","","","","","",""
"","S2","","html-keyboard-response","383","434473","0.0-1.0-535.0","0","0","34408","","null","","","null","59","","NaN","","","","","","","","","","","","","",""
"","response","","html-keyboard-response","384","435046","0.0-1.0-536.0-0.0","0","0","34408","","572","","","75","59","","","2","59","training","adjacent","CD","3","4","Q.jpg","N.jpg","0","1","0","",""
"","feedback","","html-keyboard-response","385","436049","0.0-1.0-537.0-0.0","0","0","34408","","null","","","null","59","","","","","","","","","","","","","","","",""
"","time_out","","html-keyboard-response","386","438051","0.0-1.0-539.0-0.0","0","0","34408","","null","","","null","59","","","","","","","","","","","","","","","",""
"","ITI","","html-keyboard-response","387","439054","0.0-1.0-540.0","0","0","34408","","null","","","null","59","","","","","","","","","","","","","","","NaN",""
"","S1","","html-keyboard-response","388","439306","0.0-1.0-542.0","0","0","34408","","null","","","null","60","","","","","","","","","","","","","","","",""
"","ISI","","html-keyboard-response","389","440309","0.0-1.0-543.0","0","0","34408","","null","","","null","60","NaN","","","","","","","","","","","","","","",""
"","S2","","html-keyboard-response","390","440562","0.0-1.0-544.0","0","0","34408","","null","","","null","60","","NaN","","","","","","","","","","","","","",""
"","response","","html-keyboard-response","391","440902","0.0-1.0-545.0-0.0","0","0","34408","","339","","","68","60","","","2","60","training","adjacent","DC","4","3","N.jpg","Q.jpg","1","0","0","",""
"","feedback","","html-keyboard-response","392","441905","0.0-1.0-546.0-0.0","0","0","34408","","null","","","null","60","","","","","","","","","","","","","","","",""
"","time_out","","html-keyboard-response","393","443908","0.0-1.0-548.0-0.0","0","0","34408","","null","","","null","60","","","","","","","","","","","","","","","",""
"","ITI","","html-keyboard-response","394","444911","0.0-1.0-549.0","0","0","34408","","null","","","null","60","","","","","","","","","","","","","","","NaN",""
"","S1","","html-keyboard-response","395","445164","0.0-1.0-551.0","0","0","34408","","null","","","null","61","","","","","","","","","","","","","","","",""
"","ISI","","html-keyboard-response","396","446166","0.0-1.0-552.0","0","0","34408","","null","","","null","61","NaN","","","","","","","","","","","","","","",""
"","S2","","html-keyboard-response","397","446419","0.0-1.0-553.0","0","0","34408","","null","","","null","61","","NaN","","","","","","","","","","","","","",""
"","response","","html-keyboard-response","398","447190","0.0-1.0-554.0-0.0","0","0","34408","","769","","","75","61","","","2","61","training","adjacent","BA","2","1","P.jpg","L.jpg","0","0","1","",""
"","feedback","","html-keyboard-response","399","448193","0.0-1.0-555.0-0.0","0","0","34408","","null","","","null","61","","","","","","","","","","","","","","","",""
"","ITI","","html-keyboard-response","400","449195","0.0-1.0-558.0","0","0","34408","","null","","","null","61","","","","","","","","","","","","","","","NaN",""
"","S1","","html-keyboard-response","401","449449","0.0-1.0-560.0","0","0","34408","","null","","","null","62","","","","","","","","","","","","","","","",""
"","ISI","","html-keyboard-response","402","450450","0.0-1.0-561.0","0","0","34408","","null","","","null","62","NaN","","","","","","","","","","","","","","",""
"","S2","","html-keyboard-response","403","450704","0.0-1.0-562.0","0","0","34408","","null","","","null","62","","NaN","","","","","","","","","","","","","",""
"","response","","html-keyboard-response","404","450774","0.0-1.0-563.0-0.0","0","0","34408","","68","","","75","62","","","2","62","training","adjacent","GF","7","6","M.jpg","R.jpg","0","0","1","",""
"","feedback","","html-keyboard-response","405","451777","0.0-1.0-564.0-0.0","0","0","34408","","null","","","null","62","","","","","","","","","","","","","","","",""
"","ITI","","html-keyboard-response","406","452779","0.0-1.0-567.0","0","0","34408","","null","","","null","62","","","","","","","","","","","","","","","NaN",""
"","S1","","html-keyboard-response","407","453032","0.0-1.0-569.0","0","0","34408","","null","","","null","63","","","","","","","","","","","","","","","",""
"","ISI","","html-keyboard-response","408","454035","0.0-1.0-570.0","0","0","34408","","null","","","null","63","NaN","","","","","","","","","","","","","","",""
"","S2","","html-keyboard-response","409","454288","0.0-1.0-571.0","0","0","34408","","null","","","null","63","","NaN","","","","","","","","","","","","","",""
"","response","","html-keyboard-response","410","454686","0.0-1.0-572.0-0.0","0","0","34408","","395","","","75","63","","","2","63","training","adjacent","GF","7","6","M.jpg","R.jpg","0","0","1","",""
"","feedback","","html-keyboard-response","411","455689","0.0-1.0-573.0-0.0","0","0","34408","","null","","","null","63","","","","","","","","","","","","","","","",""
"","ITI","","html-keyboard-response","412","456691","0.0-1.0-576.0","0","0","34408","","null","","","null","63","","","","","","","","","","","","","","","NaN",""
"","S1","","html-keyboard-response","413","456943","0.0-1.0-578.0","0","0","34408","","null","","","null","64","","","","","","","","","","","","","","","",""
"","ISI","","html-keyboard-response","414","457945","0.0-1.0-579.0","0","0","34408","","null","","","null","64","NaN","","","","","","","","","","","","","","",""
"","S2","","html-keyboard-response","415","458197","0.0-1.0-580.0","0","0","34408","","null","","","null","64","","NaN","","","","","","","","","","","","","",""
"","response","","html-keyboard-response","416","458558","0.0-1.0-581.0-0.0","0","0","34408","","358","","","68","64","","","2","64","training","adjacent","FG","6","7","R.jpg","M.jpg","1","1","1","",""
"","feedback","","html-keyboard-response","417","459561","0.0-1.0-582.0-0.0","0","0","34408","","null","","","null","64","","","","","","","","","","","","","","","",""
"","ITI","","html-keyboard-response","418","460563","0.0-1.0-585.0","0","0","34408","","null","","","null","64","","","","","","","","","","","","","","","NaN",""
"","S1","","html-keyboard-response","419","460816","0.0-1.0-587.0","0","0","34408","","null","","","null","65","","","","","","","","","","","","","","","",""
"","ISI","","html-keyboard-response","420","461820","0.0-1.0-588.0","0","0","34408","","null","","","null","65","NaN","","","","","","","","","","","","","","",""
"","S2","","html-keyboard-response","421","462073","0.0-1.0-589.0","0","0","34408","","null","","","null","65","","NaN","","","","","","","","","","","","","",""
"","response","","html-keyboard-response","422","462485","0.0-1.0-590.0-0.0","0","0","34408","","410","","","75","65","","","2","65","training","adjacent","EF","5","6","O.jpg","R.jpg","0","1","0","",""
"","feedback","","html-keyboard-response","423","463488","0.0-1.0-591.0-0.0","0","0","34408","","null","","","null","65","","","","","","","","","","","","","","","",""
"","time_out","","html-keyboard-response","424","465491","0.0-1.0-593.0-0.0","0","0","34408","","null","","","null","65","","","","","","","","","","","","","","","",""
"","ITI","","html-keyboard-response","425","466493","0.0-1.0-594.0","0","0","34408","","null","","","null","65","","","","","","","","","","","","","","","NaN",""
"","S1","","html-keyboard-response","426","466746","0.0-1.0-596.0","0","0","34408","","null","","","null","66","","","","","","","","","","","","","","","",""
"","ISI","","html-keyboard-response","427","467748","0.0-1.0-597.0","0","0","34408","","null","","","null","66","NaN","","","","","","","","","","","","","","",""
"","S2","","html-keyboard-response","428","468001","0.0-1.0-598.0","0","0","34408","","null","","","null","66","","NaN","","","","","","","","","","","","","",""
"","response","","html-keyboard-response","429","468517","0.0-1.0-599.0-0.0","0","0","34408","","515","","","68","66","","","2","66","training","adjacent","BA","2","1","P.jpg","L.jpg","1","0","0","",""
"","feedback","","html-keyboard-response","430","469521","0.0-1.0-600.0-0.0","0","0","34408","","null","","","null","66","","","","","","","","","","","","","","","",""
"","time_out","","html-keyboard-response","431","471524","0.0-1.0-602.0-0.0","0","0","34408","","null","","","null","66","","","","","","","","","","","","","","","",""
"","ITI","","html-keyboard-response","432","472526","0.0-1.0-603.0","0","0","34408","","null","","","null","66","","","","","","","","","","","","","","","NaN",""
"","S1","","html-keyboard-response","433","472780","0.0-1.0-605.0","0","0","34408","","null","","","null","67","","","","","","","","","","","","","","","",""
"","ISI","","html-keyboard-response","434","473783","0.0-1.0-606.0","0","0","34408","","871","","","68","67","d","","","","","","","","","","","","","","",""
"","S2","","html-keyboard-response","435","474036","0.0-1.0-607.0","0","0","34408","","null","","","null","67","","NaN","","","","","","","","","","","","","",""
"","response","","html-keyboard-response","436","474677","0.0-1.0-608.0-0.0","0","0","34408","","639","","","75","67","","","2","67","training","adjacent","FE","6","5","R.jpg","O.jpg","0","0","1","",""
"","feedback","","html-keyboard-response","437","475681","0.0-1.0-609.0-0.0","0","0","34408","","null","","","null","67","","","","","","","","","","","","","","","",""
"","ITI","","html-keyboard-response","438","476684","0.0-1.0-612.0","0","0","34408","","null","","","null","67","","","","","","","","","","","","","","","NaN",""
"","S1","","html-keyboard-response","439","476936","0.0-1.0-614.0","0","0","34408","","null","","","null","68","","","","","","","","","","","","","","","",""
"","ISI","","html-keyboard-response","440","477939","0.0-1.0-615.0","0","0","34408","","null","","","null","68","NaN","","","","","","","","","","","","","","",""
"","S2","","html-keyboard-response","441","478191","0.0-1.0-616.0","0","0","34408","","null","","","null","68","","NaN","","","","","","","","","","","","","",""
"","response","","html-keyboard-response","442","478613","0.0-1.0-617.0-0.0","0","0","34408","","420","","","68","68","","","2","68","training","adjacent","FG","6","7","R.jpg","M.jpg","1","1","1","",""
"","feedback","","html-keyboard-response","443","479617","0.0-1.0-618.0-0.0","0","0","34408","","null","","","null","68","","","","","","","","","","","","","","","",""
"","ITI","","html-keyboard-response","444","480619","0.0-1.0-621.0","0","0","34408","","null","","","null","68","","","","","","","","","","","","","","","NaN",""
"","S1","","html-keyboard-response","445","480872","0.0-1.0-623.0","0","0","34408","","null","","","null","69","","","","","","","","","","","","","","","",""
"","ISI","","html-keyboard-response","446","481874","0.0-1.0-624.0","0","0","34408","","null","","","null","69","NaN","","","","","","","","","","","","","","",""
"","S2","","html-keyboard-response","447","482128","0.0-1.0-625.0","0","0","34408","","null","","","null","69","","NaN","","","","","","","","","","","","","",""
"","response","","html-keyboard-response","448","482829","0.0-1.0-626.0-0.0","0","0","34408","","699","","","68","69","","","2","69","training","adjacent","BA","2","1","P.jpg","L.jpg","1","0","0","",""
"","feedback","","html-keyboard-response","449","483832","0.0-1.0-627.0-0.0","0","0","34408","","null","","","null","69","","","","","","","","","","","","","","","",""
"","time_out","","html-keyboard-response","450","485835","0.0-1.0-629.0-0.0","0","0","34408","","null","","","null","69","","","","","","","","","","","","","","","",""
"","ITI","","html-keyboard-response","451","486838","0.0-1.0-630.0","0","0","34408","","null","","","null","69","","","","","","","","","","","","","","","NaN",""
"","S1","","html-keyboard-response","452","487091","0.0-1.0-632.0","0","0","34408","","null","","","null","70","","","","","","","","","","","","","","","",""
"","ISI","","html-keyboard-response","453","488093","0.0-1.0-633.0","0","0","34408","","null","","","null","70","NaN","","","","","","","","","","","","","","",""
"","S2","","html-keyboard-response","454","488347","0.0-1.0-634.0","0","0","34408","","null","","","null","70","","NaN","","","","","","","","","","","","","",""
"","response","","html-keyboard-response","455","488829","0.0-1.0-635.0-0.0","0","0","34408","","480","","","75","70","","","2","70","training","adjacent","DE","4","5","N.jpg","O.jpg","0","1","0","",""
"","feedback","","html-keyboard-response","456","489833","0.0-1.0-636.0-0.0","0","0","34408","","null","","","null","70","","","","","","","","","","","","","","","",""
"","time_out","","html-keyboard-response","457","491836","0.0-1.0-638.0-0.0","0","0","34408","","null","","","null","70","","","","","","","","","","","","","","","",""
"","ITI","","html-keyboard-response","458","492838","0.0-1.0-639.0","0","0","34408","","null","","","null","70","","","","","","","","","","","","","","","NaN",""
"","S1","","html-keyboard-response","459","493091","0.0-1.0-641.0","0","0","34408","","null","","","null","71","","","","","","","","","","","","","","","",""
"","ISI","","html-keyboard-response","460","494094","0.0-1.0-642.0","0","0","34408","","null","","","null","71","NaN","","","","","","","","","","","","","","",""
"","S2","","html-keyboard-response","461","494347","0.0-1.0-643.0","0","0","34408","","null","","","null","71","","NaN","","","","","","","","","","","","","",""
"","response","","html-keyboard-response","462","494877","0.0-1.0-644.0-0.0","0","0","34408","","529","","","75","71","","","2","71","training","adjacent","FE","6","5","R.jpg","O.jpg","0","0","1","",""
"","feedback","","html-keyboard-response","463","495880","0.0-1.0-645.0-0.0","0","0","34408","","null","","","null","71","","","","","","","","","","","","","","","",""
"","ITI","","html-keyboard-response","464","496884","0.0-1.0-648.0","0","0","34408","","null","","","null","71","","","","","","","","","","","","","","","NaN",""
"","S1","","html-keyboard-response","465","497136","0.0-1.0-650.0","0","0","34408","","null","","","null","72","","","","","","","","","","","","","","","",""
"","ISI","","html-keyboard-response","466","498138","0.0-1.0-651.0","0","0","34408","","null","","","null","72","NaN","","","","","","","","","","","","","","",""
"","S2","","html-keyboard-response","467","498391","0.0-1.0-652.0","0","0","34408","","null","","","null","72","","NaN","","","","","","","","","","","","","",""
"","response","","html-keyboard-response","468","498949","0.0-1.0-653.0-0.0","0","0","34408","","556","","","75","72","","","2","72","training","adjacent","CD","3","4","Q.jpg","N.jpg","0","1","0","",""
"","feedback","","html-keyboard-response","469","499952","0.0-1.0-654.0-0.0","0","0","34408","","null","","","null","72","","","","","","","","","","","","","","","",""
"","time_out","","html-keyboard-response","470","501955","0.0-1.0-656.0-0.0","0","0","34408","","null","","","null","72","","","","","","","","","","","","","","","",""
"","ITI","","html-keyboard-response","471","502958","0.0-1.0-657.0","0","0","34408","","null","","","null","72","","","","","","","","","","","","","","","NaN",""
"","S1","","html-keyboard-response","472","503212","0.0-1.0-659.0","0","0","34408","","null","","","null","73","","","","","","","","","","","","","","","",""
"","ISI","","html-keyboard-response","473","504215","0.0-1.0-660.0","0","0","34408","","null","","","null","73","NaN","","","","","","","","","","","","","","",""
"","S2","","html-keyboard-response","474","504468","0.0-1.0-661.0","0","0","34408","","null","","","null","73","","NaN","","","","","","","","","","","","","",""
"","response","","html-keyboard-response","475","504933","0.0-1.0-662.0-0.0","0","0","34408","","463","","","75","73","","","2","73","training","adjacent","CB","3","2","Q.jpg","P.jpg","0","0","1","",""
"","feedback","","html-keyboard-response","476","505936","0.0-1.0-663.0-0.0","0","0","34408","","null","","","null","73","","","","","","","","","","","","","","","",""
"","ITI","","html-keyboard-response","477","506939","0.0-1.0-666.0","0","0","34408","","null","","","null","73","","","","","","","","","","","","","","","NaN",""
"","S1","","html-keyboard-response","478","507192","0.0-1.0-668.0","0","0","34408","","null","","","null","74","","","","","","","","","","","","","","","",""
"","ISI","","html-keyboard-response","479","508195","0.0-1.0-669.0","0","0","34408","","540","","","68","74","d","","","","","","","","","","","","","","",""
"","S2","","html-keyboard-response","480","508449","0.0-1.0-670.0","0","0","34408","","null","","","null","74","","NaN","","","","","","","","","","","","","",""
"","response","","html-keyboard-response","481","508917","0.0-1.0-671.0-0.0","0","0","34408","","467","","","68","74","","","2","74","training","adjacent","AB","1","2","L.jpg","P.jpg","1","1","1","",""
"","feedback","","html-keyboard-response","482","509920","0.0-1.0-672.0-0.0","0","0","34408","","null","","","null","74","","","","","","","","","","","","","","","",""
"","ITI","","html-keyboard-response","483","510922","0.0-1.0-675.0","0","0","34408","","null","","","null","74","","","","","","","","","","","","","","","NaN",""
"","S1","","html-keyboard-response","484","511176","0.0-1.0-677.0","0","0","34408","","null","","","null","75","","","","","","","","","","","","","","","",""
"","ISI","","html-keyboard-response","485","512178","0.0-1.0-678.0","0","0","34408","","null","","","null","75","NaN","","","","","","","","","","","","","","",""
"","S2","","html-keyboard-response","486","512431","0.0-1.0-679.0","0","0","34408","","null","","","null","75","","NaN","","","","","","","","","","","","","",""
"","response","","html-keyboard-response","487","513021","0.0-1.0-680.0-0.0","0","0","34408","","588","","","68","75","","","2","75","training","adjacent","DC","4","3","N.jpg","Q.jpg","1","0","0","",""
"","feedback","","html-keyboard-response","488","514023","0.0-1.0-681.0-0.0","0","0","34408","","null","","","null","75","","","","","","","","","","","","","","","",""
"","time_out","","html-keyboard-response","489","516026","0.0-1.0-683.0-0.0","0","0","34408","","null","","","null","75","","","","","","","","","","","","","","","",""
"","ITI","","html-keyboard-response","490","517029","0.0-1.0-684.0","0","0","34408","","null","","","null","75","","","","","","","","","","","","","","","NaN",""
"","S1","","html-keyboard-response","491","517282","0.0-1.0-686.0","0","0","34408","","null","","","null","76","","","","","","","","","","","","","","","",""
"","ISI","","html-keyboard-response","492","518284","0.0-1.0-687.0","0","0","34408","","null","","","null","76","NaN","","","","","","","","","","","","","","",""
"","S2","","html-keyboard-response","493","518537","0.0-1.0-688.0","0","0","34408","","null","","","null","76","","NaN","","","","","","","","","","","","","",""
"","response","","html-keyboard-response","494","518981","0.0-1.0-689.0-0.0","0","0","34408","","442","","","68","76","","","2","76","training","adjacent","BC","2","3","P.jpg","Q.jpg","1","1","1","",""
"","feedback","","html-keyboard-response","495","519984","0.0-1.0-690.0-0.0","0","0","34408","","null","","","null","76","","","","","","","","","","","","","","","",""
"","ITI","","html-keyboard-response","496","520986","0.0-1.0-693.0","0","0","34408","","null","","","null","76","","","","","","","","","","","","","","","NaN",""
"","S1","","html-keyboard-response","497","521239","0.0-1.0-695.0","0","0","34408","","null","","","null","77","","","","","","","","","","","","","","","",""
"","ISI","","html-keyboard-response","498","522242","0.0-1.0-696.0","0","0","34408","","null","","","null","77","NaN","","","","","","","","","","","","","","",""
"","S2","","html-keyboard-response","499","522495","0.0-1.0-697.0","0","0","34408","","null","","","null","77","","NaN","","","","","","","","","","","","","",""
"","response","","html-keyboard-response","500","522933","0.0-1.0-698.0-0.0","0","0","34408","","436","","","68","77","","","2","77","training","adjacent","FG","6","7","R.jpg","M.jpg","1","1","1","",""
"","feedback","","html-keyboard-response","501","523936","0.0-1.0-699.0-0.0","0","0","34408","","null","","","null","77","","","","","","","","","","","","","","","",""
"","ITI","","html-keyboard-response","502","524939","0.0-1.0-702.0","0","0","34408","","null","","","null","77","","","","","","","","","","","","","","","NaN",""
"","S1","","html-keyboard-response","503","525192","0.0-1.0-704.0","0","0","34408","","null","","","null","78","","","","","","","","","","","","","","","",""
"","ISI","","html-keyboard-response","504","526195","0.0-1.0-705.0","0","0","34408","","null","","","null","78","NaN","","","","","","","","","","","","","","",""
"","S2","","html-keyboard-response","505","526447","0.0-1.0-706.0","0","0","34408","","null","","","null","78","","NaN","","","","","","","","","","","","","",""
"","response","","html-keyboard-response","506","527013","0.0-1.0-707.0-0.0","0","0","34408","","564","","","68","78","","","2","78","training","adjacent","AB","1","2","L.jpg","P.jpg","1","1","1","",""
"","feedback","","html-keyboard-response","507","528017","0.0-1.0-708.0-0.0","0","0","34408","","null","","","null","78","","","","","","","","","","","","","","","",""
"","ITI","","html-keyboard-response","508","529020","0.0-1.0-711.0","0","0","34408","","null","","","null","78","","","","","","","","","","","","","","","NaN",""
"","S1","","html-keyboard-response","509","529273","0.0-1.0-713.0","0","0","34408","","null","","","null","79","","","","","","","","","","","","","","","",""
"","ISI","","html-keyboard-response","510","530276","0.0-1.0-714.0","0","0","34408","","null","","","null","79","NaN","","","","","","","","","","","","","","",""
"","S2","","html-keyboard-response","511","530528","0.0-1.0-715.0","0","0","34408","","null","","","null","79","","NaN","","","","","","","","","","","","","",""
"","response","","html-keyboard-response","512","531989","0.0-1.0-716.0-0.0","0","0","34408","","1459","","","68","79","","","2","79","training","adjacent","CB","3","2","Q.jpg","P.jpg","1","0","0","",""
"","feedback","","html-keyboard-response","513","532992","0.0-1.0-717.0-0.0","0","0","34408","","null","","","null","79","","","","","","","","","","","","","","","",""
"","time_out","","html-keyboard-response","514","534994","0.0-1.0-719.0-0.0","0","0","34408","","null","","","null","79","","","","","","","","","","","","","","","",""
"","ITI","","html-keyboard-response","515","535997","0.0-1.0-720.0","0","0","34408","","null","","","null","79","","","","","","","","","","","","","","","NaN",""
"","S1","","html-keyboard-response","516","536250","0.0-1.0-722.0","0","0","34408","","null","","","null","80","","","","","","","","","","","","","","","",""
"","ISI","","html-keyboard-response","517","537252","0.0-1.0-723.0","0","0","34408","","null","","","null","80","NaN","","","","","","","","","","","","","","",""
"","S2","","html-keyboard-response","518","537505","0.0-1.0-724.0","0","0","34408","","null","","","null","80","","NaN","","","","","","","","","","","","","",""
"","response","","html-keyboard-response","519","538029","0.0-1.0-725.0-0.0","0","0","34408","","522","","","75","80","","","2","80","training","adjacent","EF","5","6","O.jpg","R.jpg","0","1","0","",""
"","feedback","","html-keyboard-response","520","539032","0.0-1.0-726.0-0.0","0","0","34408","","null","","","null","80","","","","","","","","","","","","","","","",""
"","time_out","","html-keyboard-response","521","541034","0.0-1.0-728.0-0.0","0","0","34408","","null","","","null","80","","","","","","","","","","","","","","","",""
"","ITI","","html-keyboard-response","522","542037","0.0-1.0-729.0","0","0","34408","","null","","","null","80","","","","","","","","","","","","","","","NaN",""
"","S1","","html-keyboard-response","523","542290","0.0-1.0-731.0","0","0","34408","","null","","","null","81","","","","","","","","","","","","","","","",""
"","ISI","","html-keyboard-response","524","543293","0.0-1.0-732.0","0","0","34408","","null","","","null","81","NaN","","","","","","","","","","","","","","",""
"","S2","","html-keyboard-response","525","543546","0.0-1.0-733.0","0","0","34408","","null","","","null","81","","NaN","","","","","","","","","","","","","",""
"","response","","html-keyboard-response","526","544293","0.0-1.0-734.0-0.0","0","0","34408","","746","","","68","81","","","2","81","training","adjacent","DE","4","5","N.jpg","O.jpg","1","1","1","",""
"","feedback","","html-keyboard-response","527","545296","0.0-1.0-735.0-0.0","0","0","34408","","null","","","null","81","","","","","","","","","","","","","","","",""
"","ITI","","html-keyboard-response","528","546300","0.0-1.0-738.0","0","0","34408","","null","","","null","81","","","","","","","","","","","","","","","NaN",""
"","S1","","html-keyboard-response","529","546553","0.0-1.0-740.0","0","0","34408","","null","","","null","82","","","","","","","","","","","","","","","",""
"","ISI","","html-keyboard-response","530","547555","0.0-1.0-741.0","0","0","34408","","null","","","null","82","NaN","","","","","","","","","","","","","","",""
"","S2","","html-keyboard-response","531","547808","0.0-1.0-742.0","0","0","34408","","null","","","null","82","","NaN","","","","","","","","","","","","","",""
"","response","","html-keyboard-response","532","548485","0.0-1.0-743.0-0.0","0","0","34408","","675","","","75","82","","","2","82","training","adjacent","ED","5","4","O.jpg","N.jpg","0","0","1","",""
"","feedback","","html-keyboard-response","533","549488","0.0-1.0-744.0-0.0","0","0","34408","","null","","","null","82","","","","","","","","","","","","","","","",""
"","ITI","","html-keyboard-response","534","550490","0.0-1.0-747.0","0","0","34408","","null","","","null","82","","","","","","","","","","","","","","","NaN",""
"","S1","","html-keyboard-response","535","550744","0.0-1.0-749.0","0","0","34408","","null","","","null","83","","","","","","","","","","","","","","","",""
"","ISI","","html-keyboard-response","536","551746","0.0-1.0-750.0","0","0","34408","","null","","","null","83","NaN","","","","","","","","","","","","","","",""
"","S2","","html-keyboard-response","537","551999","0.0-1.0-751.0","0","0","34408","","null","","","null","83","","NaN","","","","","","","","","","","","","",""
"","response","","html-keyboard-response","538","552461","0.0-1.0-752.0-0.0","0","0","34408","","460","","","75","83","","","2","83","training","adjacent","GF","7","6","M.jpg","R.jpg","0","0","1","",""
"","feedback","","html-keyboard-response","539","553464","0.0-1.0-753.0-0.0","0","0","34408","","null","","","null","83","","","","","","","","","","","","","","","",""
"","ITI","","html-keyboard-response","540","554467","0.0-1.0-756.0","0","0","34408","","null","","","null","83","","","","","","","","","","","","","","","NaN",""
"","S1","","html-keyboard-response","541","554719","0.0-1.0-758.0","0","0","34408","","null","","","null","84","","","","","","","","","","","","","","","",""
"","ISI","","html-keyboard-response","542","555721","0.0-1.0-759.0","0","0","34408","","null","","","null","84","NaN","","","","","","","","","","","","","","",""
"","S2","","html-keyboard-response","543","555973","0.0-1.0-760.0","0","0","34408","","null","","","null","84","","NaN","","","","","","","","","","","","","",""
"","response","","html-keyboard-response","544","556589","0.0-1.0-761.0-0.0","0","0","34408","","613","","","75","84","","","2","84","training","adjacent","CD","3","4","Q.jpg","N.jpg","0","1","0","",""
"","feedback","","html-keyboard-response","545","557592","0.0-1.0-762.0-0.0","0","0","34408","","null","","","null","84","","","","","","","","","","","","","","","",""
"","time_out","","html-keyboard-response","546","559594","0.0-1.0-764.0-0.0","0","0","34408","","null","","","null","84","","","","","","","","","","","","","","","",""
"","ITI","","html-keyboard-response","547","560597","0.0-1.0-765.0","0","0","34408","","null","","","null","84","","","","","","","","","","","","","","","NaN",""
"","S1","","html-keyboard-response","548","560849","0.0-1.0-767.0","0","0","34408","","null","","","null","85","","","","","","","","","","","","","","","",""
"","ISI","","html-keyboard-response","549","561852","0.0-1.0-768.0","0","0","34408","","null","","","null","85","NaN","","","","","","","","","","","","","","",""
"","S2","","html-keyboard-response","550","562105","0.0-1.0-769.0","0","0","34408","","null","","","null","85","","NaN","","","","","","","","","","","","","",""
"","response","","html-keyboard-response","551","562757","0.0-1.0-770.0-0.0","0","0","34408","","650","","","68","85","","","2","85","training","adjacent","EF","5","6","O.jpg","R.jpg","1","1","1","",""
"","feedback","","html-keyboard-response","552","563760","0.0-1.0-771.0-0.0","0","0","34408","","null","","","null","85","","","","","","","","","","","","","","","",""
"","ITI","","html-keyboard-response","553","564763","0.0-1.0-774.0","0","0","34408","","null","","","null","85","","","","","","","","","","","","","","","NaN",""
"","S1","","html-keyboard-response","554","565016","0.0-1.0-776.0","0","0","34408","","null","","","null","86","","","","","","","","","","","","","","","",""
"","ISI","","html-keyboard-response","555","566018","0.0-1.0-777.0","0","0","34408","","null","","","null","86","NaN","","","","","","","","","","","","","","",""
"","S2","","html-keyboard-response","556","566271","0.0-1.0-778.0","0","0","34408","","null","","","null","86","","NaN","","","","","","","","","","","","","",""
"","response","","html-keyboard-response","557","566821","0.0-1.0-779.0-0.0","0","0","34408","","547","","","68","86","","","2","86","training","adjacent","BC","2","3","P.jpg","Q.jpg","1","1","1","",""
"","feedback","","html-keyboard-response","558","567823","0.0-1.0-780.0-0.0","0","0","34408","","null","","","null","86","","","","","","","","","","","","","","","",""
"","ITI","","html-keyboard-response","559","568826","0.0-1.0-783.0","0","0","34408","","null","","","null","86","","","","","","","","","","","","","","","NaN",""
"","S1","","html-keyboard-response","560","569079","0.0-1.0-785.0","0","0","34408","","null","","","null","87","","","","","","","","","","","","","","","",""
"","ISI","","html-keyboard-response","561","570081","0.0-1.0-786.0","0","0","34408","","null","","","null","87","NaN","","","","","","","","","","","","","","",""
"","S2","","html-keyboard-response","562","570335","0.0-1.0-787.0","0","0","34408","","null","","","null","87","","NaN","","","","","","","","","","","","","",""
"","response","","html-keyboard-response","563","570660","0.0-1.0-788.0-0.0","0","0","34408","","323","","","75","87","","","2","87","training","adjacent","AB","1","2","L.jpg","P.jpg","0","1","0","",""
"","feedback","","html-keyboard-response","564","571664","0.0-1.0-789.0-0.0","0","0","34408","","null","","","null","87","","","","","","","","","","","","","","","",""
"","time_out","","html-keyboard-response","565","573667","0.0-1.0-791.0-0.0","0","0","34408","","null","","","null","87","","","","","","","","","","","","","","","",""
"","ITI","","html-keyboard-response","566","574669","0.0-1.0-792.0","0","0","34408","","null","","","null","87","","","","","","","","","","","","","","","NaN",""
"","S1","","html-keyboard-response","567","574922","0.0-1.0-794.0","0","0","34408","","null","","","null","88","","","","","","","","","","","","","","","",""
"","ISI","","html-keyboard-response","568","575925","0.0-1.0-795.0","0","0","34408","","null","","","null","88","NaN","","","","","","","","","","","","","","",""
"","S2","","html-keyboard-response","569","576177","0.0-1.0-796.0","0","0","34408","","null","","","null","88","","NaN","","","","","","","","","","","","","",""
"","response","","html-keyboard-response","570","577173","0.0-1.0-797.0-0.0","0","0","34408","","993","","","75","88","","","2","88","training","adjacent","DC","4","3","N.jpg","Q.jpg","0","0","1","",""
"","feedback","","html-keyboard-response","571","578176","0.0-1.0-798.0-0.0","0","0","34408","","null","","","null","88","","","","","","","","","","","","","","","",""
"","ITI","","html-keyboard-response","572","579180","0.0-1.0-801.0","0","0","34408","","null","","","null","88","","","","","","","","","","","","","","","NaN",""
"","S1","","html-keyboard-response","573","579433","0.0-1.0-803.0","0","0","34408","","null","","","null","89","","","","","","","","","","","","","","","",""
"","ISI","","html-keyboard-response","574","580436","0.0-1.0-804.0","0","0","34408","","null","","","null","89","NaN","","","","","","","","","","","","","","",""
"","S2","","html-keyboard-response","575","580689","0.0-1.0-805.0","0","0","34408","","null","","","null","89","","NaN","","","","","","","","","","","","","",""
"","response","","html-keyboard-response","576","581044","0.0-1.0-806.0-0.0","0","0","34408","","353","","","68","89","","","2","89","training","adjacent","DE","4","5","N.jpg","O.jpg","1","1","1","",""
"","feedback","","html-keyboard-response","577","582048","0.0-1.0-807.0-0.0","0","0","34408","","null","","","null","89","","","","","","","","","","","","","","","",""
"","ITI","","html-keyboard-response","578","583051","0.0-1.0-810.0","0","0","34408","","null","","","null","89","","","","","","","","","","","","","","","NaN",""
"","S1","","html-keyboard-response","579","583303","0.0-1.0-812.0","0","0","34408","","null","","","null","90","","","","","","","","","","","","","","","",""
"","ISI","","html-keyboard-response","580","584306","0.0-1.0-813.0","0","0","34408","","null","","","null","90","NaN","","","","","","","","","","","","","","",""
"","S2","","html-keyboard-response","581","584560","0.0-1.0-814.0","0","0","34408","","null","","","null","90","","NaN","","","","","","","","","","","","","",""
"","response","","html-keyboard-response","582","585260","0.0-1.0-815.0-0.0","0","0","34408","","699","","","75","90","","","2","90","training","adjacent","FE","6","5","R.jpg","O.jpg","0","0","1","",""
