"success","ttype","start_time","trial_type","trial_index","time_elapsed","internal_node_id","warning","missed_checkup","PID","view_history","rt","responses","repeat_instructions","key_press","index","keypress_isi","keypress_S2","block","trial_num","phase","group_type","pair_type","S1_stim","S2_stim","S1_img","S2_img","S1_chosen","S1_higher","accuracy","keypress_iti","total_bonus_tally"
"true","full_screen","d04062023hr2235","fullscreen","0","16770","0.0-0.0","0","0","65126","","","","","","","","","","","","","","","","","","","","","",""
"","instructions","","instructions","1","63942","0.0-1.0-0.0-0.0","0","0","65126","[{""page_index"":0,""viewing_time"":5368},{""page_index"":1,""viewing_time"":19500},{""page_index"":2,""viewing_time"":18083},{""page_index"":3,""viewing_time"":4216}]","47168","","","","","","","","","","","","","","","","","","","",""
"","comprehension_check","","survey-multi-choice","2","97492","0.0-1.0-0.0-1.0","0","0","65126","","33544","{""Q0"":""True"",""Q1"":""D"",""Q2"":""Only when the screen 'MAKE A CHOICE' is shown"",""Q3"":""Red cross"",""Q4"":""either D or K""}","1","","","","","","","","","","","","","","","","","",""
"","missed_instruction_checkup","","html-keyboard-response","3","99712","0.0-1.0-0.0-2.0-0.0","0","1","65126","","2214","","","32","","","","","","","","","","","","","","","","",""
"","instructions","","instructions","4","117842","0.0-1.0-0.1-0.1","0","0","65126","[{""page_index"":0,""viewing_time"":2492},{""page_index"":1,""viewing_time"":11734},{""page_index"":2,""viewing_time"":2349},{""page_index"":3,""viewing_time"":1550}]","18126","","","","","","","","","","","","","","","","","","","",""
"","comprehension_check","","survey-multi-choice","5","131558","0.0-1.0-0.1-1.1","0","0","65126","","13711","{""Q0"":""True"",""Q1"":""D"",""Q2"":""Once the second image appears and while the screen 'MAKE A CHOICE' is shown"",""Q3"":""Red cross"",""Q4"":""either D or K""}","1","","","","","","","","","","","","","","","","","",""
"","missed_instruction_checkup","","html-keyboard-response","6","133507","0.0-1.0-0.1-2.1-0.1","0","1","65126","","1946","","","32","","","","","","","","","","","","","","","","",""
"","instructions","","instructions","7","170109","0.0-1.0-0.2-0.2","0","0","65126","[{""page_index"":0,""viewing_time"":4851},{""page_index"":1,""viewing_time"":15027},{""page_index"":2,""viewing_time"":15805},{""page_index"":3,""viewing_time"":916}]","36600","","","","","","","","","","","","","","","","","","","",""
"","comprehension_check","","survey-multi-choice","8","195744","0.0-1.0-0.2-1.2","0","0","65126","","25629","{""Q0"":""True"",""Q1"":""D"",""Q2"":""Once the second image appears and while the screen 'MAKE A CHOICE' is shown"",""Q3"":""Green mark"",""Q4"":""either D or K""}","0","","","","","","","","","","","","","","","","","",""
"","start_exp","","html-keyboard-response","9","197471","0.0-1.0-1.0","0","0","65126","","1724","","","32","","","","","","","","","","","","","","","","",""
"","S1","","html-keyboard-response","10","197631","0.0-1.0-2.0","0","0","65126","","null","","","null","0","","","","","","","","","","","","","","","",""
"","ISI","","html-keyboard-response","11","199641","0.0-1.0-3.0","0","0","65126","","null","","","null","0","NaN","","","","","","","","","","","","","","",""
"","S2","","html-keyboard-response","12","199805","0.0-1.0-4.0","0","0","65126","","null","","","null","0","","NaN","","","","","","","","","","","","","",""
"","response","","html-keyboard-response","13","200650","0.0-1.0-5.0-0.0","0","0","65126","","840","","","75","0","","","1","0","training","adjacent","DE","4","5","M.jpg","P.jpg","0","1","0","",""
"","feedback","","html-keyboard-response","14","201662","0.0-1.0-6.0-0.0","0","0","65126","","null","","","null","0","","","","","","","","","","","","","","","",""
"","time_out","","html-keyboard-response","15","203672","0.0-1.0-8.0-0.0","0","0","65126","","null","","","null","0","","","","","","","","","","","","","","","",""
"","ITI","","html-keyboard-response","16","204688","0.0-1.0-9.0","0","0","65126","","null","","","null","0","","","","","","","","","","","","","","","NaN",""
"","S1","","html-keyboard-response","17","204846","0.0-1.0-11.0","0","0","65126","","null","","","null","1","","","","","","","","","","","","","","","",""
"","ISI","","html-keyboard-response","18","206856","0.0-1.0-12.0","0","0","65126","","null","","","null","1","NaN","","","","","","","","","","","","","","",""
"","S2","","html-keyboard-response","19","207014","0.0-1.0-13.0","0","0","65126","","null","","","null","1","","NaN","","","","","","","","","","","","","",""
"","response","","html-keyboard-response","20","207439","0.0-1.0-14.0-0.0","0","0","65126","","420","","","68","1","","","1","1","training","adjacent","AB","1","2","L.jpg","R.jpg","1","1","1","",""
"","feedback","","html-keyboard-response","21","208447","0.0-1.0-15.0-0.0","0","0","65126","","null","","","null","1","","","","","","","","","","","","","","","",""
"","ITI","","html-keyboard-response","22","209455","0.0-1.0-18.0","0","0","65126","","null","","","null","1","","","","","","","","","","","","","","","NaN",""
"","S1","","html-keyboard-response","23","209614","0.0-1.0-20.0","0","0","65126","","null","","","null","2","","","","","","","","","","","","","","","",""
"","ISI","","html-keyboard-response","24","211624","0.0-1.0-21.0","0","0","65126","","null","","","null","2","NaN","","","","","","","","","","","","","","",""
"","S2","","html-keyboard-response","25","211784","0.0-1.0-22.0","0","0","65126","","null","","","null","2","","NaN","","","","","","","","","","","","","",""
"","response","","html-keyboard-response","26","212117","0.0-1.0-23.0-0.0","0","0","65126","","330","","","75","2","","","1","2","training","adjacent","DC","4","3","M.jpg","O.jpg","0","0","1","",""
"","feedback","","html-keyboard-response","27","213125","0.0-1.0-24.0-0.0","0","0","65126","","null","","","null","2","","","","","","","","","","","","","","","",""
"","ITI","","html-keyboard-response","28","214136","0.0-1.0-27.0","0","0","65126","","null","","","null","2","","","","","","","","","","","","","","","NaN",""
"","S1","","html-keyboard-response","29","214294","0.0-1.0-29.0","0","0","65126","","null","","","null","3","","","","","","","","","","","","","","","",""
"","ISI","","html-keyboard-response","30","216301","0.0-1.0-30.0","0","0","65126","","null","","","null","3","NaN","","","","","","","","","","","","","","",""
"","S2","","html-keyboard-response","31","216461","0.0-1.0-31.0","0","0","65126","","null","","","null","3","","NaN","","","","","","","","","","","","","",""
"","response","","html-keyboard-response","32","216888","0.0-1.0-32.0-0.0","0","0","65126","","422","","","75","3","","","1","3","training","adjacent","FG","6","7","Q.jpg","N.jpg","0","1","0","",""
"","feedback","","html-keyboard-response","33","217901","0.0-1.0-33.0-0.0","0","0","65126","","null","","","null","3","","","","","","","","","","","","","","","",""
"","time_out","","html-keyboard-response","34","219912","0.0-1.0-35.0-0.0","0","0","65126","","null","","","null","3","","","","","","","","","","","","","","","",""
"","ITI","","html-keyboard-response","35","220926","0.0-1.0-36.0","0","0","65126","","null","","","null","3","","","","","","","","","","","","","","","NaN",""
"","S1","","html-keyboard-response","36","221086","0.0-1.0-38.0","0","0","65126","","null","","","null","4","","","","","","","","","","","","","","","",""
"","ISI","","html-keyboard-response","37","223093","0.0-1.0-39.0","0","0","65126","","null","","","null","4","NaN","","","","","","","","","","","","","","",""
"","S2","","html-keyboard-response","38","223256","0.0-1.0-40.0","0","0","65126","","null","","","null","4","","NaN","","","","","","","","","","","","","",""
"","response","","html-keyboard-response","39","223652","0.0-1.0-41.0-0.0","0","0","65126","","391","","","68","4","","","1","4","training","adjacent","ED","5","4","P.jpg","M.jpg","1","0","0","",""
"","feedback","","html-keyboard-response","40","224663","0.0-1.0-42.0-0.0","0","0","65126","","null","","","null","4","","","","","","","","","","","","","","","",""
"","time_out","","html-keyboard-response","41","226673","0.0-1.0-44.0-0.0","0","0","65126","","null","","","null","4","","","","","","","","","","","","","","","",""
"","ITI","","html-keyboard-response","42","227688","0.0-1.0-45.0","0","0","65126","","null","","","null","4","","","","","","","","","","","","","","","NaN",""
"","S1","","html-keyboard-response","43","227848","0.0-1.0-47.0","0","0","65126","","null","","","null","5","","","","","","","","","","","","","","","",""
"","ISI","","html-keyboard-response","44","229864","0.0-1.0-48.0","0","0","65126","","null","","","null","5","NaN","","","","","","","","","","","","","","",""
"","S2","","html-keyboard-response","45","230024","0.0-1.0-49.0","0","0","65126","","null","","","null","5","","NaN","","","","","","","","","","","","","",""
"","response","","html-keyboard-response","46","230405","0.0-1.0-50.0-0.0","0","0","65126","","377","","","75","5","","","1","5","training","adjacent","ED","5","4","P.jpg","M.jpg","0","0","1","",""
"","feedback","","html-keyboard-response","47","231416","0.0-1.0-51.0-0.0","0","0","65126","","null","","","null","5","","","","","","","","","","","","","","","",""
"","ITI","","html-keyboard-response","48","232429","0.0-1.0-54.0","0","0","65126","","null","","","null","5","","","","","","","","","","","","","","","NaN",""
"","S1","","html-keyboard-response","49","232589","0.0-1.0-56.0","0","0","65126","","null","","","null","6","","","","","","","","","","","","","","","",""
"","ISI","","html-keyboard-response","50","234599","0.0-1.0-57.0","0","0","65126","","null","","","null","6","NaN","","","","","","","","","","","","","","",""
"","S2","","html-keyboard-response","51","234760","0.0-1.0-58.0","0","0","65126","","null","","","null","6","","NaN","","","","","","","","","","","","","",""
"","response","","html-keyboard-response","52","235772","0.0-1.0-59.0-0.0","0","0","65126","","1008","","","68","6","","","1","6","training","adjacent","EF","5","6","P.jpg","Q.jpg","1","1","1","",""
"","feedback","","html-keyboard-response","53","236781","0.0-1.0-60.0-0.0","0","0","65126","","null","","","null","6","","","","","","","","","","","","","","","",""
"","ITI","","html-keyboard-response","54","237789","0.0-1.0-63.0","0","0","65126","","null","","","null","6","","","","","","","","","","","","","","","NaN",""
"","S1","","html-keyboard-response","55","237949","0.0-1.0-65.0","0","0","65126","","null","","","null","7","","","","","","","","","","","","","","","",""
"","ISI","","html-keyboard-response","56","239959","0.0-1.0-66.0","0","0","65126","","null","","","null","7","NaN","","","","","","","","","","","","","","",""
"","S2","","html-keyboard-response","57","240120","0.0-1.0-67.0","0","0","65126","","null","","","null","7","","NaN","","","","","","","","","","","","","",""
"","response","","html-keyboard-response","58","240713","0.0-1.0-68.0-0.0","0","0","65126","","589","","","75","7","","","1","7","training","adjacent","GF","7","6","N.jpg","Q.jpg","0","0","1","",""
"","feedback","","html-keyboard-response","59","241725","0.0-1.0-69.0-0.0","0","0","65126","","null","","","null","7","","","","","","","","","","","","","","","",""
"","ITI","","html-keyboard-response","60","242732","0.0-1.0-72.0","0","0","65126","","null","","","null","7","","","","","","","","","","","","","","","NaN",""
"","S1","","html-keyboard-response","61","242893","0.0-1.0-74.0","0","0","65126","","null","","","null","8","","","","","","","","","","","","","","","",""
"","ISI","","html-keyboard-response","62","244903","0.0-1.0-75.0","0","0","65126","","null","","","null","8","NaN","","","","","","","","","","","","","","",""
"","S2","","html-keyboard-response","63","245063","0.0-1.0-76.0","0","0","65126","","null","","","null","8","","NaN","","","","","","","","","","","","","",""
"","response","","html-keyboard-response","64","245386","0.0-1.0-77.0-0.0","0","0","65126","","321","","","68","8","","","1","8","training","adjacent","FG","6","7","Q.jpg","N.jpg","1","1","1","",""
"","feedback","","html-keyboard-response","65","246400","0.0-1.0-78.0-0.0","0","0","65126","","null","","","null","8","","","","","","","","","","","","","","","",""
"","ITI","","html-keyboard-response","66","247416","0.0-1.0-81.0","0","0","65126","","null","","","null","8","","","","","","","","","","","","","","","NaN",""
"","S1","","html-keyboard-response","67","247575","0.0-1.0-83.0","0","0","65126","","null","","","null","9","","","","","","","","","","","","","","","",""
"","ISI","","html-keyboard-response","68","249580","0.0-1.0-84.0","0","0","65126","","null","","","null","9","NaN","","","","","","","","","","","","","","",""
"","S2","","html-keyboard-response","69","249740","0.0-1.0-85.0","0","0","65126","","null","","","null","9","","NaN","","","","","","","","","","","","","",""
"","response","","html-keyboard-response","70","250525","0.0-1.0-86.0-0.0","0","0","65126","","781","","","68","9","","","1","9","training","adjacent","CD","3","4","O.jpg","M.jpg","1","1","1","",""
"","feedback","","html-keyboard-response","71","251533","0.0-1.0-87.0-0.0","0","0","65126","","null","","","null","9","","","","","","","","","","","","","","","",""
"","ITI","","html-keyboard-response","72","252541","0.0-1.0-90.0","0","0","65126","","null","","","null","9","","","","","","","","","","","","","","","NaN",""
"","S1","","html-keyboard-response","73","252700","0.0-1.0-92.0","0","0","65126","","null","","","null","10","","","","","","","","","","","","","","","",""
"","ISI","","html-keyboard-response","74","254710","0.0-1.0-93.0","0","0","65126","","null","","","null","10","NaN","","","","","","","","","","","","","","",""
"","S2","","html-keyboard-response","75","254871","0.0-1.0-94.0","0","0","65126","","null","","","null","10","","NaN","","","","","","","","","","","","","",""
"","response","","html-keyboard-response","76","255370","0.0-1.0-95.0-0.0","0","0","65126","","495","","","68","10","","","1","10","training","adjacent","BA","2","1","R.jpg","L.jpg","1","0","0","",""
"","feedback","","html-keyboard-response","77","256380","0.0-1.0-96.0-0.0","0","0","65126","","null","","","null","10","","","","","","","","","","","","","","","",""
"","time_out","","html-keyboard-response","78","258390","0.0-1.0-98.0-0.0","0","0","65126","","null","","","null","10","","","","","","","","","","","","","","","",""
"","ITI","","html-keyboard-response","79","259404","0.0-1.0-99.0","0","0","65126","","null","","","null","10","","","","","","","","","","","","","","","NaN",""
"","S1","","html-keyboard-response","80","259564","0.0-1.0-101.0","0","0","65126","","null","","","null","11","","","","","","","","","","","","","","","",""
"","ISI","","html-keyboard-response","81","261572","0.0-1.0-102.0","0","0","65126","","null","","","null","11","NaN","","","","","","","","","","","","","","",""
"","S2","","html-keyboard-response","82","261733","0.0-1.0-103.0","0","0","65126","","null","","","null","11","","NaN","","","","","","","","","","","","","",""
"","response","","html-keyboard-response","83","262062","0.0-1.0-104.0-0.0","0","0","65126","","325","","","68","11","","","1","11","training","adjacent","FE","6","5","Q.jpg","P.jpg","1","0","0","",""
"","feedback","","html-keyboard-response","84","263068","0.0-1.0-105.0-0.0","0","0","65126","","null","","","null","11","","","","","","","","","","","","","","","",""
"","time_out","","html-keyboard-response","85","265078","0.0-1.0-107.0-0.0","0","0","65126","","null","","","null","11","","","","","","","","","","","","","","","",""
"","ITI","","html-keyboard-response","86","266087","0.0-1.0-108.0","0","0","65126","","null","","","null","11","","","","","","","","","","","","","","","NaN",""
"","S1","","html-keyboard-response","87","266247","0.0-1.0-110.0","0","0","65126","","null","","","null","12","","","","","","","","","","","","","","","",""
"","ISI","","html-keyboard-response","88","268263","0.0-1.0-111.0","0","0","65126","","null","","","null","12","NaN","","","","","","","","","","","","","","",""
"","S2","","html-keyboard-response","89","268423","0.0-1.0-112.0","0","0","65126","","null","","","null","12","","NaN","","","","","","","","","","","","","",""
"","response","","html-keyboard-response","90","268766","0.0-1.0-113.0-0.0","0","0","65126","","339","","","75","12","","","1","12","training","adjacent","DE","4","5","M.jpg","P.jpg","0","1","0","",""
"","feedback","","html-keyboard-response","91","269783","0.0-1.0-114.0-0.0","0","0","65126","","null","","","null","12","","","","","","","","","","","","","","","",""
"","time_out","","html-keyboard-response","92","271798","0.0-1.0-116.0-0.0","0","0","65126","","null","","","null","12","","","","","","","","","","","","","","","",""
"","ITI","","html-keyboard-response","93","272811","0.0-1.0-117.0","0","0","65126","","null","","","null","12","","","","","","","","","","","","","","","NaN",""
"","S1","","html-keyboard-response","94","272975","0.0-1.0-119.0","0","0","65126","","null","","","null","13","","","","","","","","","","","","","","","",""
"","ISI","","html-keyboard-response","95","274988","0.0-1.0-120.0","0","0","65126","","null","","","null","13","NaN","","","","","","","","","","","","","","",""
"","S2","","html-keyboard-response","96","275148","0.0-1.0-121.0","0","0","65126","","null","","","null","13","","NaN","","","","","","","","","","","","","",""
"","response","","html-keyboard-response","97","275822","0.0-1.0-122.0-0.0","0","0","65126","","669","","","75","13","","","1","13","training","adjacent","DE","4","5","M.jpg","P.jpg","0","1","0","",""
"","feedback","","html-keyboard-response","98","276835","0.0-1.0-123.0-0.0","0","0","65126","","null","","","null","13","","","","","","","","","","","","","","","",""
"","time_out","","html-keyboard-response","99","278844","0.0-1.0-125.0-0.0","0","0","65126","","null","","","null","13","","","","","","","","","","","","","","","",""
"","ITI","","html-keyboard-response","100","279851","0.0-1.0-126.0","0","0","65126","","null","","","null","13","","","","","","","","","","","","","","","NaN",""
"","S1","","html-keyboard-response","101","280011","0.0-1.0-128.0","0","0","65126","","null","","","null","14","","","","","","","","","","","","","","","",""
"","ISI","","html-keyboard-response","102","282022","0.0-1.0-129.0","0","0","65126","","null","","","null","14","NaN","","","","","","","","","","","","","","",""
"","S2","","html-keyboard-response","103","282182","0.0-1.0-130.0","0","0","65126","","null","","","null","14","","NaN","","","","","","","","","","","","","",""
"","response","","html-keyboard-response","104","282312","0.0-1.0-131.0-0.0","0","0","65126","","127","","","68","14","","","1","14","training","adjacent","BC","2","3","R.jpg","O.jpg","1","1","1","",""
"","feedback","","html-keyboard-response","105","283321","0.0-1.0-132.0-0.0","0","0","65126","","null","","","null","14","","","","","","","","","","","","","","","",""
"","ITI","","html-keyboard-response","106","284330","0.0-1.0-135.0","0","0","65126","","null","","","null","14","","","","","","","","","","","","","","","NaN",""
"","S1","","html-keyboard-response","107","284491","0.0-1.0-137.0","0","0","65126","","null","","","null","15","","","","","","","","","","","","","","","",""
"","ISI","","html-keyboard-response","108","286502","0.0-1.0-138.0","0","0","65126","","null","","","null","15","NaN","","","","","","","","","","","","","","",""
"","S2","","html-keyboard-response","109","286662","0.0-1.0-139.0","0","0","65126","","null","","","null","15","","NaN","","","","","","","","","","","","","",""
"","response","","html-keyboard-response","110","286839","0.0-1.0-140.0-0.0","0","0","65126","","174","","","75","15","","","1","15","training","adjacent","EF","5","6","P.jpg","Q.jpg","0","1","0","",""
"","feedback","","html-keyboard-response","111","287851","0.0-1.0-141.0-0.0","0","0","65126","","null","","","null","15","","","","","","","","","","","","","","","",""
"","time_out","","html-keyboard-response","112","289862","0.0-1.0-143.0-0.0","0","0","65126","","null","","","null","15","","","","","","","","","","","","","","","",""
"","ITI","","html-keyboard-response","113","290877","0.0-1.0-144.0","0","0","65126","","null","","","null","15","","","","","","","","","","","","","","","NaN",""
"","S1","","html-keyboard-response","114","291038","0.0-1.0-146.0","0","0","65126","","null","","","null","16","","","","","","","","","","","","","","","",""
"","ISI","","html-keyboard-response","115","293050","0.0-1.0-147.0","0","0","65126","","null","","","null","16","NaN","","","","","","","","","","","","","","",""
"","S2","","html-keyboard-response","116","293211","0.0-1.0-148.0","0","0","65126","","null","","","null","16","","NaN","","","","","","","","","","","","","",""
"","response","","html-keyboard-response","117","293425","0.0-1.0-149.0-0.0","0","0","65126","","209","","","68","16","","","1","16","training","adjacent","CB","3","2","O.jpg","R.jpg","1","0","0","",""
"","feedback","","html-keyboard-response","118","294438","0.0-1.0-150.0-0.0","0","0","65126","","null","","","null","16","","","","","","","","","","","","","","","",""
"","time_out","","html-keyboard-response","119","296454","0.0-1.0-152.0-0.0","0","0","65126","","null","","","null","16","","","","","","","","","","","","","","","",""
"","ITI","","html-keyboard-response","120","297467","0.0-1.0-153.0","0","0","65126","","null","","","null","16","","","","","","","","","","","","","","","NaN",""
"","S1","","html-keyboard-response","121","297626","0.0-1.0-155.0","0","0","65126","","null","","","null","17","","","","","","","","","","","","","","","",""
"","ISI","","html-keyboard-response","122","299638","0.0-1.0-156.0","0","0","65126","","null","","","null","17","NaN","","","","","","","","","","","","","","",""
"","S2","","html-keyboard-response","123","299798","0.0-1.0-157.0","0","0","65126","","null","","","null","17","","NaN","","","","","","","","","","","","","",""
"","response","","html-keyboard-response","124","300410","0.0-1.0-158.0-0.0","0","0","65126","","608","","","75","17","","","1","17","training","adjacent","BA","2","1","R.jpg","L.jpg","0","0","1","",""
"","feedback","","html-keyboard-response","125","301419","0.0-1.0-159.0-0.0","0","0","65126","","null","","","null","17","","","","","","","","","","","","","","","",""
"","ITI","","html-keyboard-response","126","302427","0.0-1.0-162.0","0","0","65126","","null","","","null","17","","","","","","","","","","","","","","","NaN",""
"","S1","","html-keyboard-response","127","302587","0.0-1.0-164.0","0","0","65126","","null","","","null","18","","","","","","","","","","","","","","","",""
"","ISI","","html-keyboard-response","128","304598","0.0-1.0-165.0","0","0","65126","","null","","","null","18","NaN","","","","","","","","","","","","","","",""
"","S2","","html-keyboard-response","129","304757","0.0-1.0-166.0","0","0","65126","","null","","","null","18","","NaN","","","","","","","","","","","","","",""
"","response","","html-keyboard-response","130","305314","0.0-1.0-167.0-0.0","0","0","65126","","552","","","75","18","","","1","18","training","adjacent","BC","2","3","R.jpg","O.jpg","0","1","0","",""
"","feedback","","html-keyboard-response","131","306325","0.0-1.0-168.0-0.0","0","0","65126","","null","","","null","18","","","","","","","","","","","","","","","",""
"","time_out","","html-keyboard-response","132","308342","0.0-1.0-170.0-0.0","0","0","65126","","null","","","null","18","","","","","","","","","","","","","","","",""
"","ITI","","html-keyboard-response","133","309357","0.0-1.0-171.0","0","0","65126","","null","","","null","18","","","","","","","","","","","","","","","NaN",""
"","S1","","html-keyboard-response","134","309517","0.0-1.0-173.0","0","0","65126","","null","","","null","19","","","","","","","","","","","","","","","",""
"","ISI","","html-keyboard-response","135","311531","0.0-1.0-174.0","0","0","65126","","null","","","null","19","NaN","","","","","","","","","","","","","","",""
"","S2","","html-keyboard-response","136","311690","0.0-1.0-175.0","0","0","65126","","null","","","null","19","","NaN","","","","","","","","","","","","","",""
"","response","","html-keyboard-response","137","311817","0.0-1.0-176.0-0.0","0","0","65126","","122","","","75","19","","","1","19","training","adjacent","FE","6","5","Q.jpg","P.jpg","0","0","1","",""
"","feedback","","html-keyboard-response","138","312826","0.0-1.0-177.0-0.0","0","0","65126","","null","","","null","19","","","","","","","","","","","","","","","",""
"","ITI","","html-keyboard-response","139","313837","0.0-1.0-180.0","0","0","65126","","null","","","null","19","","","","","","","","","","","","","","","NaN",""
"","S1","","html-keyboard-response","140","313997","0.0-1.0-182.0","0","0","65126","","null","","","null","20","","","","","","","","","","","","","","","",""
"","ISI","","html-keyboard-response","141","316011","0.0-1.0-183.0","0","0","65126","","null","","","null","20","NaN","","","","","","","","","","","","","","",""
"","S2","","html-keyboard-response","142","316170","0.0-1.0-184.0","0","0","65126","","null","","","null","20","","NaN","","","","","","","","","","","","","",""
"","response","","html-keyboard-response","143","316486","0.0-1.0-185.0-0.0","0","0","65126","","311","","","68","20","","","1","20","training","adjacent","AB","1","2","L.jpg","R.jpg","1","1","1","",""
"","feedback","","html-keyboard-response","144","317499","0.0-1.0-186.0-0.0","0","0","65126","","null","","","null","20","","","","","","","","","","","","","","","",""
"","ITI","","html-keyboard-response","145","318506","0.0-1.0-189.0","0","0","65126","","null","","","null","20","","","","","","","","","","","","","","","NaN",""
"","S1","","html-keyboard-response","146","318666","0.0-1.0-191.0","0","0","65126","","null","","","null","21","","","","","","","","","","","","","","","",""
"","ISI","","html-keyboard-response","147","320677","0.0-1.0-192.0","0","0","65126","","null","","","null","21","NaN","","","","","","","","","","","","","","",""
"","S2","","html-keyboard-response","148","320837","0.0-1.0-193.0","0","0","65126","","null","","","null","21","","NaN","","","","","","","","","","","","","",""
"","response","","html-keyboard-response","149","321303","0.0-1.0-194.0-0.0","0","0","65126","","462","","","75","21","","","1","21","training","adjacent","BA","2","1","R.jpg","L.jpg","0","0","1","",""
"","feedback","","html-keyboard-response","150","322316","0.0-1.0-195.0-0.0","0","0","65126","","null","","","null","21","","","","","","","","","","","","","","","",""
"","ITI","","html-keyboard-response","151","323332","0.0-1.0-198.0","0","0","65126","","null","","","null","21","","","","","","","","","","","","","","","NaN",""
"","S1","","html-keyboard-response","152","323489","0.0-1.0-200.0","0","0","65126","","null","","","null","22","","","","","","","","","","","","","","","",""
"","ISI","","html-keyboard-response","153","325498","0.0-1.0-201.0","0","0","65126","","null","","","null","22","NaN","","","","","","","","","","","","","","",""
"","S2","","html-keyboard-response","154","325658","0.0-1.0-202.0","0","0","65126","","null","","","null","22","","NaN","","","","","","","","","","","","","",""
"","response","","html-keyboard-response","155","326529","0.0-1.0-203.0-0.0","0","0","65126","","867","","","68","22","","","1","22","training","adjacent","EF","5","6","P.jpg","Q.jpg","1","1","1","",""
"","feedback","","html-keyboard-response","156","327538","0.0-1.0-204.0-0.0","0","0","65126","","null","","","null","22","","","","","","","","","","","","","","","",""
"","ITI","","html-keyboard-response","157","328546","0.0-1.0-207.0","0","0","65126","","null","","","null","22","","","","","","","","","","","","","","","NaN",""
"","S1","","html-keyboard-response","158","328709","0.0-1.0-209.0","0","0","65126","","null","","","null","23","","","","","","","","","","","","","","","",""
"","ISI","","html-keyboard-response","159","330725","0.0-1.0-210.0","0","0","65126","","null","","","null","23","NaN","","","","","","","","","","","","","","",""
"","S2","","html-keyboard-response","160","330884","0.0-1.0-211.0","0","0","65126","","null","","","null","23","","NaN","","","","","","","","","","","","","",""
"","response","","html-keyboard-response","161","331645","0.0-1.0-212.0-0.0","0","0","65126","","756","","","68","23","","","1","23","training","adjacent","CB","3","2","O.jpg","R.jpg","1","0","0","",""
"","feedback","","html-keyboard-response","162","332661","0.0-1.0-213.0-0.0","0","0","65126","","null","","","null","23","","","","","","","","","","","","","","","",""
"","time_out","","html-keyboard-response","163","334677","0.0-1.0-215.0-0.0","0","0","65126","","null","","","null","23","","","","","","","","","","","","","","","",""
"","ITI","","html-keyboard-response","164","335690","0.0-1.0-216.0","0","0","65126","","null","","","null","23","","","","","","","","","","","","","","","NaN",""
"","S1","","html-keyboard-response","165","335849","0.0-1.0-218.0","0","0","65126","","null","","","null","24","","","","","","","","","","","","","","","",""
"","ISI","","html-keyboard-response","166","337861","0.0-1.0-219.0","0","0","65126","","null","","","null","24","NaN","","","","","","","","","","","","","","",""
"","S2","","html-keyboard-response","167","338020","0.0-1.0-220.0","0","0","65126","","null","","","null","24","","NaN","","","","","","","","","","","","","",""
"","response","","html-keyboard-response","168","338613","0.0-1.0-221.0-0.0","0","0","65126","","588","","","75","24","","","1","24","training","adjacent","EF","5","6","P.jpg","Q.jpg","0","1","0","",""
"","feedback","","html-keyboard-response","169","339625","0.0-1.0-222.0-0.0","0","0","65126","","null","","","null","24","","","","","","","","","","","","","","","",""
"","time_out","","html-keyboard-response","170","341635","0.0-1.0-224.0-0.0","0","0","65126","","null","","","null","24","","","","","","","","","","","","","","","",""
"","ITI","","html-keyboard-response","171","342644","0.0-1.0-225.0","0","0","65126","","null","","","null","24","","","","","","","","","","","","","","","NaN",""
"","S1","","html-keyboard-response","172","342804","0.0-1.0-227.0","0","0","65126","","null","","","null","25","","","","","","","","","","","","","","","",""
"","ISI","","html-keyboard-response","173","344810","0.0-1.0-228.0","0","0","65126","","null","","","null","25","NaN","","","","","","","","","","","","","","",""
"","S2","","html-keyboard-response","174","344969","0.0-1.0-229.0","0","0","65126","","null","","","null","25","","NaN","","","","","","","","","","","","","",""
"","response","","html-keyboard-response","175","345150","0.0-1.0-230.0-0.0","0","0","65126","","176","","","75","25","","","1","25","training","adjacent","FE","6","5","Q.jpg","P.jpg","0","0","1","",""
"","feedback","","html-keyboard-response","176","346164","0.0-1.0-231.0-0.0","0","0","65126","","null","","","null","25","","","","","","","","","","","","","","","",""
"","ITI","","html-keyboard-response","177","347178","0.0-1.0-234.0","0","0","65126","","null","","","null","25","","","","","","","","","","","","","","","NaN",""
"","S1","","html-keyboard-response","178","347337","0.0-1.0-236.0","0","0","65126","","null","","","null","26","","","","","","","","","","","","","","","",""
"","ISI","","html-keyboard-response","179","349348","0.0-1.0-237.0","0","0","65126","","null","","","null","26","NaN","","","","","","","","","","","","","","",""
"","S2","","html-keyboard-response","180","349508","0.0-1.0-238.0","0","0","65126","","null","","","null","26","","NaN","","","","","","","","","","","","","",""
"","response","","html-keyboard-response","181","349964","0.0-1.0-239.0-0.0","0","0","65126","","451","","","75","26","","","1","26","training","adjacent","DC","4","3","M.jpg","O.jpg","0","0","1","",""
"","feedback","","html-keyboard-response","182","350980","0.0-1.0-240.0-0.0","0","0","65126","","null","","","null","26","","","","","","","","","","","","","","","",""
"","ITI","","html-keyboard-response","183","351996","0.0-1.0-243.0","0","0","65126","","null","","","null","26","","","","","","","","","","","","","","","NaN",""
"","S1","","html-keyboard-response","184","352156","0.0-1.0-245.0","0","0","65126","","null","","","null","27","","","","","","","","","","","","","","","",""
"","ISI","","html-keyboard-response","185","354169","0.0-1.0-246.0","0","0","65126","","null","","","null","27","NaN","","","","","","","","","","","","","","",""
"","S2","","html-keyboard-response","186","354329","0.0-1.0-247.0","0","0","65126","","null","","","null","27","","NaN","","","","","","","","","","","","","",""
"","response","","html-keyboard-response","187","354821","0.0-1.0-248.0-0.0","0","0","65126","","487","","","75","27","","","1","27","training","adjacent","FG","6","7","Q.jpg","N.jpg","0","1","0","",""
"","feedback","","html-keyboard-response","188","355836","0.0-1.0-249.0-0.0","0","0","65126","","null","","","null","27","","","","","","","","","","","","","","","",""
"","time_out","","html-keyboard-response","189","357850","0.0-1.0-251.0-0.0","0","0","65126","","null","","","null","27","","","","","","","","","","","","","","","",""
"","ITI","","html-keyboard-response","190","358857","0.0-1.0-252.0","0","0","65126","","null","","","null","27","","","","","","","","","","","","","","","NaN",""
"","S1","","html-keyboard-response","191","359017","0.0-1.0-254.0","0","0","65126","","null","","","null","28","","","","","","","","","","","","","","","",""
"","ISI","","html-keyboard-response","192","361028","0.0-1.0-255.0","0","0","65126","","null","","","null","28","NaN","","","","","","","","","","","","","","",""
"","S2","","html-keyboard-response","193","361187","0.0-1.0-256.0","0","0","65126","","null","","","null","28","","NaN","","","","","","","","","","","","","",""
"","response","","html-keyboard-response","194","361363","0.0-1.0-257.0-0.0","0","0","65126","","172","","","75","28","","","1","28","training","adjacent","DC","4","3","M.jpg","O.jpg","0","0","1","",""
"","feedback","","html-keyboard-response","195","362377","0.0-1.0-258.0-0.0","0","0","65126","","null","","","null","28","","","","","","","","","","","","","","","",""
"","ITI","","html-keyboard-response","196","363384","0.0-1.0-261.0","0","0","65126","","null","","","null","28","","","","","","","","","","","","","","","NaN",""
"","S1","","html-keyboard-response","197","363545","0.0-1.0-263.0","0","0","65126","","null","","","null","29","","","","","","","","","","","","","","","",""
"","ISI","","html-keyboard-response","198","365554","0.0-1.0-264.0","0","0","65126","","null","","","null","29","NaN","","","","","","","","","","","","","","",""
"","S2","","html-keyboard-response","199","365716","0.0-1.0-265.0","0","0","65126","","null","","","null","29","","NaN","","","","","","","","","","","","","",""
"","response","","html-keyboard-response","200","365885","0.0-1.0-266.0-0.0","0","0","65126","","164","","","75","29","","","1","29","training","adjacent","ED","5","4","P.jpg","M.jpg","0","0","1","",""
"","feedback","","html-keyboard-response","201","366900","0.0-1.0-267.0-0.0","0","0","65126","","null","","","null","29","","","","","","","","","","","","","","","",""
"","ITI","","html-keyboard-response","202","367916","0.0-1.0-270.0","0","0","65126","","null","","","null","29","","","","","","","","","","","","","","","NaN",""
"","S1","","html-keyboard-response","203","368076","0.0-1.0-272.0","0","0","65126","","null","","","null","30","","","","","","","","","","","","","","","",""
"","ISI","","html-keyboard-response","204","370088","0.0-1.0-273.0","0","0","65126","","null","","","null","30","NaN","","","","","","","","","","","","","","",""
"","S2","","html-keyboard-response","205","370249","0.0-1.0-274.0","0","0","65126","","null","","","null","30","","NaN","","","","","","","","","","","","","",""
"","response","","html-keyboard-response","206","370711","0.0-1.0-275.0-0.0","0","0","65126","","459","","","68","30","","","1","30","training","adjacent","CD","3","4","O.jpg","M.jpg","1","1","1","",""
"","feedback","","html-keyboard-response","207","371720","0.0-1.0-276.0-0.0","0","0","65126","","null","","","null","30","","","","","","","","","","","","","","","",""
"","ITI","","html-keyboard-response","208","372728","0.0-1.0-279.0","0","0","65126","","null","","","null","30","","","","","","","","","","","","","","","NaN",""
"","S1","","html-keyboard-response","209","372889","0.0-1.0-281.0","0","0","65126","","null","","","null","31","","","","","","","","","","","","","","","",""
"","ISI","","html-keyboard-response","210","374899","0.0-1.0-282.0","0","0","65126","","null","","","null","31","NaN","","","","","","","","","","","","","","",""
"","S2","","html-keyboard-response","211","375058","0.0-1.0-283.0","0","0","65126","","null","","","null","31","","NaN","","","","","","","","","","","","","",""
"","response","","html-keyboard-response","212","375727","0.0-1.0-284.0-0.0","0","0","65126","","667","","","75","31","","","1","31","training","adjacent","BC","2","3","R.jpg","O.jpg","0","1","0","",""
"","feedback","","html-keyboard-response","213","376740","0.0-1.0-285.0-0.0","0","0","65126","","null","","","null","31","","","","","","","","","","","","","","","",""
"","time_out","","html-keyboard-response","214","378755","0.0-1.0-287.0-0.0","0","0","65126","","null","","","null","31","","","","","","","","","","","","","","","",""
"","ITI","","html-keyboard-response","215","379769","0.0-1.0-288.0","0","0","65126","","null","","","null","31","","","","","","","","","","","","","","","NaN",""
"","S1","","html-keyboard-response","216","379928","0.0-1.0-290.0","0","0","65126","","null","","","null","32","","","","","","","","","","","","","","","",""
"","ISI","","html-keyboard-response","217","381939","0.0-1.0-291.0","0","0","65126","","null","","","null","32","NaN","","","","","","","","","","","","","","",""
"","S2","","html-keyboard-response","218","382099","0.0-1.0-292.0","0","0","65126","","null","","","null","32","","NaN","","","","","","","","","","","","","",""
"","response","","html-keyboard-response","219","382223","0.0-1.0-293.0-0.0","0","0","65126","","119","","","75","32","","","1","32","training","adjacent","FG","6","7","Q.jpg","N.jpg","0","1","0","",""
"","feedback","","html-keyboard-response","220","383235","0.0-1.0-294.0-0.0","0","0","65126","","null","","","null","32","","","","","","","","","","","","","","","",""
"","time_out","","html-keyboard-response","221","385251","0.0-1.0-296.0-0.0","0","0","65126","","null","","","null","32","","","","","","","","","","","","","","","",""
"","ITI","","html-keyboard-response","222","386264","0.0-1.0-297.0","0","0","65126","","null","","","null","32","","","","","","","","","","","","","","","NaN",""
"","S1","","html-keyboard-response","223","386424","0.0-1.0-299.0","0","0","65126","","null","","","null","33","","","","","","","","","","","","","","","",""
"","ISI","","html-keyboard-response","224","388435","0.0-1.0-300.0","0","0","65126","","null","","","null","33","NaN","","","","","","","","","","","","","","",""
"","S2","","html-keyboard-response","225","388595","0.0-1.0-301.0","0","0","65126","","null","","","null","33","","NaN","","","","","","","","","","","","","",""
"","response","","html-keyboard-response","226","388827","0.0-1.0-302.0-0.0","0","0","65126","","228","","","68","33","","","1","33","training","adjacent","CD","3","4","O.jpg","M.jpg","1","1","1","",""
"","feedback","","html-keyboard-response","227","389843","0.0-1.0-303.0-0.0","0","0","65126","","null","","","null","33","","","","","","","","","","","","","","","",""
"","ITI","","html-keyboard-response","228","390856","0.0-1.0-306.0","0","0","65126","","null","","","null","33","","","","","","","","","","","","","","","NaN",""
"","S1","","html-keyboard-response","229","391015","0.0-1.0-308.0","0","0","65126","","null","","","null","34","","","","","","","","","","","","","","","",""
"","ISI","","html-keyboard-response","230","393027","0.0-1.0-309.0","0","0","65126","","null","","","null","34","NaN","","","","","","","","","","","","","","",""
"","S2","","html-keyboard-response","231","393187","0.0-1.0-310.0","0","0","65126","","null","","","null","34","","NaN","","","","","","","","","","","","","",""
"","response","","html-keyboard-response","232","393358","0.0-1.0-311.0-0.0","0","0","65126","","167","","","75","34","","","1","34","training","adjacent","GF","7","6","N.jpg","Q.jpg","0","0","1","",""
"","feedback","","html-keyboard-response","233","394371","0.0-1.0-312.0-0.0","0","0","65126","","null","","","null","34","","","","","","","","","","","","","","","",""
"","ITI","","html-keyboard-response","234","395384","0.0-1.0-315.0","0","0","65126","","null","","","null","34","","","","","","","","","","","","","","","NaN",""
"","S1","","html-keyboard-response","235","395544","0.0-1.0-317.0","0","0","65126","","null","","","null","35","","","","","","","","","","","","","","","",""
"","ISI","","html-keyboard-response","236","397554","0.0-1.0-318.0","0","0","65126","","null","","","null","35","NaN","","","","","","","","","","","","","","",""
"","S2","","html-keyboard-response","237","397713","0.0-1.0-319.0","0","0","65126","","null","","","null","35","","NaN","","","","","","","","","","","","","",""
"","response","","html-keyboard-response","238","398030","0.0-1.0-320.0-0.0","0","0","65126","","313","","","75","35","","","1","35","training","adjacent","ED","5","4","P.jpg","M.jpg","0","0","1","",""
"","feedback","","html-keyboard-response","239","399041","0.0-1.0-321.0-0.0","0","0","65126","","null","","","null","35","","","","","","","","","","","","","","","",""
"","ITI","","html-keyboard-response","240","400050","0.0-1.0-324.0","0","0","65126","","null","","","null","35","","","","","","","","","","","","","","","NaN",""
"","S1","","html-keyboard-response","241","400211","0.0-1.0-326.0","0","0","65126","","null","","","null","36","","","","","","","","","","","","","","","",""
"","ISI","","html-keyboard-response","242","402226","0.0-1.0-327.0","0","0","65126","","null","","","null","36","NaN","","","","","","","","","","","","","","",""
"","S2","","html-keyboard-response","243","402386","0.0-1.0-328.0","0","0","65126","","null","","","null","36","","NaN","","","","","","","","","","","","","",""
"","response","","html-keyboard-response","244","402542","0.0-1.0-329.0-0.0","0","0","65126","","153","","","75","36","","","1","36","training","adjacent","DC","4","3","M.jpg","O.jpg","0","0","1","",""
"","feedback","","html-keyboard-response","245","403554","0.0-1.0-330.0-0.0","0","0","65126","","null","","","null","36","","","","","","","","","","","","","","","",""
"","ITI","","html-keyboard-response","246","404568","0.0-1.0-333.0","0","0","65126","","null","","","null","36","","","","","","","","","","","","","","","NaN",""
"","S1","","html-keyboard-response","247","404727","0.0-1.0-335.0","0","0","65126","","null","","","null","37","","","","","","","","","","","","","","","",""
"","ISI","","html-keyboard-response","248","406735","0.0-1.0-336.0","0","0","65126","","null","","","null","37","NaN","","","","","","","","","","","","","","",""
"","S2","","html-keyboard-response","249","406897","0.0-1.0-337.0","0","0","65126","","null","","","null","37","","NaN","","","","","","","","","","","","","",""
"","response","","html-keyboard-response","250","407036","0.0-1.0-338.0-0.0","0","0","65126","","134","","","75","37","","","1","37","training","adjacent","BC","2","3","R.jpg","O.jpg","0","1","0","",""
"","feedback","","html-keyboard-response","251","408051","0.0-1.0-339.0-0.0","0","0","65126","","null","","","null","37","","","","","","","","","","","","","","","",""
"","time_out","","html-keyboard-response","252","410066","0.0-1.0-341.0-0.0","0","0","65126","","null","","","null","37","","","","","","","","","","","","","","","",""
"","ITI","","html-keyboard-response","253","411080","0.0-1.0-342.0","0","0","65126","","null","","","null","37","","","","","","","","","","","","","","","NaN",""
"","S1","","html-keyboard-response","254","411239","0.0-1.0-344.0","0","0","65126","","null","","","null","38","","","","","","","","","","","","","","","",""
"","ISI","","html-keyboard-response","255","413251","0.0-1.0-345.0","0","0","65126","","null","","","null","38","NaN","","","","","","","","","","","","","","",""
"","S2","","html-keyboard-response","256","413410","0.0-1.0-346.0","0","0","65126","","null","","","null","38","","NaN","","","","","","","","","","","","","",""
"","response","","html-keyboard-response","257","413735","0.0-1.0-347.0-0.0","0","0","65126","","321","","","68","38","","","1","38","training","adjacent","BA","2","1","R.jpg","L.jpg","1","0","0","",""
"","feedback","","html-keyboard-response","258","414741","0.0-1.0-348.0-0.0","0","0","65126","","null","","","null","38","","","","","","","","","","","","","","","",""
"","time_out","","html-keyboard-response","259","416754","0.0-1.0-350.0-0.0","0","0","65126","","null","","","null","38","","","","","","","","","","","","","","","",""
"","ITI","","html-keyboard-response","260","417767","0.0-1.0-351.0","0","0","65126","","null","","","null","38","","","","","","","","","","","","","","","NaN",""
"","S1","","html-keyboard-response","261","417927","0.0-1.0-353.0","0","0","65126","","null","","","null","39","","","","","","","","","","","","","","","",""
"","ISI","","html-keyboard-response","262","419938","0.0-1.0-354.0","0","0","65126","","null","","","null","39","NaN","","","","","","","","","","","","","","",""
"","S2","","html-keyboard-response","263","420098","0.0-1.0-355.0","0","0","65126","","null","","","null","39","","NaN","","","","","","","","","","","","","",""
"","response","","html-keyboard-response","264","420366","0.0-1.0-356.0-0.0","0","0","65126","","265","","","75","39","","","1","39","training","adjacent","FE","6","5","Q.jpg","P.jpg","0","0","1","",""
"","feedback","","html-keyboard-response","265","421378","0.0-1.0-357.0-0.0","0","0","65126","","null","","","null","39","","","","","","","","","","","","","","","",""
"","ITI","","html-keyboard-response","266","422393","0.0-1.0-360.0","0","0","65126","","null","","","null","39","","","","","","","","","","","","","","","NaN",""
"","S1","","html-keyboard-response","267","422554","0.0-1.0-362.0","0","0","65126","","null","","","null","40","","","","","","","","","","","","","","","",""
"","ISI","","html-keyboard-response","268","424567","0.0-1.0-363.0","0","0","65126","","null","","","null","40","NaN","","","","","","","","","","","","","","",""
"","S2","","html-keyboard-response","269","424727","0.0-1.0-364.0","0","0","65126","","null","","","null","40","","NaN","","","","","","","","","","","","","",""
"","response","","html-keyboard-response","270","425393","0.0-1.0-365.0-0.0","0","0","65126","","662","","","68","40","","","1","40","training","adjacent","GF","7","6","N.jpg","Q.jpg","1","0","0","",""
"","feedback","","html-keyboard-response","271","426407","0.0-1.0-366.0-0.0","0","0","65126","","null","","","null","40","","","","","","","","","","","","","","","",""
"","time_out","","html-keyboard-response","272","428417","0.0-1.0-368.0-0.0","0","0","65126","","null","","","null","40","","","","","","","","","","","","","","","",""
"","ITI","","html-keyboard-response","273","429434","0.0-1.0-369.0","0","0","65126","","null","","","null","40","","","","","","","","","","","","","","","NaN",""
"","S1","","html-keyboard-response","274","429594","0.0-1.0-371.0","0","0","65126","","null","","","null","41","","","","","","","","","","","","","","","",""
"","ISI","","html-keyboard-response","275","431605","0.0-1.0-372.0","0","0","65126","","null","","","null","41","NaN","","","","","","","","","","","","","","",""
"","S2","","html-keyboard-response","276","431767","0.0-1.0-373.0","0","0","65126","","null","","","null","41","","NaN","","","","","","","","","","","","","",""
"","response","","html-keyboard-response","277","432212","0.0-1.0-374.0-0.0","0","0","65126","","440","","","75","41","","","1","41","training","adjacent","GF","7","6","N.jpg","Q.jpg","0","0","1","",""
"","feedback","","html-keyboard-response","278","433223","0.0-1.0-375.0-0.0","0","0","65126","","null","","","null","41","","","","","","","","","","","","","","","",""
"","ITI","","html-keyboard-response","279","434233","0.0-1.0-378.0","0","0","65126","","null","","","null","41","","","","","","","","","","","","","","","NaN",""
"","S1","","html-keyboard-response","280","434393","0.0-1.0-380.0","0","0","65126","","null","","","null","42","","","","","","","","","","","","","","","",""
"","ISI","","html-keyboard-response","281","436407","0.0-1.0-381.0","0","0","65126","","null","","","null","42","NaN","","","","","","","","","","","","","","",""
"","S2","","html-keyboard-response","282","436567","0.0-1.0-382.0","0","0","65126","","null","","","null","42","","NaN","","","","","","","","","","","","","",""
"","response","","html-keyboard-response","283","436896","0.0-1.0-383.0-0.0","0","0","65126","","325","","","68","42","","","1","42","training","adjacent","CD","3","4","O.jpg","M.jpg","1","1","1","",""
"","feedback","","html-keyboard-response","284","437905","0.0-1.0-384.0-0.0","0","0","65126","","null","","","null","42","","","","","","","","","","","","","","","",""
"","ITI","","html-keyboard-response","285","438919","0.0-1.0-387.0","0","0","65126","","null","","","null","42","","","","","","","","","","","","","","","NaN",""
"","S1","","html-keyboard-response","286","439076","0.0-1.0-389.0","0","0","65126","","null","","","null","43","","","","","","","","","","","","","","","",""
"","ISI","","html-keyboard-response","287","441089","0.0-1.0-390.0","0","0","65126","","null","","","null","43","NaN","","","","","","","","","","","","","","",""
"","S2","","html-keyboard-response","288","441249","0.0-1.0-391.0","0","0","65126","","null","","","null","43","","NaN","","","","","","","","","","","","","",""
"","response","","html-keyboard-response","289","441648","0.0-1.0-392.0-0.0","0","0","65126","","395","","","68","43","","","1","43","training","adjacent","CB","3","2","O.jpg","R.jpg","1","0","0","",""
"","feedback","","html-keyboard-response","290","442663","0.0-1.0-393.0-0.0","0","0","65126","","null","","","null","43","","","","","","","","","","","","","","","",""
"","time_out","","html-keyboard-response","291","444673","0.0-1.0-395.0-0.0","0","0","65126","","null","","","null","43","","","","","","","","","","","","","","","",""
"","ITI","","html-keyboard-response","292","445687","0.0-1.0-396.0","0","0","65126","","null","","","null","43","","","","","","","","","","","","","","","NaN",""
"","S1","","html-keyboard-response","293","445846","0.0-1.0-398.0","0","0","65126","","null","","","null","44","","","","","","","","","","","","","","","",""
"","ISI","","html-keyboard-response","294","447855","0.0-1.0-399.0","0","0","65126","","null","","","null","44","NaN","","","","","","","","","","","","","","",""
"","S2","","html-keyboard-response","295","448017","0.0-1.0-400.0","0","0","65126","","null","","","null","44","","NaN","","","","","","","","","","","","","",""
"","response","","html-keyboard-response","296","448620","0.0-1.0-401.0-0.0","0","0","65126","","599","","","75","44","","","1","44","training","adjacent","DE","4","5","M.jpg","P.jpg","0","1","0","",""
"","feedback","","html-keyboard-response","297","449632","0.0-1.0-402.0-0.0","0","0","65126","","null","","","null","44","","","","","","","","","","","","","","","",""
"","time_out","","html-keyboard-response","298","451649","0.0-1.0-404.0-0.0","0","0","65126","","null","","","null","44","","","","","","","","","","","","","","","",""
"","ITI","","html-keyboard-response","299","452662","0.0-1.0-405.0","0","0","65126","","null","","","null","44","","","","","","","","","","","","","","","NaN",""
"","S1","","html-keyboard-response","300","452822","0.0-1.0-407.0","0","0","65126","","null","","","null","45","","","","","","","","","","","","","","","",""
"","ISI","","html-keyboard-response","301","454832","0.0-1.0-408.0","0","0","65126","","677","","","68","45","d","","","","","","","","","","","","","","",""
"","S2","","html-keyboard-response","302","454998","0.0-1.0-409.0","0","0","65126","","null","","","null","45","","NaN","","","","","","","","","","","","","",""
"","response","","html-keyboard-response","303","455243","0.0-1.0-410.0-0.0","0","0","65126","","243","","","68","45","","","1","45","training","adjacent","AB","1","2","L.jpg","R.jpg","1","1","1","",""
"","feedback","","html-keyboard-response","304","456257","0.0-1.0-411.0-0.0","0","0","65126","","null","","","null","45","","","","","","","","","","","","","","","",""
"","ITI","","html-keyboard-response","305","457274","0.0-1.0-414.0","0","0","65126","","null","","","null","45","","","","","","","","","","","","","","","NaN",""
"","S1","","html-keyboard-response","306","457441","0.0-1.0-416.0","0","0","65126","","null","","","null","46","","","","","","","","","","","","","","","",""
"","ISI","","html-keyboard-response","307","459457","0.0-1.0-417.0","0","0","65126","","null","","","null","46","NaN","","","","","","","","","","","","","","",""
"","S2","","html-keyboard-response","308","459617","0.0-1.0-418.0","0","0","65126","","null","","","null","46","","NaN","","","","","","","","","","","","","",""
"","response","","html-keyboard-response","309","460452","0.0-1.0-419.0-0.0","0","0","65126","","831","","","68","46","","","1","46","training","adjacent","CB","3","2","O.jpg","R.jpg","1","0","0","",""
"","feedback","","html-keyboard-response","310","461462","0.0-1.0-420.0-0.0","0","0","65126","","null","","","null","46","","","","","","","","","","","","","","","",""
"","time_out","","html-keyboard-response","311","463472","0.0-1.0-422.0-0.0","0","0","65126","","null","","","null","46","","","","","","","","","","","","","","","",""
"","ITI","","html-keyboard-response","312","464485","0.0-1.0-423.0","0","0","65126","","null","","","null","46","","","","","","","","","","","","","","","NaN",""
"","S1","","html-keyboard-response","313","464646","0.0-1.0-425.0","0","0","65126","","null","","","null","47","","","","","","","","","","","","","","","",""
"","ISI","","html-keyboard-response","314","466657","0.0-1.0-426.0","0","0","65126","","null","","","null","47","NaN","","","","","","","","","","","","","","",""
"","S2","","html-keyboard-response","315","466817","0.0-1.0-427.0","0","0","65126","","null","","","null","47","","NaN","","","","","","","","","","","","","",""
"","response","","html-keyboard-response","316","467376","0.0-1.0-428.0-0.0","0","0","65126","","555","","","68","47","","","1","47","training","adjacent","AB","1","2","L.jpg","R.jpg","1","1","1","",""
"","feedback","","html-keyboard-response","317","468392","0.0-1.0-429.0-0.0","0","0","65126","","null","","","null","47","","","","","","","","","","","","","","","",""
"","ITI","","html-keyboard-response","318","469397","0.0-1.0-432.0","0","0","65126","","null","","","null","47","","","","","","","","","","","","","","","NaN",""
"","block_over","","html-keyboard-response","319","475796","0.0-1.0-433.0-0.0","0","0","65126","","6395","","","32","47","","","","","","","","","","","","","","","",""
"","S1","","html-keyboard-response","320","475957","0.0-1.0-434.0","0","0","65126","","null","","","null","48","","","","","","","","","","","","","","","",""
"","ISI","","html-keyboard-response","321","477968","0.0-1.0-435.0","0","0","65126","","null","","","null","48","NaN","","","","","","","","","","","","","","",""
"","S2","","html-keyboard-response","322","478128","0.0-1.0-436.0","0","0","65126","","null","","","null","48","","NaN","","","","","","","","","","","","","",""
"","response","","html-keyboard-response","323","478669","0.0-1.0-437.0-0.0","0","0","65126","","536","","","68","48","","","2","48","training","adjacent","CD","3","4","O.jpg","M.jpg","1","1","1","",""
"","feedback","","html-keyboard-response","324","479680","0.0-1.0-438.0-0.0","0","0","65126","","null","","","null","48","","","","","","","","","","","","","","","",""
"","ITI","","html-keyboard-response","325","480693","0.0-1.0-441.0","0","0","65126","","null","","","null","48","","","","","","","","","","","","","","","NaN",""
"","S1","","html-keyboard-response","326","480853","0.0-1.0-443.0","0","0","65126","","null","","","null","49","","","","","","","","","","","","","","","",""
"","ISI","","html-keyboard-response","327","482864","0.0-1.0-444.0","0","0","65126","","null","","","null","49","NaN","","","","","","","","","","","","","","",""
"","S2","","html-keyboard-response","328","483024","0.0-1.0-445.0","0","0","65126","","null","","","null","49","","NaN","","","","","","","","","","","","","",""
"","response","","html-keyboard-response","329","483480","0.0-1.0-446.0-0.0","0","0","65126","","451","","","75","49","","","2","49","training","adjacent","BC","2","3","R.jpg","O.jpg","0","1","0","",""
"","feedback","","html-keyboard-response","330","484495","0.0-1.0-447.0-0.0","0","0","65126","","null","","","null","49","","","","","","","","","","","","","","","",""
"","time_out","","html-keyboard-response","331","486512","0.0-1.0-449.0-0.0","0","0","65126","","null","","","null","49","","","","","","","","","","","","","","","",""
"","ITI","","html-keyboard-response","332","487523","0.0-1.0-450.0","0","0","65126","","null","","","null","49","","","","","","","","","","","","","","","NaN",""
"","S1","","html-keyboard-response","333","487685","0.0-1.0-452.0","0","0","65126","","null","","","null","50","","","","","","","","","","","","","","","",""
"","ISI","","html-keyboard-response","334","489695","0.0-1.0-453.0","0","0","65126","","null","","","null","50","NaN","","","","","","","","","","","","","","",""
"","S2","","html-keyboard-response","335","489856","0.0-1.0-454.0","0","0","65126","","null","","","null","50","","NaN","","","","","","","","","","","","","",""
"","response","","html-keyboard-response","336","490187","0.0-1.0-455.0-0.0","0","0","65126","","328","","","68","50","","","2","50","training","adjacent","EF","5","6","P.jpg","Q.jpg","1","1","1","",""
"","feedback","","html-keyboard-response","337","491199","0.0-1.0-456.0-0.0","0","0","65126","","null","","","null","50","","","","","","","","","","","","","","","",""
"","ITI","","html-keyboard-response","338","492212","0.0-1.0-459.0","0","0","65126","","null","","","null","50","","","","","","","","","","","","","","","NaN",""
"","S1","","html-keyboard-response","339","492372","0.0-1.0-461.0","0","0","65126","","null","","","null","51","","","","","","","","","","","","","","","",""
"","ISI","","html-keyboard-response","340","494384","0.0-1.0-462.0","0","0","65126","","null","","","null","51","NaN","","","","","","","","","","","","","","",""
"","S2","","html-keyboard-response","341","494543","0.0-1.0-463.0","0","0","65126","","null","","","null","51","","NaN","","","","","","","","","","","","","",""
"","response","","html-keyboard-response","342","494750","0.0-1.0-464.0-0.0","0","0","65126","","202","","","68","51","","","2","51","training","adjacent","AB","1","2","L.jpg","R.jpg","1","1","1","",""
"","feedback","","html-keyboard-response","343","495765","0.0-1.0-465.0-0.0","0","0","65126","","null","","","null","51","","","","","","","","","","","","","","","",""
"","ITI","","html-keyboard-response","344","496773","0.0-1.0-468.0","0","0","65126","","null","","","null","51","","","","","","","","","","","","","","","NaN",""
"","S1","","html-keyboard-response","345","496933","0.0-1.0-470.0","0","0","65126","","null","","","null","52","","","","","","","","","","","","","","","",""
"","ISI","","html-keyboard-response","346","498945","0.0-1.0-471.0","0","0","65126","","null","","","null","52","NaN","","","","","","","","","","","","","","",""
"","S2","","html-keyboard-response","347","499111","0.0-1.0-472.0","0","0","65126","","null","","","null","52","","NaN","","","","","","","","","","","","","",""
"","response","","html-keyboard-response","348","499222","0.0-1.0-473.0-0.0","0","0","65126","","107","","","75","52","","","2","52","training","adjacent","DC","4","3","M.jpg","O.jpg","0","0","1","",""
"","feedback","","html-keyboard-response","349","500239","0.0-1.0-474.0-0.0","0","0","65126","","null","","","null","52","","","","","","","","","","","","","","","",""
"","ITI","","html-keyboard-response","350","501253","0.0-1.0-477.0","0","0","65126","","null","","","null","52","","","","","","","","","","","","","","","NaN",""
"","S1","","html-keyboard-response","351","501412","0.0-1.0-479.0","0","0","65126","","null","","","null","53","","","","","","","","","","","","","","","",""
"","ISI","","html-keyboard-response","352","503423","0.0-1.0-480.0","0","0","65126","","null","","","null","53","NaN","","","","","","","","","","","","","","",""
"","S2","","html-keyboard-response","353","503580","0.0-1.0-481.0","0","0","65126","","null","","","null","53","","NaN","","","","","","","","","","","","","",""
"","response","","html-keyboard-response","354","503749","0.0-1.0-482.0-0.0","0","0","65126","","164","","","75","53","","","2","53","training","adjacent","FE","6","5","Q.jpg","P.jpg","0","0","1","",""
"","feedback","","html-keyboard-response","355","504757","0.0-1.0-483.0-0.0","0","0","65126","","null","","","null","53","","","","","","","","","","","","","","","",""
"","ITI","","html-keyboard-response","356","505765","0.0-1.0-486.0","0","0","65126","","null","","","null","53","","","","","","","","","","","","","","","NaN",""
"","S1","","html-keyboard-response","357","505925","0.0-1.0-488.0","0","0","65126","","null","","","null","54","","","","","","","","","","","","","","","",""
"","ISI","","html-keyboard-response","358","507935","0.0-1.0-489.0","0","0","65126","","null","","","null","54","NaN","","","","","","","","","","","","","","",""
"","S2","","html-keyboard-response","359","508095","0.0-1.0-490.0","0","0","65126","","null","","","null","54","","NaN","","","","","","","","","","","","","",""
"","response","","html-keyboard-response","360","508254","0.0-1.0-491.0-0.0","0","0","65126","","157","","","75","54","","","2","54","training","adjacent","GF","7","6","N.jpg","Q.jpg","0","0","1","",""
"","feedback","","html-keyboard-response","361","509263","0.0-1.0-492.0-0.0","0","0","65126","","null","","","null","54","","","","","","","","","","","","","","","",""
"","ITI","","html-keyboard-response","362","510277","0.0-1.0-495.0","0","0","65126","","null","","","null","54","","","","","","","","","","","","","","","NaN",""
"","S1","","html-keyboard-response","363","510438","0.0-1.0-497.0","0","0","65126","","null","","","null","55","","","","","","","","","","","","","","","",""
"","ISI","","html-keyboard-response","364","512446","0.0-1.0-498.0","0","0","65126","","null","","","null","55","NaN","","","","","","","","","","","","","","",""
"","S2","","html-keyboard-response","365","512607","0.0-1.0-499.0","0","0","65126","","null","","","null","55","","NaN","","","","","","","","","","","","","",""
"","response","","html-keyboard-response","366","512752","0.0-1.0-500.0-0.0","0","0","65126","","141","","","68","55","","","2","55","training","adjacent","CD","3","4","O.jpg","M.jpg","1","1","1","",""
"","feedback","","html-keyboard-response","367","513764","0.0-1.0-501.0-0.0","0","0","65126","","null","","","null","55","","","","","","","","","","","","","","","",""
"","ITI","","html-keyboard-response","368","514772","0.0-1.0-504.0","0","0","65126","","null","","","null","55","","","","","","","","","","","","","","","NaN",""
"","S1","","html-keyboard-response","369","514932","0.0-1.0-506.0","0","0","65126","","null","","","null","56","","","","","","","","","","","","","","","",""
"","ISI","","html-keyboard-response","370","516943","0.0-1.0-507.0","0","0","65126","","null","","","null","56","NaN","","","","","","","","","","","","","","",""
"","S2","","html-keyboard-response","371","517103","0.0-1.0-508.0","0","0","65126","","null","","","null","56","","NaN","","","","","","","","","","","","","",""
"","response","","html-keyboard-response","372","517474","0.0-1.0-509.0-0.0","0","0","65126","","366","","","75","56","","","2","56","training","adjacent","BA","2","1","R.jpg","L.jpg","0","0","1","",""
"","feedback","","html-keyboard-response","373","518484","0.0-1.0-510.0-0.0","0","0","65126","","null","","","null","56","","","","","","","","","","","","","","","",""
"","ITI","","html-keyboard-response","374","519492","0.0-1.0-513.0","0","0","65126","","null","","","null","56","","","","","","","","","","","","","","","NaN",""
"","S1","","html-keyboard-response","375","519650","0.0-1.0-515.0","0","0","65126","","null","","","null","57","","","","","","","","","","","","","","","",""
"","ISI","","html-keyboard-response","376","521663","0.0-1.0-516.0","0","0","65126","","null","","","null","57","NaN","","","","","","","","","","","","","","",""
"","S2","","html-keyboard-response","377","521823","0.0-1.0-517.0","0","0","65126","","null","","","null","57","","NaN","","","","","","","","","","","","","",""
"","response","","html-keyboard-response","378","522477","0.0-1.0-518.0-0.0","0","0","65126","","649","","","75","57","","","2","57","training","adjacent","CB","3","2","O.jpg","R.jpg","0","0","1","",""
"","feedback","","html-keyboard-response","379","523487","0.0-1.0-519.0-0.0","0","0","65126","","null","","","null","57","","","","","","","","","","","","","","","",""
"","ITI","","html-keyboard-response","380","524500","0.0-1.0-522.0","0","0","65126","","null","","","null","57","","","","","","","","","","","","","","","NaN",""
"","S1","","html-keyboard-response","381","524659","0.0-1.0-524.0","0","0","65126","","null","","","null","58","","","","","","","","","","","","","","","",""
"","ISI","","html-keyboard-response","382","526671","0.0-1.0-525.0","0","0","65126","","null","","","null","58","NaN","","","","","","","","","","","","","","",""
"","S2","","html-keyboard-response","383","526830","0.0-1.0-526.0","0","0","65126","","null","","","null","58","","NaN","","","","","","","","","","","","","",""
"","response","","html-keyboard-response","384","527284","0.0-1.0-527.0-0.0","0","0","65126","","449","","","75","58","","","2","58","training","adjacent","DE","4","5","M.jpg","P.jpg","0","1","0","",""
"","feedback","","html-keyboard-response","385","528292","0.0-1.0-528.0-0.0","0","0","65126","","null","","","null","58","","","","","","","","","","","","","","","",""
"","time_out","","html-keyboard-response","386","530302","0.0-1.0-530.0-0.0","0","0","65126","","null","","","null","58","","","","","","","","","","","","","","","",""
"","ITI","","html-keyboard-response","387","531316","0.0-1.0-531.0","0","0","65126","","null","","","null","58","","","","","","","","","","","","","","","NaN",""
"","S1","","html-keyboard-response","388","531475","0.0-1.0-533.0","0","0","65126","","null","","","null","59","","","","","","","","","","","","","","","",""
"","ISI","","html-keyboard-response","389","533487","0.0-1.0-534.0","0","0","65126","","null","","","null","59","NaN","","","","","","","","","","","","","","",""
"","S2","","html-keyboard-response","390","533646","0.0-1.0-535.0","0","0","65126","","null","","","null","59","","NaN","","","","","","","","","","","","","",""
"","response","","html-keyboard-response","391","533984","0.0-1.0-536.0-0.0","0","0","65126","","333","","","68","59","","","2","59","training","adjacent","BC","2","3","R.jpg","O.jpg","1","1","1","",""
"","feedback","","html-keyboard-response","392","534995","0.0-1.0-537.0-0.0","0","0","65126","","null","","","null","59","","","","","","","","","","","","","","","",""
"","ITI","","html-keyboard-response","393","536004","0.0-1.0-540.0","0","0","65126","","null","","","null","59","","","","","","","","","","","","","","","NaN",""
"","S1","","html-keyboard-response","394","536163","0.0-1.0-542.0","0","0","65126","","null","","","null","60","","","","","","","","","","","","","","","",""
"","ISI","","html-keyboard-response","395","538172","0.0-1.0-543.0","0","0","65126","","null","","","null","60","NaN","","","","","","","","","","","","","","",""
"","S2","","html-keyboard-response","396","538334","0.0-1.0-544.0","0","0","65126","","null","","","null","60","","NaN","","","","","","","","","","","","","",""
"","response","","html-keyboard-response","397","539181","0.0-1.0-545.0-0.0","0","0","65126","","842","","","75","60","","","2","60","training","adjacent","CB","3","2","O.jpg","R.jpg","0","0","1","",""
"","feedback","","html-keyboard-response","398","540190","0.0-1.0-546.0-0.0","0","0","65126","","null","","","null","60","","","","","","","","","","","","","","","",""
"","ITI","","html-keyboard-response","399","541204","0.0-1.0-549.0","0","0","65126","","null","","","null","60","","","","","","","","","","","","","","","NaN",""
"","S1","","html-keyboard-response","400","541363","0.0-1.0-551.0","0","0","65126","","null","","","null","61","","","","","","","","","","","","","","","",""
"","ISI","","html-keyboard-response","401","543374","0.0-1.0-552.0","0","0","65126","","null","","","null","61","NaN","","","","","","","","","","","","","","",""
"","S2","","html-keyboard-response","402","543534","0.0-1.0-553.0","0","0","65126","","null","","","null","61","","NaN","","","","","","","","","","","","","",""
"","response","","html-keyboard-response","403","544290","0.0-1.0-554.0-0.0","0","0","65126","","751","","","75","61","","","2","61","training","adjacent","BA","2","1","R.jpg","L.jpg","0","0","1","",""
"","feedback","","html-keyboard-response","404","545299","0.0-1.0-555.0-0.0","0","0","65126","","null","","","null","61","","","","","","","","","","","","","","","",""
"","ITI","","html-keyboard-response","405","546308","0.0-1.0-558.0","0","0","65126","","null","","","null","61","","","","","","","","","","","","","","","NaN",""
"","S1","","html-keyboard-response","406","546470","0.0-1.0-560.0","0","0","65126","","null","","","null","62","","","","","","","","","","","","","","","",""
"","ISI","","html-keyboard-response","407","548483","0.0-1.0-561.0","0","0","65126","","null","","","null","62","NaN","","","","","","","","","","","","","","",""
"","S2","","html-keyboard-response","408","548642","0.0-1.0-562.0","0","0","65126","","null","","","null","62","","NaN","","","","","","","","","","","","","",""
"","response","","html-keyboard-response","409","549413","0.0-1.0-563.0-0.0","0","0","65126","","766","","","68","62","","","2","62","training","adjacent","FE","6","5","Q.jpg","P.jpg","1","0","0","",""
"","feedback","","html-keyboard-response","410","550430","0.0-1.0-564.0-0.0","0","0","65126","","null","","","null","62","","","","","","","","","","","","","","","",""
"","time_out","","html-keyboard-response","411","552444","0.0-1.0-566.0-0.0","0","0","65126","","null","","","null","62","","","","","","","","","","","","","","","",""
"","ITI","","html-keyboard-response","412","553453","0.0-1.0-567.0","0","0","65126","","null","","","null","62","","","","","","","","","","","","","","","NaN",""
"","S1","","html-keyboard-response","413","553614","0.0-1.0-569.0","0","0","65126","","null","","","null","63","","","","","","","","","","","","","","","",""
"","ISI","","html-keyboard-response","414","555630","0.0-1.0-570.0","0","0","65126","","null","","","null","63","NaN","","","","","","","","","","","","","","",""
"","S2","","html-keyboard-response","415","555789","0.0-1.0-571.0","0","0","65126","","null","","","null","63","","NaN","","","","","","","","","","","","","",""
"","response","","html-keyboard-response","416","556417","0.0-1.0-572.0-0.0","0","0","65126","","624","","","68","63","","","2","63","training","adjacent","FG","6","7","Q.jpg","N.jpg","1","1","1","",""
"","feedback","","html-keyboard-response","417","557430","0.0-1.0-573.0-0.0","0","0","65126","","null","","","null","63","","","","","","","","","","","","","","","",""
"","ITI","","html-keyboard-response","418","558446","0.0-1.0-576.0","0","0","65126","","null","","","null","63","","","","","","","","","","","","","","","NaN",""
"","S1","","html-keyboard-response","419","558605","0.0-1.0-578.0","0","0","65126","","null","","","null","64","","","","","","","","","","","","","","","",""
"","ISI","","html-keyboard-response","420","560621","0.0-1.0-579.0","0","0","65126","","null","","","null","64","NaN","","","","","","","","","","","","","","",""
"","S2","","html-keyboard-response","421","560782","0.0-1.0-580.0","0","0","65126","","null","","","null","64","","NaN","","","","","","","","","","","","","",""
"","response","","html-keyboard-response","422","561212","0.0-1.0-581.0-0.0","0","0","65126","","425","","","68","64","","","2","64","training","adjacent","AB","1","2","L.jpg","R.jpg","1","1","1","",""
"","feedback","","html-keyboard-response","423","562222","0.0-1.0-582.0-0.0","0","0","65126","","null","","","null","64","","","","","","","","","","","","","","","",""
"","ITI","","html-keyboard-response","424","563235","0.0-1.0-585.0","0","0","65126","","null","","","null","64","","","","","","","","","","","","","","","NaN",""
"","S1","","html-keyboard-response","425","563395","0.0-1.0-587.0","0","0","65126","","null","","","null","65","","","","","","","","","","","","","","","",""
"","ISI","","html-keyboard-response","426","565405","0.0-1.0-588.0","0","0","65126","","null","","","null","65","NaN","","","","","","","","","","","","","","",""
"","S2","","html-keyboard-response","427","565566","0.0-1.0-589.0","0","0","65126","","null","","","null","65","","NaN","","","","","","","","","","","","","",""
"","response","","html-keyboard-response","428","565886","0.0-1.0-590.0-0.0","0","0","65126","","315","","","68","65","","","2","65","training","adjacent","AB","1","2","L.jpg","R.jpg","1","1","1","",""
"","feedback","","html-keyboard-response","429","566899","0.0-1.0-591.0-0.0","0","0","65126","","null","","","null","65","","","","","","","","","","","","","","","",""
"","ITI","","html-keyboard-response","430","567908","0.0-1.0-594.0","0","0","65126","","null","","","null","65","","","","","","","","","","","","","","","NaN",""
"","S1","","html-keyboard-response","431","568067","0.0-1.0-596.0","0","0","65126","","null","","","null","66","","","","","","","","","","","","","","","",""
"","ISI","","html-keyboard-response","432","570077","0.0-1.0-597.0","0","0","65126","","null","","","null","66","NaN","","","","","","","","","","","","","","",""
"","S2","","html-keyboard-response","433","570237","0.0-1.0-598.0","0","0","65126","","null","","","null","66","","NaN","","","","","","","","","","","","","",""
"","response","","html-keyboard-response","434","571126","0.0-1.0-599.0-0.0","0","0","65126","","884","","","75","66","","","2","66","training","adjacent","FE","6","5","Q.jpg","P.jpg","0","0","1","",""
"","feedback","","html-keyboard-response","435","572141","0.0-1.0-600.0-0.0","0","0","65126","","null","","","null","66","","","","","","","","","","","","","","","",""
"","ITI","","html-keyboard-response","436","573154","0.0-1.0-603.0","0","0","65126","","null","","","null","66","","","","","","","","","","","","","","","NaN",""
"","S1","","html-keyboard-response","437","573314","0.0-1.0-605.0","0","0","65126","","null","","","null","67","","","","","","","","","","","","","","","",""
"","ISI","","html-keyboard-response","438","575326","0.0-1.0-606.0","0","0","65126","","null","","","null","67","NaN","","","","","","","","","","","","","","",""
"","S2","","html-keyboard-response","439","575490","0.0-1.0-607.0","0","0","65126","","null","","","null","67","","NaN","","","","","","","","","","","","","",""
"","response","","html-keyboard-response","440","575727","0.0-1.0-608.0-0.0","0","0","65126","","232","","","75","67","","","2","67","training","adjacent","GF","7","6","N.jpg","Q.jpg","0","0","1","",""
"","feedback","","html-keyboard-response","441","576739","0.0-1.0-609.0-0.0","0","0","65126","","null","","","null","67","","","","","","","","","","","","","","","",""
"","ITI","","html-keyboard-response","442","577749","0.0-1.0-612.0","0","0","65126","","null","","","null","67","","","","","","","","","","","","","","","NaN",""
"","S1","","html-keyboard-response","443","577909","0.0-1.0-614.0","0","0","65126","","null","","","null","68","","","","","","","","","","","","","","","",""
"","ISI","","html-keyboard-response","444","579922","0.0-1.0-615.0","0","0","65126","","null","","","null","68","NaN","","","","","","","","","","","","","","",""
"","S2","","html-keyboard-response","445","580082","0.0-1.0-616.0","0","0","65126","","null","","","null","68","","NaN","","","","","","","","","","","","","",""
"","response","","html-keyboard-response","446","580847","0.0-1.0-617.0-0.0","0","0","65126","","761","","","68","68","","","2","68","training","adjacent","DE","4","5","M.jpg","P.jpg","1","1","1","",""
"","feedback","","html-keyboard-response","447","581858","0.0-1.0-618.0-0.0","0","0","65126","","null","","","null","68","","","","","","","","","","","","","","","",""
"","ITI","","html-keyboard-response","448","582869","0.0-1.0-621.0","0","0","65126","","null","","","null","68","","","","","","","","","","","","","","","NaN",""
"","S1","","html-keyboard-response","449","583029","0.0-1.0-623.0","0","0","65126","","null","","","null","69","","","","","","","","","","","","","","","",""
"","ISI","","html-keyboard-response","450","585041","0.0-1.0-624.0","0","0","65126","","null","","","null","69","NaN","","","","","","","","","","","","","","",""
"","S2","","html-keyboard-response","451","585203","0.0-1.0-625.0","0","0","65126","","null","","","null","69","","NaN","","","","","","","","","","","","","",""
"","response","","html-keyboard-response","452","585800","0.0-1.0-626.0-0.0","0","0","65126","","592","","","68","69","","","2","69","training","adjacent","FG","6","7","Q.jpg","N.jpg","1","1","1","",""
"","feedback","","html-keyboard-response","453","586813","0.0-1.0-627.0-0.0","0","0","65126","","null","","","null","69","","","","","","","","","","","","","","","",""
"","ITI","","html-keyboard-response","454","587829","0.0-1.0-630.0","0","0","65126","","null","","","null","69","","","","","","","","","","","","","","","NaN",""
"","S1","","html-keyboard-response","455","587988","0.0-1.0-632.0","0","0","65126","","null","","","null","70","","","","","","","","","","","","","","","",""
"","ISI","","html-keyboard-response","456","590002","0.0-1.0-633.0","0","0","65126","","null","","","null","70","NaN","","","","","","","","","","","","","","",""
"","S2","","html-keyboard-response","457","590162","0.0-1.0-634.0","0","0","65126","","null","","","null","70","","NaN","","","","","","","","","","","","","",""
"","response","","html-keyboard-response","458","590826","0.0-1.0-635.0-0.0","0","0","65126","","659","","","68","70","","","2","70","training","adjacent","AB","1","2","L.jpg","R.jpg","1","1","1","",""
"","feedback","","html-keyboard-response","459","591836","0.0-1.0-636.0-0.0","0","0","65126","","null","","","null","70","","","","","","","","","","","","","","","",""
"","ITI","","html-keyboard-response","460","592849","0.0-1.0-639.0","0","0","65126","","null","","","null","70","","","","","","","","","","","","","","","NaN",""
"","S1","","html-keyboard-response","461","593010","0.0-1.0-641.0","0","0","65126","","null","","","null","71","","","","","","","","","","","","","","","",""
"","ISI","","html-keyboard-response","462","595020","0.0-1.0-642.0","0","0","65126","","null","","","null","71","NaN","","","","","","","","","","","","","","",""
"","S2","","html-keyboard-response","463","595180","0.0-1.0-643.0","0","0","65126","","null","","","null","71","","NaN","","","","","","","","","","","","","",""
"","response","","html-keyboard-response","464","595765","0.0-1.0-644.0-0.0","0","0","65126","","580","","","68","71","","","2","71","training","adjacent","DC","4","3","M.jpg","O.jpg","1","0","0","",""
"","feedback","","html-keyboard-response","465","596781","0.0-1.0-645.0-0.0","0","0","65126","","null","","","null","71","","","","","","","","","","","","","","","",""
"","time_out","","html-keyboard-response","466","598796","0.0-1.0-647.0-0.0","0","0","65126","","null","","","null","71","","","","","","","","","","","","","","","",""
"","ITI","","html-keyboard-response","467","599810","0.0-1.0-648.0","0","0","65126","","null","","","null","71","","","","","","","","","","","","","","","NaN",""
"","S1","","html-keyboard-response","468","599970","0.0-1.0-650.0","0","0","65126","","null","","","null","72","","","","","","","","","","","","","","","",""
"","ISI","","html-keyboard-response","469","601980","0.0-1.0-651.0","0","0","65126","","null","","","null","72","NaN","","","","","","","","","","","","","","",""
"","S2","","html-keyboard-response","470","602139","0.0-1.0-652.0","0","0","65126","","null","","","null","72","","NaN","","","","","","","","","","","","","",""
"","response","","html-keyboard-response","471","603386","0.0-1.0-653.0-0.0","0","0","65126","","1243","","","68","72","","","2","72","training","adjacent","ED","5","4","P.jpg","M.jpg","1","0","0","",""
"","feedback","","html-keyboard-response","472","604396","0.0-1.0-654.0-0.0","0","0","65126","","null","","","null","72","","","","","","","","","","","","","","","",""
"","time_out","","html-keyboard-response","473","606412","0.0-1.0-656.0-0.0","0","0","65126","","null","","","null","72","","","","","","","","","","","","","","","",""
"","ITI","","html-keyboard-response","474","607428","0.0-1.0-657.0","0","0","65126","","null","","","null","72","","","","","","","","","","","","","","","NaN",""
"","S1","","html-keyboard-response","475","607588","0.0-1.0-659.0","0","0","65126","","null","","","null","73","","","","","","","","","","","","","","","",""
"","ISI","","html-keyboard-response","476","609602","0.0-1.0-660.0","0","0","65126","","null","","","null","73","NaN","","","","","","","","","","","","","","",""
"","S2","","html-keyboard-response","477","609761","0.0-1.0-661.0","0","0","65126","","null","","","null","73","","NaN","","","","","","","","","","","","","",""
"","response","","html-keyboard-response","478","610411","0.0-1.0-662.0-0.0","0","0","65126","","645","","","68","73","","","2","73","training","adjacent","FE","6","5","Q.jpg","P.jpg","1","0","0","",""
"","feedback","","html-keyboard-response","479","611428","0.0-1.0-663.0-0.0","0","0","65126","","null","","","null","73","","","","","","","","","","","","","","","",""
"","time_out","","html-keyboard-response","480","613439","0.0-1.0-665.0-0.0","0","0","65126","","null","","","null","73","","","","","","","","","","","","","","","",""
"","ITI","","html-keyboard-response","481","614448","0.0-1.0-666.0","0","0","65126","","null","","","null","73","","","","","","","","","","","","","","","NaN",""
"","S1","","html-keyboard-response","482","614609","0.0-1.0-668.0","0","0","65126","","null","","","null","74","","","","","","","","","","","","","","","",""
"","ISI","","html-keyboard-response","483","616617","0.0-1.0-669.0","0","0","65126","","null","","","null","74","NaN","","","","","","","","","","","","","","",""
"","S2","","html-keyboard-response","484","616780","0.0-1.0-670.0","0","0","65126","","null","","","null","74","","NaN","","","","","","","","","","","","","",""
"","response","","html-keyboard-response","485","617365","0.0-1.0-671.0-0.0","0","0","65126","","581","","","75","74","","","2","74","training","adjacent","CB","3","2","O.jpg","R.jpg","0","0","1","",""
"","feedback","","html-keyboard-response","486","618377","0.0-1.0-672.0-0.0","0","0","65126","","null","","","null","74","","","","","","","","","","","","","","","",""
"","ITI","","html-keyboard-response","487","619385","0.0-1.0-675.0","0","0","65126","","null","","","null","74","","","","","","","","","","","","","","","NaN",""
"","S1","","html-keyboard-response","488","619545","0.0-1.0-677.0","0","0","65126","","null","","","null","75","","","","","","","","","","","","","","","",""
"","ISI","","html-keyboard-response","489","621552","0.0-1.0-678.0","0","0","65126","","null","","","null","75","NaN","","","","","","","","","","","","","","",""
"","S2","","html-keyboard-response","490","621712","0.0-1.0-679.0","0","0","65126","","null","","","null","75","","NaN","","","","","","","","","","","","","",""
"","response","","html-keyboard-response","491","622378","0.0-1.0-680.0-0.0","0","0","65126","","663","","","68","75","","","2","75","training","adjacent","CD","3","4","O.jpg","M.jpg","1","1","1","",""
"","feedback","","html-keyboard-response","492","623387","0.0-1.0-681.0-0.0","0","0","65126","","null","","","null","75","","","","","","","","","","","","","","","",""
"","ITI","","html-keyboard-response","493","624399","0.0-1.0-684.0","0","0","65126","","null","","","null","75","","","","","","","","","","","","","","","NaN",""
"","S1","","html-keyboard-response","494","624558","0.0-1.0-686.0","0","0","65126","","null","","","null","76","","","","","","","","","","","","","","","",""
"","ISI","","html-keyboard-response","495","626572","0.0-1.0-687.0","0","0","65126","","null","","","null","76","NaN","","","","","","","","","","","","","","",""
"","S2","","html-keyboard-response","496","626732","0.0-1.0-688.0","0","0","65126","","null","","","null","76","","NaN","","","","","","","","","","","","","",""
"","response","","html-keyboard-response","497","627472","0.0-1.0-689.0-0.0","0","0","65126","","736","","","68","76","","","2","76","training","adjacent","EF","5","6","P.jpg","Q.jpg","1","1","1","",""
"","feedback","","html-keyboard-response","498","628481","0.0-1.0-690.0-0.0","0","0","65126","","null","","","null","76","","","","","","","","","","","","","","","",""
"","ITI","","html-keyboard-response","499","629488","0.0-1.0-693.0","0","0","65126","","null","","","null","76","","","","","","","","","","","","","","","NaN",""
"","S1","","html-keyboard-response","500","629648","0.0-1.0-695.0","0","0","65126","","null","","","null","77","","","","","","","","","","","","","","","",""
"","ISI","","html-keyboard-response","501","631660","0.0-1.0-696.0","0","0","65126","","null","","","null","77","NaN","","","","","","","","","","","","","","",""
"","S2","","html-keyboard-response","502","631827","0.0-1.0-697.0","0","0","65126","","null","","","null","77","","NaN","","","","","","","","","","","","","",""
"","response","","html-keyboard-response","503","632510","0.0-1.0-698.0-0.0","0","0","65126","","679","","","75","77","","","2","77","training","adjacent","BA","2","1","R.jpg","L.jpg","0","0","1","",""
"","feedback","","html-keyboard-response","504","633522","0.0-1.0-699.0-0.0","0","0","65126","","null","","","null","77","","","","","","","","","","","","","","","",""
"","ITI","","html-keyboard-response","505","634528","0.0-1.0-702.0","0","0","65126","","null","","","null","77","","","","","","","","","","","","","","","NaN",""
"","S1","","html-keyboard-response","506","634689","0.0-1.0-704.0","0","0","65126","","null","","","null","78","","","","","","","","","","","","","","","",""
"","ISI","","html-keyboard-response","507","636699","0.0-1.0-705.0","0","0","65126","","null","","","null","78","NaN","","","","","","","","","","","","","","",""
"","S2","","html-keyboard-response","508","636859","0.0-1.0-706.0","0","0","65126","","null","","","null","78","","NaN","","","","","","","","","","","","","",""
"","response","","html-keyboard-response","509","637409","0.0-1.0-707.0-0.0","0","0","65126","","547","","","68","78","","","2","78","training","adjacent","ED","5","4","P.jpg","M.jpg","1","0","0","",""
"","feedback","","html-keyboard-response","510","638416","0.0-1.0-708.0-0.0","0","0","65126","","null","","","null","78","","","","","","","","","","","","","","","",""
"","time_out","","html-keyboard-response","511","640426","0.0-1.0-710.0-0.0","0","0","65126","","null","","","null","78","","","","","","","","","","","","","","","",""
"","ITI","","html-keyboard-response","512","641435","0.0-1.0-711.0","0","0","65126","","null","","","null","78","","","","","","","","","","","","","","","NaN",""
"","S1","","html-keyboard-response","513","641594","0.0-1.0-713.0","0","0","65126","","null","","","null","79","","","","","","","","","","","","","","","",""
"","ISI","","html-keyboard-response","514","643611","0.0-1.0-714.0","0","0","65126","","null","","","null","79","NaN","","","","","","","","","","","","","","",""
"","S2","","html-keyboard-response","515","643771","0.0-1.0-715.0","0","0","65126","","null","","","null","79","","NaN","","","","","","","","","","","","","",""
"","response","","html-keyboard-response","516","644421","0.0-1.0-716.0-0.0","0","0","65126","","646","","","75","79","","","2","79","training","adjacent","DC","4","3","M.jpg","O.jpg","0","0","1","",""
"","feedback","","html-keyboard-response","517","645435","0.0-1.0-717.0-0.0","0","0","65126","","null","","","null","79","","","","","","","","","","","","","","","",""
"","ITI","","html-keyboard-response","518","646448","0.0-1.0-720.0","0","0","65126","","null","","","null","79","","","","","","","","","","","","","","","NaN",""
"","S1","","html-keyboard-response","519","646608","0.0-1.0-722.0","0","0","65126","","null","","","null","80","","","","","","","","","","","","","","","",""
"","ISI","","html-keyboard-response","520","648618","0.0-1.0-723.0","0","0","65126","","null","","","null","80","NaN","","","","","","","","","","","","","","",""
"","S2","","html-keyboard-response","521","648776","0.0-1.0-724.0","0","0","65126","","null","","","null","80","","NaN","","","","","","","","","","","","","",""
"","response","","html-keyboard-response","522","649463","0.0-1.0-725.0-0.0","0","0","65126","","683","","","75","80","","","2","80","training","adjacent","BA","2","1","R.jpg","L.jpg","0","0","1","",""
"","feedback","","html-keyboard-response","523","650475","0.0-1.0-726.0-0.0","0","0","65126","","null","","","null","80","","","","","","","","","","","","","","","",""
"","ITI","","html-keyboard-response","524","651488","0.0-1.0-729.0","0","0","65126","","null","","","null","80","","","","","","","","","","","","","","","NaN",""
"","S1","","html-keyboard-response","525","651647","0.0-1.0-731.0","0","0","65126","","null","","","null","81","","","","","","","","","","","","","","","",""
"","ISI","","html-keyboard-response","526","653659","0.0-1.0-732.0","0","0","65126","","null","","","null","81","NaN","","","","","","","","","","","","","","",""
"","S2","","html-keyboard-response","527","653819","0.0-1.0-733.0","0","0","65126","","null","","","null","81","","NaN","","","","","","","","","","","","","",""
"","response","","html-keyboard-response","528","654804","0.0-1.0-734.0-0.0","0","0","65126","","980","","","68","81","","","2","81","training","adjacent","CB","3","2","O.jpg","R.jpg","1","0","0","",""
"","feedback","","html-keyboard-response","529","655818","0.0-1.0-735.0-0.0","0","0","65126","","null","","","null","81","","","","","","","","","","","","","","","",""
"","time_out","","html-keyboard-response","530","657834","0.0-1.0-737.0-0.0","0","0","65126","","null","","","null","81","","","","","","","","","","","","","","","",""
"","ITI","","html-keyboard-response","531","658847","0.0-1.0-738.0","0","0","65126","","null","","","null","81","","","","","","","","","","","","","","","NaN",""
"","S1","","html-keyboard-response","532","659008","0.0-1.0-740.0","0","0","65126","","null","","","null","82","","","","","","","","","","","","","","","",""
"","ISI","","html-keyboard-response","533","661017","0.0-1.0-741.0","0","0","65126","","null","","","null","82","NaN","","","","","","","","","","","","","","",""
"","S2","","html-keyboard-response","534","661178","0.0-1.0-742.0","0","0","65126","","null","","","null","82","","NaN","","","","","","","","","","","","","",""
"","response","","html-keyboard-response","535","661608","0.0-1.0-743.0-0.0","0","0","65126","","426","","","75","82","","","2","82","training","adjacent","BC","2","3","R.jpg","O.jpg","0","1","0","",""
"","feedback","","html-keyboard-response","536","662618","0.0-1.0-744.0-0.0","0","0","65126","","null","","","null","82","","","","","","","","","","","","","","","",""
"","time_out","","html-keyboard-response","537","664633","0.0-1.0-746.0-0.0","0","0","65126","","null","","","null","82","","","","","","","","","","","","","","","",""
"","ITI","","html-keyboard-response","538","665643","0.0-1.0-747.0","0","0","65126","","null","","","null","82","","","","","","","","","","","","","","","NaN",""
"","S1","","html-keyboard-response","539","665803","0.0-1.0-749.0","0","0","65126","","null","","","null","83","","","","","","","","","","","","","","","",""
"","ISI","","html-keyboard-response","540","667818","0.0-1.0-750.0","0","0","65126","","null","","","null","83","NaN","","","","","","","","","","","","","","",""
"","S2","","html-keyboard-response","541","667978","0.0-1.0-751.0","0","0","65126","","null","","","null","83","","NaN","","","","","","","","","","","","","",""
"","response","","html-keyboard-response","542","668668","0.0-1.0-752.0-0.0","0","0","65126","","686","","","68","83","","","2","83","training","adjacent","FG","6","7","Q.jpg","N.jpg","1","1","1","",""
"","feedback","","html-keyboard-response","543","669679","0.0-1.0-753.0-0.0","0","0","65126","","null","","","null","83","","","","","","","","","","","","","","","",""
"","ITI","","html-keyboard-response","544","670687","0.0-1.0-756.0","0","0","65126","","null","","","null","83","","","","","","","","","","","","","","","NaN",""
"","S1","","html-keyboard-response","545","670845","0.0-1.0-758.0","0","0","65126","","null","","","null","84","","","","","","","","","","","","","","","",""
"","ISI","","html-keyboard-response","546","672858","0.0-1.0-759.0","0","0","65126","","null","","","null","84","NaN","","","","","","","","","","","","","","",""
"","S2","","html-keyboard-response","547","673015","0.0-1.0-760.0","0","0","65126","","null","","","null","84","","NaN","","","","","","","","","","","","","",""
"","response","","html-keyboard-response","548","673592","0.0-1.0-761.0-0.0","0","0","65126","","574","","","68","84","","","2","84","training","adjacent","FG","6","7","Q.jpg","N.jpg","1","1","1","",""
"","feedback","","html-keyboard-response","549","674602","0.0-1.0-762.0-0.0","0","0","65126","","null","","","null","84","","","","","","","","","","","","","","","",""
"","ITI","","html-keyboard-response","550","675613","0.0-1.0-765.0","0","0","65126","","null","","","null","84","","","","","","","","","","","","","","","NaN",""
"","S1","","html-keyboard-response","551","675775","0.0-1.0-767.0","0","0","65126","","null","","","null","85","","","","","","","","","","","","","","","",""
"","ISI","","html-keyboard-response","552","677786","0.0-1.0-768.0","0","0","65126","","null","","","null","85","NaN","","","","","","","","","","","","","","",""
"","S2","","html-keyboard-response","553","677946","0.0-1.0-769.0","0","0","65126","","null","","","null","85","","NaN","","","","","","","","","","","","","",""
"","response","","html-keyboard-response","554","678501","0.0-1.0-770.0-0.0","0","0","65126","","551","","","68","85","","","2","85","training","adjacent","EF","5","6","P.jpg","Q.jpg","1","1","1","",""
"","feedback","","html-keyboard-response","555","679514","0.0-1.0-771.0-0.0","0","0","65126","","null","","","null","85","","","","","","","","","","","","","","","",""
"","ITI","","html-keyboard-response","556","680525","0.0-1.0-774.0","0","0","65126","","null","","","null","85","","","","","","","","","","","","","","","NaN",""
"","S1","","html-keyboard-response","557","680684","0.0-1.0-776.0","0","0","65126","","null","","","null","86","","","","","","","","","","","","","","","",""
"","ISI","","html-keyboard-response","558","682697","0.0-1.0-777.0","0","0","65126","","null","","","null","86","NaN","","","","","","","","","","","","","","",""
"","S2","","html-keyboard-response","559","682856","0.0-1.0-778.0","0","0","65126","","null","","","null","86","","NaN","","","","","","","","","","","","","",""
"","response","","html-keyboard-response","560","683752","0.0-1.0-779.0-0.0","0","0","65126","","892","","","75","86","","","2","86","training","adjacent","DE","4","5","M.jpg","P.jpg","0","1","0","",""
"","feedback","","html-keyboard-response","561","684762","0.0-1.0-780.0-0.0","0","0","65126","","null","","","null","86","","","","","","","","","","","","","","","",""
"","time_out","","html-keyboard-response","562","686778","0.0-1.0-782.0-0.0","0","0","65126","","null","","","null","86","","","","","","","","","","","","","","","",""
"","ITI","","html-keyboard-response","563","687791","0.0-1.0-783.0","0","0","65126","","null","","","null","86","","","","","","","","","","","","","","","NaN",""
"","S1","","html-keyboard-response","564","687953","0.0-1.0-785.0","0","0","65126","","null","","","null","87","","","","","","","","","","","","","","","",""
"","ISI","","html-keyboard-response","565","689961","0.0-1.0-786.0","0","0","65126","","null","","","null","87","NaN","","","","","","","","","","","","","","",""
"","S2","","html-keyboard-response","566","690122","0.0-1.0-787.0","0","0","65126","","null","","","null","87","","NaN","","","","","","","","","","","","","",""
"","response","","html-keyboard-response","567","690758","0.0-1.0-788.0-0.0","0","0","65126","","632","","","68","87","","","2","87","training","adjacent","GF","7","6","N.jpg","Q.jpg","1","0","0","",""
"","feedback","","html-keyboard-response","568","691770","0.0-1.0-789.0-0.0","0","0","65126","","null","","","null","87","","","","","","","","","","","","","","","",""
"","time_out","","html-keyboard-response","569","693785","0.0-1.0-791.0-0.0","0","0","65126","","null","","","null","87","","","","","","","","","","","","","","","",""
"","ITI","","html-keyboard-response","570","694800","0.0-1.0-792.0","0","0","65126","","null","","","null","87","","","","","","","","","","","","","","","NaN",""
"","S1","","html-keyboard-response","571","694959","0.0-1.0-794.0","0","0","65126","","null","","","null","88","","","","","","","","","","","","","","","",""
"","ISI","","html-keyboard-response","572","696967","0.0-1.0-795.0","0","0","65126","","null","","","null","88","NaN","","","","","","","","","","","","","","",""
"","S2","","html-keyboard-response","573","697127","0.0-1.0-796.0","0","0","65126","","null","","","null","88","","NaN","","","","","","","","","","","","","",""
"","response","","html-keyboard-response","574","697286","0.0-1.0-797.0-0.0","0","0","65126","","157","","","75","88","","","2","88","training","adjacent","BC","2","3","R.jpg","O.jpg","0","1","0","",""
"","feedback","","html-keyboard-response","575","698297","0.0-1.0-798.0-0.0","0","0","65126","","null","","","null","88","","","","","","","","","","","","","","","",""
"","time_out","","html-keyboard-response","576","700312","0.0-1.0-800.0-0.0","0","0","65126","","null","","","null","88","","","","","","","","","","","","","","","",""
"","ITI","","html-keyboard-response","577","701320","0.0-1.0-801.0","0","0","65126","","null","","","null","88","","","","","","","","","","","","","","","NaN",""
"","S1","","html-keyboard-response","578","701481","0.0-1.0-803.0","0","0","65126","","null","","","null","89","","","","","","","","","","","","","","","",""
