"success","ttype","start_time","trial_type","trial_index","time_elapsed","internal_node_id","warning","missed_checkup","PID","view_history","rt","responses","repeat_instructions","key_press","index","keypress_isi","keypress_S2","block","trial_num","phase","group_type","pair_type","S1_stim","S2_stim","S1_img","S2_img","S1_chosen","S1_higher","accuracy","keypress_iti","total_bonus_tally"
"true","full_screen","d04062023hr2334","fullscreen","0","56384","0.0-0.0","0","0","19763","","","","","","","","","","","","","","","","","","","","","",""
"","instructions","","instructions","1","97801","0.0-1.0-0.0-0.0","0","0","19763","[{""page_index"":0,""viewing_time"":8282},{""page_index"":1,""viewing_time"":17499},{""page_index"":2,""viewing_time"":13638},{""page_index"":3,""viewing_time"":1992}]","41412","","","","","","","","","","","","","","","","","","","",""
"","comprehension_check","","survey-multi-choice","2","122051","0.0-1.0-0.0-1.0","0","0","19763","","24238","{""Q0"":""True"",""Q1"":""K"",""Q2"":""Once the second image appears and while the screen 'MAKE A CHOICE' is shown"",""Q3"":""Green mark"",""Q4"":""either D or K""}","0","","","","","","","","","","","","","","","","","",""
"","start_exp","","html-keyboard-response","3","124045","0.0-1.0-1.0","0","0","19763","","1985","","","32","","","","","","","","","","","","","","","","",""
"","S1","","html-keyboard-response","4","124200","0.0-1.0-2.0","0","0","19763","","null","","","null","0","","","","","","","","","","","","","","","",""
"","ISI","","html-keyboard-response","5","126206","0.0-1.0-3.0","0","0","19763","","null","","","null","0","NaN","","","","","","","","","","","","","","",""
"","S2","","html-keyboard-response","6","126362","0.0-1.0-4.0","0","0","19763","","null","","","null","0","","NaN","","","","","","","","","","","","","",""
"","response","","html-keyboard-response","7","126770","0.0-1.0-5.0-0.0","0","0","19763","","403","","","75","0","","","1","0","training","adjacent","DE","4","5","R.jpg","L.jpg","1","1","1","",""
"","feedback","","html-keyboard-response","8","127775","0.0-1.0-6.0-0.0","0","0","19763","","null","","","null","0","","","","","","","","","","","","","","","",""
"","ITI","","html-keyboard-response","9","128781","0.0-1.0-9.0","0","0","19763","","null","","","null","0","","","","","","","","","","","","","","","NaN",""
"","S1","","html-keyboard-response","10","128937","0.0-1.0-11.0","0","0","19763","","null","","","null","1","","","","","","","","","","","","","","","",""
"","ISI","","html-keyboard-response","11","130941","0.0-1.0-12.0","0","0","19763","","382","","","68","1","d","","","","","","","","","","","","","","",""
"","S2","","html-keyboard-response","12","131098","0.0-1.0-13.0","0","0","19763","","null","","","null","1","","NaN","","","","","","","","","","","","","",""
"","response","","html-keyboard-response","13","132622","0.0-1.0-14.0-0.0","0","0","19763","","1519","","","68","1","","","1","1","training","adjacent","CD","3","4","P.jpg","R.jpg","0","1","0","",""
"","feedback","","html-keyboard-response","14","133627","0.0-1.0-15.0-0.0","0","0","19763","","null","","","null","1","","","","","","","","","","","","","","","",""
"","time_out","","html-keyboard-response","15","135632","0.0-1.0-17.0-0.0","0","0","19763","","null","","","null","1","","","","","","","","","","","","","","","",""
"","ITI","","html-keyboard-response","16","136637","0.0-1.0-18.0","0","0","19763","","null","","","null","1","","","","","","","","","","","","","","","NaN",""
"","S1","","html-keyboard-response","17","136792","0.0-1.0-20.0","0","0","19763","","null","","","null","2","","","","","","","","","","","","","","","",""
"","ISI","","html-keyboard-response","18","138797","0.0-1.0-21.0","0","0","19763","","null","","","null","2","NaN","","","","","","","","","","","","","","",""
"","S2","","html-keyboard-response","19","138952","0.0-1.0-22.0","0","0","19763","","null","","","null","2","","NaN","","","","","","","","","","","","","",""
"","response","","html-keyboard-response","20","139257","0.0-1.0-23.0-0.0","0","0","19763","","300","","","75","2","","","1","2","training","adjacent","FG","6","7","O.jpg","Q.jpg","1","1","1","",""
"","feedback","","html-keyboard-response","21","140263","0.0-1.0-24.0-0.0","0","0","19763","","null","","","null","2","","","","","","","","","","","","","","","",""
"","ITI","","html-keyboard-response","22","141268","0.0-1.0-27.0","0","0","19763","","null","","","null","2","","","","","","","","","","","","","","","NaN",""
"","S1","","html-keyboard-response","23","141423","0.0-1.0-29.0","0","0","19763","","null","","","null","3","","","","","","","","","","","","","","","",""
"","ISI","","html-keyboard-response","24","143428","0.0-1.0-30.0","0","0","19763","","null","","","null","3","NaN","","","","","","","","","","","","","","",""
"","S2","","html-keyboard-response","25","143584","0.0-1.0-31.0","0","0","19763","","null","","","null","3","","NaN","","","","","","","","","","","","","",""
"","response","","html-keyboard-response","26","143837","0.0-1.0-32.0-0.0","0","0","19763","","250","","","75","3","","","1","3","training","adjacent","EF","5","6","L.jpg","O.jpg","1","1","1","",""
"","feedback","","html-keyboard-response","27","144841","0.0-1.0-33.0-0.0","0","0","19763","","null","","","null","3","","","","","","","","","","","","","","","",""
"","ITI","","html-keyboard-response","28","145846","0.0-1.0-36.0","0","0","19763","","null","","","null","3","","","","","","","","","","","","","","","NaN",""
"","S1","","html-keyboard-response","29","146001","0.0-1.0-38.0","0","0","19763","","null","","","null","4","","","","","","","","","","","","","","","",""
"","ISI","","html-keyboard-response","30","148006","0.0-1.0-39.0","0","0","19763","","null","","","null","4","NaN","","","","","","","","","","","","","","",""
"","S2","","html-keyboard-response","31","148161","0.0-1.0-40.0","0","0","19763","","null","","","null","4","","NaN","","","","","","","","","","","","","",""
"","response","","html-keyboard-response","32","148368","0.0-1.0-41.0-0.0","0","0","19763","","203","","","75","4","","","1","4","training","adjacent","CB","3","2","P.jpg","N.jpg","1","0","0","",""
"","feedback","","html-keyboard-response","33","149373","0.0-1.0-42.0-0.0","0","0","19763","","null","","","null","4","","","","","","","","","","","","","","","",""
"","time_out","","html-keyboard-response","34","151378","0.0-1.0-44.0-0.0","0","0","19763","","null","","","null","4","","","","","","","","","","","","","","","",""
"","ITI","","html-keyboard-response","35","152383","0.0-1.0-45.0","0","0","19763","","null","","","null","4","","","","","","","","","","","","","","","NaN",""
"","S1","","html-keyboard-response","36","152539","0.0-1.0-47.0","0","0","19763","","null","","","null","5","","","","","","","","","","","","","","","",""
"","ISI","","html-keyboard-response","37","154544","0.0-1.0-48.0","0","0","19763","","null","","","null","5","NaN","","","","","","","","","","","","","","",""
"","S2","","html-keyboard-response","38","154699","0.0-1.0-49.0","0","0","19763","","null","","","null","5","","NaN","","","","","","","","","","","","","",""
"","response","","html-keyboard-response","39","154829","0.0-1.0-50.0-0.0","0","0","19763","","127","","","68","5","","","1","5","training","adjacent","BA","2","1","N.jpg","M.jpg","0","0","1","",""
"","feedback","","html-keyboard-response","40","155833","0.0-1.0-51.0-0.0","0","0","19763","","null","","","null","5","","","","","","","","","","","","","","","",""
"","ITI","","html-keyboard-response","41","156838","0.0-1.0-54.0","0","0","19763","","null","","","null","5","","","","","","","","","","","","","","","NaN",""
"","S1","","html-keyboard-response","42","156994","0.0-1.0-56.0","0","0","19763","","null","","","null","6","","","","","","","","","","","","","","","",""
"","ISI","","html-keyboard-response","43","158998","0.0-1.0-57.0","0","0","19763","","null","","","null","6","NaN","","","","","","","","","","","","","","",""
"","S2","","html-keyboard-response","44","159154","0.0-1.0-58.0","0","0","19763","","null","","","null","6","","NaN","","","","","","","","","","","","","",""
"","response","","html-keyboard-response","45","159338","0.0-1.0-59.0-0.0","0","0","19763","","180","","","68","6","","","1","6","training","adjacent","CB","3","2","P.jpg","N.jpg","0","0","1","",""
"","feedback","","html-keyboard-response","46","160342","0.0-1.0-60.0-0.0","0","0","19763","","null","","","null","6","","","","","","","","","","","","","","","",""
"","ITI","","html-keyboard-response","47","161347","0.0-1.0-63.0","0","0","19763","","null","","","null","6","","","","","","","","","","","","","","","NaN",""
"","S1","","html-keyboard-response","48","161502","0.0-1.0-65.0","0","0","19763","","null","","","null","7","","","","","","","","","","","","","","","",""
"","ISI","","html-keyboard-response","49","163507","0.0-1.0-66.0","0","0","19763","","null","","","null","7","NaN","","","","","","","","","","","","","","",""
"","S2","","html-keyboard-response","50","163661","0.0-1.0-67.0","0","0","19763","","null","","","null","7","","NaN","","","","","","","","","","","","","",""
"","response","","html-keyboard-response","51","163780","0.0-1.0-68.0-0.0","0","0","19763","","115","","","75","7","","","1","7","training","adjacent","GF","7","6","Q.jpg","O.jpg","1","0","0","",""
"","feedback","","html-keyboard-response","52","164785","0.0-1.0-69.0-0.0","0","0","19763","","null","","","null","7","","","","","","","","","","","","","","","",""
"","time_out","","html-keyboard-response","53","166789","0.0-1.0-71.0-0.0","0","0","19763","","null","","","null","7","","","","","","","","","","","","","","","",""
"","ITI","","html-keyboard-response","54","167795","0.0-1.0-72.0","0","0","19763","","null","","","null","7","","","","","","","","","","","","","","","NaN",""
"","S1","","html-keyboard-response","55","167950","0.0-1.0-74.0","0","0","19763","","null","","","null","8","","","","","","","","","","","","","","","",""
"","ISI","","html-keyboard-response","56","169955","0.0-1.0-75.0","0","0","19763","","null","","","null","8","NaN","","","","","","","","","","","","","","",""
"","S2","","html-keyboard-response","57","170111","0.0-1.0-76.0","0","0","19763","","null","","","null","8","","NaN","","","","","","","","","","","","","",""
"","response","","html-keyboard-response","58","170404","0.0-1.0-77.0-0.0","0","0","19763","","289","","","68","8","","","1","8","training","adjacent","FE","6","5","O.jpg","L.jpg","0","0","1","",""
"","feedback","","html-keyboard-response","59","171409","0.0-1.0-78.0-0.0","0","0","19763","","null","","","null","8","","","","","","","","","","","","","","","",""
"","ITI","","html-keyboard-response","60","172414","0.0-1.0-81.0","0","0","19763","","null","","","null","8","","","","","","","","","","","","","","","NaN",""
"","S1","","html-keyboard-response","61","172568","0.0-1.0-83.0","0","0","19763","","null","","","null","9","","","","","","","","","","","","","","","",""
"","ISI","","html-keyboard-response","62","174572","0.0-1.0-84.0","0","0","19763","","null","","","null","9","NaN","","","","","","","","","","","","","","",""
"","S2","","html-keyboard-response","63","174728","0.0-1.0-85.0","0","0","19763","","null","","","null","9","","NaN","","","","","","","","","","","","","",""
"","response","","html-keyboard-response","64","174935","0.0-1.0-86.0-0.0","0","0","19763","","203","","","68","9","","","1","9","training","adjacent","BC","2","3","N.jpg","P.jpg","0","1","0","",""
"","feedback","","html-keyboard-response","65","175939","0.0-1.0-87.0-0.0","0","0","19763","","null","","","null","9","","","","","","","","","","","","","","","",""
"","time_out","","html-keyboard-response","66","177944","0.0-1.0-89.0-0.0","0","0","19763","","null","","","null","9","","","","","","","","","","","","","","","",""
"","ITI","","html-keyboard-response","67","178949","0.0-1.0-90.0","0","0","19763","","null","","","null","9","","","","","","","","","","","","","","","NaN",""
"","S1","","html-keyboard-response","68","179104","0.0-1.0-92.0","0","0","19763","","null","","","null","10","","","","","","","","","","","","","","","",""
"","ISI","","html-keyboard-response","69","181108","0.0-1.0-93.0","0","0","19763","","null","","","null","10","NaN","","","","","","","","","","","","","","",""
"","S2","","html-keyboard-response","70","181262","0.0-1.0-94.0","0","0","19763","","null","","","null","10","","NaN","","","","","","","","","","","","","",""
"","response","","html-keyboard-response","71","181564","0.0-1.0-95.0-0.0","0","0","19763","","297","","","75","10","","","1","10","training","adjacent","AB","1","2","M.jpg","N.jpg","1","1","1","",""
"","feedback","","html-keyboard-response","72","182569","0.0-1.0-96.0-0.0","0","0","19763","","null","","","null","10","","","","","","","","","","","","","","","",""
"","ITI","","html-keyboard-response","73","183574","0.0-1.0-99.0","0","0","19763","","null","","","null","10","","","","","","","","","","","","","","","NaN",""
"","S1","","html-keyboard-response","74","183729","0.0-1.0-101.0","0","0","19763","","null","","","null","11","","","","","","","","","","","","","","","",""
"","ISI","","html-keyboard-response","75","185733","0.0-1.0-102.0","0","0","19763","","null","","","null","11","NaN","","","","","","","","","","","","","","",""
"","S2","","html-keyboard-response","76","185889","0.0-1.0-103.0","0","0","19763","","null","","","null","11","","NaN","","","","","","","","","","","","","",""
"","response","","html-keyboard-response","77","186247","0.0-1.0-104.0-0.0","0","0","19763","","354","","","68","11","","","1","11","training","adjacent","ED","5","4","L.jpg","R.jpg","0","0","1","",""
"","feedback","","html-keyboard-response","78","187253","0.0-1.0-105.0-0.0","0","0","19763","","null","","","null","11","","","","","","","","","","","","","","","",""
"","ITI","","html-keyboard-response","79","188258","0.0-1.0-108.0","0","0","19763","","null","","","null","11","","","","","","","","","","","","","","","NaN",""
"","S1","","html-keyboard-response","80","188413","0.0-1.0-110.0","0","0","19763","","null","","","null","12","","","","","","","","","","","","","","","",""
"","ISI","","html-keyboard-response","81","190417","0.0-1.0-111.0","0","0","19763","","null","","","null","12","NaN","","","","","","","","","","","","","","",""
"","S2","","html-keyboard-response","82","190572","0.0-1.0-112.0","0","0","19763","","null","","","null","12","","NaN","","","","","","","","","","","","","",""
"","response","","html-keyboard-response","83","190971","0.0-1.0-113.0-0.0","0","0","19763","","394","","","68","12","","","1","12","training","adjacent","GF","7","6","Q.jpg","O.jpg","0","0","1","",""
"","feedback","","html-keyboard-response","84","191976","0.0-1.0-114.0-0.0","0","0","19763","","null","","","null","12","","","","","","","","","","","","","","","",""
"","ITI","","html-keyboard-response","85","192980","0.0-1.0-117.0","0","0","19763","","null","","","null","12","","","","","","","","","","","","","","","NaN",""
"","S1","","html-keyboard-response","86","193136","0.0-1.0-119.0","0","0","19763","","null","","","null","13","","","","","","","","","","","","","","","",""
"","ISI","","html-keyboard-response","87","195141","0.0-1.0-120.0","0","0","19763","","null","","","null","13","NaN","","","","","","","","","","","","","","",""
"","S2","","html-keyboard-response","88","195296","0.0-1.0-121.0","0","0","19763","","null","","","null","13","","NaN","","","","","","","","","","","","","",""
"","response","","html-keyboard-response","89","195606","0.0-1.0-122.0-0.0","0","0","19763","","306","","","68","13","","","1","13","training","adjacent","ED","5","4","L.jpg","R.jpg","0","0","1","",""
"","feedback","","html-keyboard-response","90","196610","0.0-1.0-123.0-0.0","0","0","19763","","null","","","null","13","","","","","","","","","","","","","","","",""
"","ITI","","html-keyboard-response","91","197615","0.0-1.0-126.0","0","0","19763","","null","","","null","13","","","","","","","","","","","","","","","NaN",""
"","S1","","html-keyboard-response","92","197769","0.0-1.0-128.0","0","0","19763","","null","","","null","14","","","","","","","","","","","","","","","",""
"","ISI","","html-keyboard-response","93","199774","0.0-1.0-129.0","0","0","19763","","null","","","null","14","NaN","","","","","","","","","","","","","","",""
"","S2","","html-keyboard-response","94","199929","0.0-1.0-130.0","0","0","19763","","null","","","null","14","","NaN","","","","","","","","","","","","","",""
"","response","","html-keyboard-response","95","200256","0.0-1.0-131.0-0.0","0","0","19763","","323","","","75","14","","","1","14","training","adjacent","DC","4","3","R.jpg","P.jpg","1","0","0","",""
"","feedback","","html-keyboard-response","96","201262","0.0-1.0-132.0-0.0","0","0","19763","","null","","","null","14","","","","","","","","","","","","","","","",""
"","time_out","","html-keyboard-response","97","203266","0.0-1.0-134.0-0.0","0","0","19763","","null","","","null","14","","","","","","","","","","","","","","","",""
"","ITI","","html-keyboard-response","98","204270","0.0-1.0-135.0","0","0","19763","","null","","","null","14","","","","","","","","","","","","","","","NaN",""
"","S1","","html-keyboard-response","99","204426","0.0-1.0-137.0","0","0","19763","","null","","","null","15","","","","","","","","","","","","","","","",""
"","ISI","","html-keyboard-response","100","206430","0.0-1.0-138.0","0","0","19763","","null","","","null","15","NaN","","","","","","","","","","","","","","",""
"","S2","","html-keyboard-response","101","206585","0.0-1.0-139.0","0","0","19763","","null","","","null","15","","NaN","","","","","","","","","","","","","",""
"","response","","html-keyboard-response","102","206867","0.0-1.0-140.0-0.0","0","0","19763","","278","","","68","15","","","1","15","training","adjacent","EF","5","6","L.jpg","O.jpg","0","1","0","",""
"","feedback","","html-keyboard-response","103","207872","0.0-1.0-141.0-0.0","0","0","19763","","null","","","null","15","","","","","","","","","","","","","","","",""
"","time_out","","html-keyboard-response","104","209877","0.0-1.0-143.0-0.0","0","0","19763","","null","","","null","15","","","","","","","","","","","","","","","",""
"","ITI","","html-keyboard-response","105","210879","0.0-1.0-144.0","0","0","19763","","null","","","null","15","","","","","","","","","","","","","","","NaN",""
"","S1","","html-keyboard-response","106","211033","0.0-1.0-146.0","0","0","19763","","null","","","null","16","","","","","","","","","","","","","","","",""
"","ISI","","html-keyboard-response","107","213037","0.0-1.0-147.0","0","0","19763","","null","","","null","16","NaN","","","","","","","","","","","","","","",""
"","S2","","html-keyboard-response","108","213191","0.0-1.0-148.0","0","0","19763","","null","","","null","16","","NaN","","","","","","","","","","","","","",""
"","response","","html-keyboard-response","109","213426","0.0-1.0-149.0-0.0","0","0","19763","","231","","","75","16","","","1","16","training","adjacent","DC","4","3","R.jpg","P.jpg","1","0","0","",""
"","feedback","","html-keyboard-response","110","214429","0.0-1.0-150.0-0.0","0","0","19763","","null","","","null","16","","","","","","","","","","","","","","","",""
"","time_out","","html-keyboard-response","111","216433","0.0-1.0-152.0-0.0","0","0","19763","","null","","","null","16","","","","","","","","","","","","","","","",""
"","ITI","","html-keyboard-response","112","217439","0.0-1.0-153.0","0","0","19763","","null","","","null","16","","","","","","","","","","","","","","","NaN",""
"","S1","","html-keyboard-response","113","217594","0.0-1.0-155.0","0","0","19763","","null","","","null","17","","","","","","","","","","","","","","","",""
"","ISI","","html-keyboard-response","114","219597","0.0-1.0-156.0","0","0","19763","","null","","","null","17","NaN","","","","","","","","","","","","","","",""
"","S2","","html-keyboard-response","115","219753","0.0-1.0-157.0","0","0","19763","","null","","","null","17","","NaN","","","","","","","","","","","","","",""
"","response","","html-keyboard-response","116","220127","0.0-1.0-158.0-0.0","0","0","19763","","371","","","68","17","","","1","17","training","adjacent","DE","4","5","R.jpg","L.jpg","0","1","0","",""
"","feedback","","html-keyboard-response","117","221132","0.0-1.0-159.0-0.0","0","0","19763","","null","","","null","17","","","","","","","","","","","","","","","",""
"","time_out","","html-keyboard-response","118","223136","0.0-1.0-161.0-0.0","0","0","19763","","null","","","null","17","","","","","","","","","","","","","","","",""
"","ITI","","html-keyboard-response","119","224142","0.0-1.0-162.0","0","0","19763","","null","","","null","17","","","","","","","","","","","","","","","NaN",""
"","S1","","html-keyboard-response","120","224297","0.0-1.0-164.0","0","0","19763","","null","","","null","18","","","","","","","","","","","","","","","",""
"","ISI","","html-keyboard-response","121","226300","0.0-1.0-165.0","0","0","19763","","null","","","null","18","NaN","","","","","","","","","","","","","","",""
"","S2","","html-keyboard-response","122","226456","0.0-1.0-166.0","0","0","19763","","null","","","null","18","","NaN","","","","","","","","","","","","","",""
"","response","","html-keyboard-response","123","226636","0.0-1.0-167.0-0.0","0","0","19763","","176","","","75","18","","","1","18","training","adjacent","FE","6","5","O.jpg","L.jpg","1","0","0","",""
"","feedback","","html-keyboard-response","124","227642","0.0-1.0-168.0-0.0","0","0","19763","","null","","","null","18","","","","","","","","","","","","","","","",""
"","time_out","","html-keyboard-response","125","229646","0.0-1.0-170.0-0.0","0","0","19763","","null","","","null","18","","","","","","","","","","","","","","","",""
"","ITI","","html-keyboard-response","126","230649","0.0-1.0-171.0","0","0","19763","","null","","","null","18","","","","","","","","","","","","","","","NaN",""
"","S1","","html-keyboard-response","127","230804","0.0-1.0-173.0","0","0","19763","","null","","","null","19","","","","","","","","","","","","","","","",""
"","ISI","","html-keyboard-response","128","232808","0.0-1.0-174.0","0","0","19763","","null","","","null","19","NaN","","","","","","","","","","","","","","",""
"","S2","","html-keyboard-response","129","232962","0.0-1.0-175.0","0","0","19763","","null","","","null","19","","NaN","","","","","","","","","","","","","",""
"","response","","html-keyboard-response","130","233085","0.0-1.0-176.0-0.0","0","0","19763","","120","","","75","19","","","1","19","training","adjacent","CB","3","2","P.jpg","N.jpg","1","0","0","",""
"","feedback","","html-keyboard-response","131","234089","0.0-1.0-177.0-0.0","0","0","19763","","null","","","null","19","","","","","","","","","","","","","","","",""
"","time_out","","html-keyboard-response","132","236092","0.0-1.0-179.0-0.0","0","0","19763","","null","","","null","19","","","","","","","","","","","","","","","",""
"","ITI","","html-keyboard-response","133","237097","0.0-1.0-180.0","0","0","19763","","null","","","null","19","","","","","","","","","","","","","","","NaN",""
"","S1","","html-keyboard-response","134","237250","0.0-1.0-182.0","0","0","19763","","null","","","null","20","","","","","","","","","","","","","","","",""
"","ISI","","html-keyboard-response","135","239253","0.0-1.0-183.0","0","0","19763","","null","","","null","20","NaN","","","","","","","","","","","","","","",""
"","S2","","html-keyboard-response","136","239408","0.0-1.0-184.0","0","0","19763","","null","","","null","20","","NaN","","","","","","","","","","","","","",""
"","response","","html-keyboard-response","137","239608","0.0-1.0-185.0-0.0","0","0","19763","","198","","","68","20","","","1","20","training","adjacent","GF","7","6","Q.jpg","O.jpg","0","0","1","",""
"","feedback","","html-keyboard-response","138","240612","0.0-1.0-186.0-0.0","0","0","19763","","null","","","null","20","","","","","","","","","","","","","","","",""
"","ITI","","html-keyboard-response","139","241616","0.0-1.0-189.0","0","0","19763","","null","","","null","20","","","","","","","","","","","","","","","NaN",""
"","S1","","html-keyboard-response","140","241770","0.0-1.0-191.0","0","0","19763","","null","","","null","21","","","","","","","","","","","","","","","",""
"","ISI","","html-keyboard-response","141","243774","0.0-1.0-192.0","0","0","19763","","null","","","null","21","NaN","","","","","","","","","","","","","","",""
"","S2","","html-keyboard-response","142","243929","0.0-1.0-193.0","0","0","19763","","null","","","null","21","","NaN","","","","","","","","","","","","","",""
"","response","","html-keyboard-response","143","244105","0.0-1.0-194.0-0.0","0","0","19763","","173","","","68","21","","","1","21","training","adjacent","BC","2","3","N.jpg","P.jpg","0","1","0","",""
"","feedback","","html-keyboard-response","144","245109","0.0-1.0-195.0-0.0","0","0","19763","","null","","","null","21","","","","","","","","","","","","","","","",""
"","time_out","","html-keyboard-response","145","247114","0.0-1.0-197.0-0.0","0","0","19763","","null","","","null","21","","","","","","","","","","","","","","","",""
"","ITI","","html-keyboard-response","146","248118","0.0-1.0-198.0","0","0","19763","","null","","","null","21","","","","","","","","","","","","","","","NaN",""
"","S1","","html-keyboard-response","147","248272","0.0-1.0-200.0","0","0","19763","","null","","","null","22","","","","","","","","","","","","","","","",""
"","ISI","","html-keyboard-response","148","250275","0.0-1.0-201.0","0","0","19763","","null","","","null","22","NaN","","","","","","","","","","","","","","",""
"","S2","","html-keyboard-response","149","250431","0.0-1.0-202.0","0","0","19763","","null","","","null","22","","NaN","","","","","","","","","","","","","",""
"","response","","html-keyboard-response","150","250637","0.0-1.0-203.0-0.0","0","0","19763","","203","","","68","22","","","1","22","training","adjacent","DC","4","3","R.jpg","P.jpg","0","0","1","",""
"","feedback","","html-keyboard-response","151","251643","0.0-1.0-204.0-0.0","0","0","19763","","null","","","null","22","","","","","","","","","","","","","","","",""
"","ITI","","html-keyboard-response","152","252647","0.0-1.0-207.0","0","0","19763","","null","","","null","22","","","","","","","","","","","","","","","NaN",""
"","S1","","html-keyboard-response","153","252801","0.0-1.0-209.0","0","0","19763","","null","","","null","23","","","","","","","","","","","","","","","",""
"","ISI","","html-keyboard-response","154","254806","0.0-1.0-210.0","0","0","19763","","null","","","null","23","NaN","","","","","","","","","","","","","","",""
"","S2","","html-keyboard-response","155","254961","0.0-1.0-211.0","0","0","19763","","null","","","null","23","","NaN","","","","","","","","","","","","","",""
"","response","","html-keyboard-response","156","255120","0.0-1.0-212.0-0.0","0","0","19763","","154","","","75","23","","","1","23","training","adjacent","FG","6","7","O.jpg","Q.jpg","1","1","1","",""
"","feedback","","html-keyboard-response","157","256126","0.0-1.0-213.0-0.0","0","0","19763","","null","","","null","23","","","","","","","","","","","","","","","",""
"","ITI","","html-keyboard-response","158","257131","0.0-1.0-216.0","0","0","19763","","null","","","null","23","","","","","","","","","","","","","","","NaN",""
"","S1","","html-keyboard-response","159","257286","0.0-1.0-218.0","0","0","19763","","null","","","null","24","","","","","","","","","","","","","","","",""
"","ISI","","html-keyboard-response","160","259292","0.0-1.0-219.0","0","0","19763","","null","","","null","24","NaN","","","","","","","","","","","","","","",""
"","S2","","html-keyboard-response","161","259446","0.0-1.0-220.0","0","0","19763","","null","","","null","24","","NaN","","","","","","","","","","","","","",""
"","response","","html-keyboard-response","162","259688","0.0-1.0-221.0-0.0","0","0","19763","","238","","","75","24","","","1","24","training","adjacent","CD","3","4","P.jpg","R.jpg","1","1","1","",""
"","feedback","","html-keyboard-response","163","260694","0.0-1.0-222.0-0.0","0","0","19763","","null","","","null","24","","","","","","","","","","","","","","","",""
"","ITI","","html-keyboard-response","164","261699","0.0-1.0-225.0","0","0","19763","","null","","","null","24","","","","","","","","","","","","","","","NaN",""
"","S1","","html-keyboard-response","165","261854","0.0-1.0-227.0","0","0","19763","","null","","","null","25","","","","","","","","","","","","","","","",""
"","ISI","","html-keyboard-response","166","263858","0.0-1.0-228.0","0","0","19763","","null","","","null","25","NaN","","","","","","","","","","","","","","",""
"","S2","","html-keyboard-response","167","264014","0.0-1.0-229.0","0","0","19763","","null","","","null","25","","NaN","","","","","","","","","","","","","",""
"","response","","html-keyboard-response","168","264244","0.0-1.0-230.0-0.0","0","0","19763","","225","","","75","25","","","1","25","training","adjacent","BC","2","3","N.jpg","P.jpg","1","1","1","",""
"","feedback","","html-keyboard-response","169","265249","0.0-1.0-231.0-0.0","0","0","19763","","null","","","null","25","","","","","","","","","","","","","","","",""
"","ITI","","html-keyboard-response","170","266253","0.0-1.0-234.0","0","0","19763","","null","","","null","25","","","","","","","","","","","","","","","NaN",""
"","S1","","html-keyboard-response","171","266409","0.0-1.0-236.0","0","0","19763","","null","","","null","26","","","","","","","","","","","","","","","",""
"","ISI","","html-keyboard-response","172","268413","0.0-1.0-237.0","0","0","19763","","null","","","null","26","NaN","","","","","","","","","","","","","","",""
"","S2","","html-keyboard-response","173","268567","0.0-1.0-238.0","0","0","19763","","null","","","null","26","","NaN","","","","","","","","","","","","","",""
"","response","","html-keyboard-response","174","268757","0.0-1.0-239.0-0.0","0","0","19763","","187","","","75","26","","","1","26","training","adjacent","DC","4","3","R.jpg","P.jpg","1","0","0","",""
"","feedback","","html-keyboard-response","175","269761","0.0-1.0-240.0-0.0","0","0","19763","","null","","","null","26","","","","","","","","","","","","","","","",""
"","time_out","","html-keyboard-response","176","271765","0.0-1.0-242.0-0.0","0","0","19763","","null","","","null","26","","","","","","","","","","","","","","","",""
"","ITI","","html-keyboard-response","177","272768","0.0-1.0-243.0","0","0","19763","","null","","","null","26","","","","","","","","","","","","","","","NaN",""
"","S1","","html-keyboard-response","178","272922","0.0-1.0-245.0","0","0","19763","","null","","","null","27","","","","","","","","","","","","","","","",""
"","ISI","","html-keyboard-response","179","274926","0.0-1.0-246.0","0","0","19763","","null","","","null","27","NaN","","","","","","","","","","","","","","",""
"","S2","","html-keyboard-response","180","275080","0.0-1.0-247.0","0","0","19763","","null","","","null","27","","NaN","","","","","","","","","","","","","",""
"","response","","html-keyboard-response","181","275471","0.0-1.0-248.0-0.0","0","0","19763","","386","","","75","27","","","1","27","training","adjacent","FG","6","7","O.jpg","Q.jpg","1","1","1","",""
"","feedback","","html-keyboard-response","182","276475","0.0-1.0-249.0-0.0","0","0","19763","","null","","","null","27","","","","","","","","","","","","","","","",""
"","ITI","","html-keyboard-response","183","277477","0.0-1.0-252.0","0","0","19763","","null","","","null","27","","","","","","","","","","","","","","","NaN",""
"","S1","","html-keyboard-response","184","277630","0.0-1.0-254.0","0","0","19763","","null","","","null","28","","","","","","","","","","","","","","","",""
"","ISI","","html-keyboard-response","185","279633","0.0-1.0-255.0","0","0","19763","","null","","","null","28","NaN","","","","","","","","","","","","","","",""
"","S2","","html-keyboard-response","186","279787","0.0-1.0-256.0","0","0","19763","","null","","","null","28","","NaN","","","","","","","","","","","","","",""
"","response","","html-keyboard-response","187","280056","0.0-1.0-257.0-0.0","0","0","19763","","266","","","75","28","","","1","28","training","adjacent","AB","1","2","M.jpg","N.jpg","1","1","1","",""
"","feedback","","html-keyboard-response","188","281061","0.0-1.0-258.0-0.0","0","0","19763","","null","","","null","28","","","","","","","","","","","","","","","",""
"","ITI","","html-keyboard-response","189","282064","0.0-1.0-261.0","0","0","19763","","null","","","null","28","","","","","","","","","","","","","","","NaN",""
"","S1","","html-keyboard-response","190","282218","0.0-1.0-263.0","0","0","19763","","null","","","null","29","","","","","","","","","","","","","","","",""
"","ISI","","html-keyboard-response","191","284221","0.0-1.0-264.0","0","0","19763","","null","","","null","29","NaN","","","","","","","","","","","","","","",""
"","S2","","html-keyboard-response","192","284375","0.0-1.0-265.0","0","0","19763","","null","","","null","29","","NaN","","","","","","","","","","","","","",""
"","response","","html-keyboard-response","193","284859","0.0-1.0-266.0-0.0","0","0","19763","","481","","","68","29","","","1","29","training","adjacent","ED","5","4","L.jpg","R.jpg","0","0","1","",""
"","feedback","","html-keyboard-response","194","285864","0.0-1.0-267.0-0.0","0","0","19763","","null","","","null","29","","","","","","","","","","","","","","","",""
"","ITI","","html-keyboard-response","195","286868","0.0-1.0-270.0","0","0","19763","","null","","","null","29","","","","","","","","","","","","","","","NaN",""
"","S1","","html-keyboard-response","196","287022","0.0-1.0-272.0","0","0","19763","","null","","","null","30","","","","","","","","","","","","","","","",""
"","ISI","","html-keyboard-response","197","289026","0.0-1.0-273.0","0","0","19763","","null","","","null","30","NaN","","","","","","","","","","","","","","",""
"","S2","","html-keyboard-response","198","289180","0.0-1.0-274.0","0","0","19763","","null","","","null","30","","NaN","","","","","","","","","","","","","",""
"","response","","html-keyboard-response","199","289574","0.0-1.0-275.0-0.0","0","0","19763","","391","","","75","30","","","1","30","training","adjacent","FG","6","7","O.jpg","Q.jpg","1","1","1","",""
"","feedback","","html-keyboard-response","200","290579","0.0-1.0-276.0-0.0","0","0","19763","","null","","","null","30","","","","","","","","","","","","","","","",""
"","ITI","","html-keyboard-response","201","291584","0.0-1.0-279.0","0","0","19763","","null","","","null","30","","","","","","","","","","","","","","","NaN",""
"","S1","","html-keyboard-response","202","291737","0.0-1.0-281.0","0","0","19763","","null","","","null","31","","","","","","","","","","","","","","","",""
"","ISI","","html-keyboard-response","203","293742","0.0-1.0-282.0","0","0","19763","","null","","","null","31","NaN","","","","","","","","","","","","","","",""
"","S2","","html-keyboard-response","204","293897","0.0-1.0-283.0","0","0","19763","","null","","","null","31","","NaN","","","","","","","","","","","","","",""
"","response","","html-keyboard-response","205","294166","0.0-1.0-284.0-0.0","0","0","19763","","265","","","68","31","","","1","31","training","adjacent","DE","4","5","R.jpg","L.jpg","0","1","0","",""
"","feedback","","html-keyboard-response","206","295172","0.0-1.0-285.0-0.0","0","0","19763","","null","","","null","31","","","","","","","","","","","","","","","",""
"","time_out","","html-keyboard-response","207","297176","0.0-1.0-287.0-0.0","0","0","19763","","null","","","null","31","","","","","","","","","","","","","","","",""
"","ITI","","html-keyboard-response","208","298180","0.0-1.0-288.0","0","0","19763","","null","","","null","31","","","","","","","","","","","","","","","NaN",""
"","S1","","html-keyboard-response","209","298335","0.0-1.0-290.0","0","0","19763","","null","","","null","32","","","","","","","","","","","","","","","",""
"","ISI","","html-keyboard-response","210","300339","0.0-1.0-291.0","0","0","19763","","null","","","null","32","NaN","","","","","","","","","","","","","","",""
"","S2","","html-keyboard-response","211","300495","0.0-1.0-292.0","0","0","19763","","null","","","null","32","","NaN","","","","","","","","","","","","","",""
"","response","","html-keyboard-response","212","300707","0.0-1.0-293.0-0.0","0","0","19763","","208","","","75","32","","","1","32","training","adjacent","EF","5","6","L.jpg","O.jpg","1","1","1","",""
"","feedback","","html-keyboard-response","213","301713","0.0-1.0-294.0-0.0","0","0","19763","","null","","","null","32","","","","","","","","","","","","","","","",""
"","ITI","","html-keyboard-response","214","302718","0.0-1.0-297.0","0","0","19763","","null","","","null","32","","","","","","","","","","","","","","","NaN",""
"","S1","","html-keyboard-response","215","302873","0.0-1.0-299.0","0","0","19763","","null","","","null","33","","","","","","","","","","","","","","","",""
"","ISI","","html-keyboard-response","216","304878","0.0-1.0-300.0","0","0","19763","","null","","","null","33","NaN","","","","","","","","","","","","","","",""
"","S2","","html-keyboard-response","217","305033","0.0-1.0-301.0","0","0","19763","","null","","","null","33","","NaN","","","","","","","","","","","","","",""
"","response","","html-keyboard-response","218","305242","0.0-1.0-302.0-0.0","0","0","19763","","206","","","75","33","","","1","33","training","adjacent","BA","2","1","N.jpg","M.jpg","1","0","0","",""
"","feedback","","html-keyboard-response","219","306248","0.0-1.0-303.0-0.0","0","0","19763","","null","","","null","33","","","","","","","","","","","","","","","",""
"","time_out","","html-keyboard-response","220","308254","0.0-1.0-305.0-0.0","0","0","19763","","null","","","null","33","","","","","","","","","","","","","","","",""
"","ITI","","html-keyboard-response","221","309259","0.0-1.0-306.0","0","0","19763","","null","","","null","33","","","","","","","","","","","","","","","NaN",""
"","S1","","html-keyboard-response","222","309414","0.0-1.0-308.0","0","0","19763","","null","","","null","34","","","","","","","","","","","","","","","",""
"","ISI","","html-keyboard-response","223","311419","0.0-1.0-309.0","0","0","19763","","null","","","null","34","NaN","","","","","","","","","","","","","","",""
"","S2","","html-keyboard-response","224","311574","0.0-1.0-310.0","0","0","19763","","null","","","null","34","","NaN","","","","","","","","","","","","","",""
"","response","","html-keyboard-response","225","311838","0.0-1.0-311.0-0.0","0","0","19763","","260","","","75","34","","","1","34","training","adjacent","CD","3","4","P.jpg","R.jpg","1","1","1","",""
"","feedback","","html-keyboard-response","226","312842","0.0-1.0-312.0-0.0","0","0","19763","","null","","","null","34","","","","","","","","","","","","","","","",""
"","ITI","","html-keyboard-response","227","313847","0.0-1.0-315.0","0","0","19763","","null","","","null","34","","","","","","","","","","","","","","","NaN",""
"","S1","","html-keyboard-response","228","314002","0.0-1.0-317.0","0","0","19763","","null","","","null","35","","","","","","","","","","","","","","","",""
"","ISI","","html-keyboard-response","229","316007","0.0-1.0-318.0","0","0","19763","","null","","","null","35","NaN","","","","","","","","","","","","","","",""
"","S2","","html-keyboard-response","230","316162","0.0-1.0-319.0","0","0","19763","","null","","","null","35","","NaN","","","","","","","","","","","","","",""
"","response","","html-keyboard-response","231","316327","0.0-1.0-320.0-0.0","0","0","19763","","161","","","75","35","","","1","35","training","adjacent","DE","4","5","R.jpg","L.jpg","1","1","1","",""
"","feedback","","html-keyboard-response","232","317332","0.0-1.0-321.0-0.0","0","0","19763","","null","","","null","35","","","","","","","","","","","","","","","",""
"","ITI","","html-keyboard-response","233","318337","0.0-1.0-324.0","0","0","19763","","null","","","null","35","","","","","","","","","","","","","","","NaN",""
"","S1","","html-keyboard-response","234","318491","0.0-1.0-326.0","0","0","19763","","null","","","null","36","","","","","","","","","","","","","","","",""
"","ISI","","html-keyboard-response","235","320495","0.0-1.0-327.0","0","0","19763","","null","","","null","36","NaN","","","","","","","","","","","","","","",""
"","S2","","html-keyboard-response","236","320650","0.0-1.0-328.0","0","0","19763","","null","","","null","36","","NaN","","","","","","","","","","","","","",""
"","response","","html-keyboard-response","237","320796","0.0-1.0-329.0-0.0","0","0","19763","","141","","","75","36","","","1","36","training","adjacent","BC","2","3","N.jpg","P.jpg","1","1","1","",""
"","feedback","","html-keyboard-response","238","321801","0.0-1.0-330.0-0.0","0","0","19763","","null","","","null","36","","","","","","","","","","","","","","","",""
"","ITI","","html-keyboard-response","239","322806","0.0-1.0-333.0","0","0","19763","","null","","","null","36","","","","","","","","","","","","","","","NaN",""
"","S1","","html-keyboard-response","240","322961","0.0-1.0-335.0","0","0","19763","","null","","","null","37","","","","","","","","","","","","","","","",""
"","ISI","","html-keyboard-response","241","324966","0.0-1.0-336.0","0","0","19763","","null","","","null","37","NaN","","","","","","","","","","","","","","",""
"","S2","","html-keyboard-response","242","325122","0.0-1.0-337.0","0","0","19763","","null","","","null","37","","NaN","","","","","","","","","","","","","",""
"","response","","html-keyboard-response","243","325301","0.0-1.0-338.0-0.0","0","0","19763","","175","","","75","37","","","1","37","training","adjacent","AB","1","2","M.jpg","N.jpg","1","1","1","",""
"","feedback","","html-keyboard-response","244","326308","0.0-1.0-339.0-0.0","0","0","19763","","null","","","null","37","","","","","","","","","","","","","","","",""
"","ITI","","html-keyboard-response","245","327313","0.0-1.0-342.0","0","0","19763","","null","","","null","37","","","","","","","","","","","","","","","NaN",""
"","S1","","html-keyboard-response","246","327468","0.0-1.0-344.0","0","0","19763","","null","","","null","38","","","","","","","","","","","","","","","",""
"","ISI","","html-keyboard-response","247","329473","0.0-1.0-345.0","0","0","19763","","null","","","null","38","NaN","","","","","","","","","","","","","","",""
"","S2","","html-keyboard-response","248","329628","0.0-1.0-346.0","0","0","19763","","null","","","null","38","","NaN","","","","","","","","","","","","","",""
"","response","","html-keyboard-response","249","329841","0.0-1.0-347.0-0.0","0","0","19763","","209","","","75","38","","","1","38","training","adjacent","FE","6","5","O.jpg","L.jpg","1","0","0","",""
"","feedback","","html-keyboard-response","250","330846","0.0-1.0-348.0-0.0","0","0","19763","","null","","","null","38","","","","","","","","","","","","","","","",""
"","time_out","","html-keyboard-response","251","332851","0.0-1.0-350.0-0.0","0","0","19763","","null","","","null","38","","","","","","","","","","","","","","","",""
"","ITI","","html-keyboard-response","252","333856","0.0-1.0-351.0","0","0","19763","","null","","","null","38","","","","","","","","","","","","","","","NaN",""
"","S1","","html-keyboard-response","253","334011","0.0-1.0-353.0","0","0","19763","","null","","","null","39","","","","","","","","","","","","","","","",""
"","ISI","","html-keyboard-response","254","336016","0.0-1.0-354.0","0","0","19763","","null","","","null","39","NaN","","","","","","","","","","","","","","",""
"","S2","","html-keyboard-response","255","336172","0.0-1.0-355.0","0","0","19763","","null","","","null","39","","NaN","","","","","","","","","","","","","",""
"","response","","html-keyboard-response","256","336389","0.0-1.0-356.0-0.0","0","0","19763","","213","","","68","39","","","1","39","training","adjacent","BA","2","1","N.jpg","M.jpg","0","0","1","",""
"","feedback","","html-keyboard-response","257","337395","0.0-1.0-357.0-0.0","0","0","19763","","null","","","null","39","","","","","","","","","","","","","","","",""
"","ITI","","html-keyboard-response","258","338399","0.0-1.0-360.0","0","0","19763","","null","","","null","39","","","","","","","","","","","","","","","NaN",""
"","S1","","html-keyboard-response","259","338555","0.0-1.0-362.0","0","0","19763","","null","","","null","40","","","","","","","","","","","","","","","",""
"","ISI","","html-keyboard-response","260","340559","0.0-1.0-363.0","0","0","19763","","null","","","null","40","NaN","","","","","","","","","","","","","","",""
"","S2","","html-keyboard-response","261","340714","0.0-1.0-364.0","0","0","19763","","null","","","null","40","","NaN","","","","","","","","","","","","","",""
"","response","","html-keyboard-response","262","341051","0.0-1.0-365.0-0.0","0","0","19763","","332","","","75","40","","","1","40","training","adjacent","GF","7","6","Q.jpg","O.jpg","1","0","0","",""
"","feedback","","html-keyboard-response","263","342057","0.0-1.0-366.0-0.0","0","0","19763","","null","","","null","40","","","","","","","","","","","","","","","",""
"","time_out","","html-keyboard-response","264","344062","0.0-1.0-368.0-0.0","0","0","19763","","null","","","null","40","","","","","","","","","","","","","","","",""
"","ITI","","html-keyboard-response","265","345067","0.0-1.0-369.0","0","0","19763","","null","","","null","40","","","","","","","","","","","","","","","NaN",""
"","S1","","html-keyboard-response","266","345222","0.0-1.0-371.0","0","0","19763","","null","","","null","41","","","","","","","","","","","","","","","",""
"","ISI","","html-keyboard-response","267","347227","0.0-1.0-372.0","0","0","19763","","null","","","null","41","NaN","","","","","","","","","","","","","","",""
"","S2","","html-keyboard-response","268","347382","0.0-1.0-373.0","0","0","19763","","null","","","null","41","","NaN","","","","","","","","","","","","","",""
"","response","","html-keyboard-response","269","347699","0.0-1.0-374.0-0.0","0","0","19763","","313","","","75","41","","","1","41","training","adjacent","CD","3","4","P.jpg","R.jpg","1","1","1","",""
"","feedback","","html-keyboard-response","270","348705","0.0-1.0-375.0-0.0","0","0","19763","","null","","","null","41","","","","","","","","","","","","","","","",""
"","ITI","","html-keyboard-response","271","349710","0.0-1.0-378.0","0","0","19763","","null","","","null","41","","","","","","","","","","","","","","","NaN",""
"","S1","","html-keyboard-response","272","349865","0.0-1.0-380.0","0","0","19763","","null","","","null","42","","","","","","","","","","","","","","","",""
"","ISI","","html-keyboard-response","273","351869","0.0-1.0-381.0","0","0","19763","","null","","","null","42","NaN","","","","","","","","","","","","","","",""
"","S2","","html-keyboard-response","274","352025","0.0-1.0-382.0","0","0","19763","","null","","","null","42","","NaN","","","","","","","","","","","","","",""
"","response","","html-keyboard-response","275","352323","0.0-1.0-383.0-0.0","0","0","19763","","294","","","68","42","","","1","42","training","adjacent","AB","1","2","M.jpg","N.jpg","0","1","0","",""
"","feedback","","html-keyboard-response","276","353328","0.0-1.0-384.0-0.0","0","0","19763","","null","","","null","42","","","","","","","","","","","","","","","",""
"","time_out","","html-keyboard-response","277","355333","0.0-1.0-386.0-0.0","0","0","19763","","null","","","null","42","","","","","","","","","","","","","","","",""
"","ITI","","html-keyboard-response","278","356338","0.0-1.0-387.0","0","0","19763","","null","","","null","42","","","","","","","","","","","","","","","NaN",""
"","S1","","html-keyboard-response","279","356493","0.0-1.0-389.0","0","0","19763","","null","","","null","43","","","","","","","","","","","","","","","",""
"","ISI","","html-keyboard-response","280","358497","0.0-1.0-390.0","0","0","19763","","null","","","null","43","NaN","","","","","","","","","","","","","","",""
"","S2","","html-keyboard-response","281","358652","0.0-1.0-391.0","0","0","19763","","null","","","null","43","","NaN","","","","","","","","","","","","","",""
"","response","","html-keyboard-response","282","359117","0.0-1.0-392.0-0.0","0","0","19763","","460","","","68","43","","","1","43","training","adjacent","FE","6","5","O.jpg","L.jpg","0","0","1","",""
"","feedback","","html-keyboard-response","283","360124","0.0-1.0-393.0-0.0","0","0","19763","","null","","","null","43","","","","","","","","","","","","","","","",""
"","ITI","","html-keyboard-response","284","361129","0.0-1.0-396.0","0","0","19763","","null","","","null","43","","","","","","","","","","","","","","","NaN",""
"","S1","","html-keyboard-response","285","361284","0.0-1.0-398.0","0","0","19763","","null","","","null","44","","","","","","","","","","","","","","","",""
"","ISI","","html-keyboard-response","286","363288","0.0-1.0-399.0","0","0","19763","","null","","","null","44","NaN","","","","","","","","","","","","","","",""
"","S2","","html-keyboard-response","287","363443","0.0-1.0-400.0","0","0","19763","","null","","","null","44","","NaN","","","","","","","","","","","","","",""
"","response","","html-keyboard-response","288","363975","0.0-1.0-401.0-0.0","0","0","19763","","529","","","75","44","","","1","44","training","adjacent","ED","5","4","L.jpg","R.jpg","1","0","0","",""
"","feedback","","html-keyboard-response","289","364980","0.0-1.0-402.0-0.0","0","0","19763","","null","","","null","44","","","","","","","","","","","","","","","",""
"","time_out","","html-keyboard-response","290","366986","0.0-1.0-404.0-0.0","0","0","19763","","null","","","null","44","","","","","","","","","","","","","","","",""
"","ITI","","html-keyboard-response","291","367991","0.0-1.0-405.0","0","0","19763","","null","","","null","44","","","","","","","","","","","","","","","NaN",""
"","S1","","html-keyboard-response","292","368146","0.0-1.0-407.0","0","0","19763","","null","","","null","45","","","","","","","","","","","","","","","",""
"","ISI","","html-keyboard-response","293","370150","0.0-1.0-408.0","0","0","19763","","null","","","null","45","NaN","","","","","","","","","","","","","","",""
"","S2","","html-keyboard-response","294","370306","0.0-1.0-409.0","0","0","19763","","null","","","null","45","","NaN","","","","","","","","","","","","","",""
"","response","","html-keyboard-response","295","370505","0.0-1.0-410.0-0.0","0","0","19763","","195","","","75","45","","","1","45","training","adjacent","BA","2","1","N.jpg","M.jpg","1","0","0","",""
"","feedback","","html-keyboard-response","296","371511","0.0-1.0-411.0-0.0","0","0","19763","","null","","","null","45","","","","","","","","","","","","","","","",""
"","time_out","","html-keyboard-response","297","373517","0.0-1.0-413.0-0.0","0","0","19763","","null","","","null","45","","","","","","","","","","","","","","","",""
"","ITI","","html-keyboard-response","298","374522","0.0-1.0-414.0","0","0","19763","","null","","","null","45","","","","","","","","","","","","","","","NaN",""
"","S1","","html-keyboard-response","299","374677","0.0-1.0-416.0","0","0","19763","","null","","","null","46","","","","","","","","","","","","","","","",""
"","ISI","","html-keyboard-response","300","376683","0.0-1.0-417.0","0","0","19763","","null","","","null","46","NaN","","","","","","","","","","","","","","",""
"","S2","","html-keyboard-response","301","376838","0.0-1.0-418.0","0","0","19763","","null","","","null","46","","NaN","","","","","","","","","","","","","",""
"","response","","html-keyboard-response","302","377054","0.0-1.0-419.0-0.0","0","0","19763","","212","","","75","46","","","1","46","training","adjacent","EF","5","6","L.jpg","O.jpg","1","1","1","",""
"","feedback","","html-keyboard-response","303","378059","0.0-1.0-420.0-0.0","0","0","19763","","null","","","null","46","","","","","","","","","","","","","","","",""
"","ITI","","html-keyboard-response","304","379065","0.0-1.0-423.0","0","0","19763","","null","","","null","46","","","","","","","","","","","","","","","NaN",""
"","S1","","html-keyboard-response","305","379219","0.0-1.0-425.0","0","0","19763","","null","","","null","47","","","","","","","","","","","","","","","",""
"","ISI","","html-keyboard-response","306","381224","0.0-1.0-426.0","0","0","19763","","null","","","null","47","NaN","","","","","","","","","","","","","","",""
"","S2","","html-keyboard-response","307","381379","0.0-1.0-427.0","0","0","19763","","null","","","null","47","","NaN","","","","","","","","","","","","","",""
"","response","","html-keyboard-response","308","381791","0.0-1.0-428.0-0.0","0","0","19763","","408","","","68","47","","","1","47","training","adjacent","CB","3","2","P.jpg","N.jpg","0","0","1","",""
"","feedback","","html-keyboard-response","309","382797","0.0-1.0-429.0-0.0","0","0","19763","","null","","","null","47","","","","","","","","","","","","","","","",""
"","ITI","","html-keyboard-response","310","383802","0.0-1.0-432.0","0","0","19763","","null","","","null","47","","","","","","","","","","","","","","","NaN",""
"","block_over","","html-keyboard-response","311","414403","0.0-1.0-433.0-0.0","0","0","19763","","30595","","","32","47","","","","","","","","","","","","","","","",""
"","S1","","html-keyboard-response","312","414558","0.0-1.0-434.0","0","0","19763","","null","","","null","48","","","","","","","","","","","","","","","",""
"","ISI","","html-keyboard-response","313","416563","0.0-1.0-435.0","0","0","19763","","null","","","null","48","NaN","","","","","","","","","","","","","","",""
"","S2","","html-keyboard-response","314","416719","0.0-1.0-436.0","0","0","19763","","null","","","null","48","","NaN","","","","","","","","","","","","","",""
"","response","","html-keyboard-response","315","416899","0.0-1.0-437.0-0.0","0","0","19763","","176","","","75","48","","","2","48","training","adjacent","BA","2","1","N.jpg","M.jpg","1","0","0","",""
"","feedback","","html-keyboard-response","316","417904","0.0-1.0-438.0-0.0","0","0","19763","","null","","","null","48","","","","","","","","","","","","","","","",""
"","time_out","","html-keyboard-response","317","419908","0.0-1.0-440.0-0.0","0","0","19763","","null","","","null","48","","","","","","","","","","","","","","","",""
"","ITI","","html-keyboard-response","318","420913","0.0-1.0-441.0","0","0","19763","","null","","","null","48","","","","","","","","","","","","","","","NaN",""
"","S1","","html-keyboard-response","319","421068","0.0-1.0-443.0","0","0","19763","","null","","","null","49","","","","","","","","","","","","","","","",""
"","ISI","","html-keyboard-response","320","423073","0.0-1.0-444.0","0","0","19763","","null","","","null","49","NaN","","","","","","","","","","","","","","",""
"","S2","","html-keyboard-response","321","423228","0.0-1.0-445.0","0","0","19763","","null","","","null","49","","NaN","","","","","","","","","","","","","",""
"","response","","html-keyboard-response","322","423377","0.0-1.0-446.0-0.0","0","0","19763","","144","","","75","49","","","2","49","training","adjacent","FG","6","7","O.jpg","Q.jpg","1","1","1","",""
"","feedback","","html-keyboard-response","323","424382","0.0-1.0-447.0-0.0","0","0","19763","","null","","","null","49","","","","","","","","","","","","","","","",""
"","ITI","","html-keyboard-response","324","425387","0.0-1.0-450.0","0","0","19763","","null","","","null","49","","","","","","","","","","","","","","","NaN",""
"","S1","","html-keyboard-response","325","425541","0.0-1.0-452.0","0","0","19763","","null","","","null","50","","","","","","","","","","","","","","","",""
"","ISI","","html-keyboard-response","326","427546","0.0-1.0-453.0","0","0","19763","","null","","","null","50","NaN","","","","","","","","","","","","","","",""
"","S2","","html-keyboard-response","327","427701","0.0-1.0-454.0","0","0","19763","","null","","","null","50","","NaN","","","","","","","","","","","","","",""
"","response","","html-keyboard-response","328","428246","0.0-1.0-455.0-0.0","0","0","19763","","541","","","68","50","","","2","50","training","adjacent","EF","5","6","L.jpg","O.jpg","0","1","0","",""
"","feedback","","html-keyboard-response","329","429250","0.0-1.0-456.0-0.0","0","0","19763","","null","","","null","50","","","","","","","","","","","","","","","",""
"","time_out","","html-keyboard-response","330","431255","0.0-1.0-458.0-0.0","0","0","19763","","null","","","null","50","","","","","","","","","","","","","","","",""
"","ITI","","html-keyboard-response","331","432259","0.0-1.0-459.0","0","0","19763","","null","","","null","50","","","","","","","","","","","","","","","NaN",""
"","S1","","html-keyboard-response","332","432414","0.0-1.0-461.0","0","0","19763","","null","","","null","51","","","","","","","","","","","","","","","",""
"","ISI","","html-keyboard-response","333","434419","0.0-1.0-462.0","0","0","19763","","247","","","75","51","k","","","","","","","","","","","","","","",""
"","S2","","html-keyboard-response","334","434574","0.0-1.0-463.0","0","0","19763","","null","","","null","51","","NaN","","","","","","","","","","","","","",""
"","response","","html-keyboard-response","335","434700","0.0-1.0-464.0-0.0","0","0","19763","","122","","","75","51","","","2","51","training","adjacent","DE","4","5","R.jpg","L.jpg","1","1","1","",""
"","feedback","","html-keyboard-response","336","435706","0.0-1.0-465.0-0.0","0","0","19763","","null","","","null","51","","","","","","","","","","","","","","","",""
"","ITI","","html-keyboard-response","337","436710","0.0-1.0-468.0","0","0","19763","","null","","","null","51","","","","","","","","","","","","","","","NaN",""
"","S1","","html-keyboard-response","338","436866","0.0-1.0-470.0","0","0","19763","","null","","","null","52","","","","","","","","","","","","","","","",""
"","ISI","","html-keyboard-response","339","438870","0.0-1.0-471.0","0","0","19763","","null","","","null","52","NaN","","","","","","","","","","","","","","",""
"","S2","","html-keyboard-response","340","439026","0.0-1.0-472.0","0","0","19763","","null","","","null","52","","NaN","","","","","","","","","","","","","",""
"","response","","html-keyboard-response","341","439247","0.0-1.0-473.0-0.0","0","0","19763","","217","","","68","52","","","2","52","training","adjacent","CD","3","4","P.jpg","R.jpg","0","1","0","",""
"","feedback","","html-keyboard-response","342","440252","0.0-1.0-474.0-0.0","0","0","19763","","null","","","null","52","","","","","","","","","","","","","","","",""
"","time_out","","html-keyboard-response","343","442257","0.0-1.0-476.0-0.0","0","0","19763","","null","","","null","52","","","","","","","","","","","","","","","",""
"","ITI","","html-keyboard-response","344","443262","0.0-1.0-477.0","0","0","19763","","null","","","null","52","","","","","","","","","","","","","","","NaN",""
"","S1","","html-keyboard-response","345","443418","0.0-1.0-479.0","0","0","19763","","null","","","null","53","","","","","","","","","","","","","","","",""
"","ISI","","html-keyboard-response","346","445423","0.0-1.0-480.0","0","0","19763","","null","","","null","53","NaN","","","","","","","","","","","","","","",""
"","S2","","html-keyboard-response","347","445577","0.0-1.0-481.0","0","0","19763","","null","","","null","53","","NaN","","","","","","","","","","","","","",""
"","response","","html-keyboard-response","348","445722","0.0-1.0-482.0-0.0","0","0","19763","","140","","","75","53","","","2","53","training","adjacent","BC","2","3","N.jpg","P.jpg","1","1","1","",""
"","feedback","","html-keyboard-response","349","446727","0.0-1.0-483.0-0.0","0","0","19763","","null","","","null","53","","","","","","","","","","","","","","","",""
"","ITI","","html-keyboard-response","350","447732","0.0-1.0-486.0","0","0","19763","","null","","","null","53","","","","","","","","","","","","","","","NaN",""
"","S1","","html-keyboard-response","351","447887","0.0-1.0-488.0","0","0","19763","","null","","","null","54","","","","","","","","","","","","","","","",""
"","ISI","","html-keyboard-response","352","449891","0.0-1.0-489.0","0","0","19763","","null","","","null","54","NaN","","","","","","","","","","","","","","",""
"","S2","","html-keyboard-response","353","450046","0.0-1.0-490.0","0","0","19763","","null","","","null","54","","NaN","","","","","","","","","","","","","",""
"","response","","html-keyboard-response","354","450330","0.0-1.0-491.0-0.0","0","0","19763","","279","","","75","54","","","2","54","training","adjacent","ED","5","4","L.jpg","R.jpg","1","0","0","",""
"","feedback","","html-keyboard-response","355","451336","0.0-1.0-492.0-0.0","0","0","19763","","null","","","null","54","","","","","","","","","","","","","","","",""
"","time_out","","html-keyboard-response","356","453341","0.0-1.0-494.0-0.0","0","0","19763","","null","","","null","54","","","","","","","","","","","","","","","",""
"","ITI","","html-keyboard-response","357","454346","0.0-1.0-495.0","0","0","19763","","null","","","null","54","","","","","","","","","","","","","","","NaN",""
"","S1","","html-keyboard-response","358","454501","0.0-1.0-497.0","0","0","19763","","null","","","null","55","","","","","","","","","","","","","","","",""
"","ISI","","html-keyboard-response","359","456505","0.0-1.0-498.0","0","0","19763","","154","","","68","55","d","","","","","","","","","","","","","","",""
"","S2","","html-keyboard-response","360","456661","0.0-1.0-499.0","0","0","19763","","null","","","null","55","","NaN","","","","","","","","","","","","","",""
"","response","","html-keyboard-response","361","456783","0.0-1.0-500.0-0.0","0","0","19763","","118","","","68","55","","","2","55","training","adjacent","BC","2","3","N.jpg","P.jpg","0","1","0","",""
"","feedback","","html-keyboard-response","362","457789","0.0-1.0-501.0-0.0","0","0","19763","","null","","","null","55","","","","","","","","","","","","","","","",""
"","time_out","","html-keyboard-response","363","459794","0.0-1.0-503.0-0.0","0","0","19763","","null","","","null","55","","","","","","","","","","","","","","","",""
"","ITI","","html-keyboard-response","364","460798","0.0-1.0-504.0","0","0","19763","","null","","","null","55","","","","","","","","","","","","","","","NaN",""
"","S1","","html-keyboard-response","365","460954","0.0-1.0-506.0","0","0","19763","","null","","","null","56","","","","","","","","","","","","","","","",""
"","ISI","","html-keyboard-response","366","462958","0.0-1.0-507.0","0","0","19763","","556","","","75","56","k","","","","","","","","","","","","","","",""
"","S2","","html-keyboard-response","367","463114","0.0-1.0-508.0","0","0","19763","","null","","","null","56","","NaN","","","","","","","","","","","","","",""
"","response","","html-keyboard-response","368","463391","0.0-1.0-509.0-0.0","0","0","19763","","273","","","75","56","","","2","56","training","adjacent","GF","7","6","Q.jpg","O.jpg","1","0","0","",""
"","feedback","","html-keyboard-response","369","464397","0.0-1.0-510.0-0.0","0","0","19763","","null","","","null","56","","","","","","","","","","","","","","","",""
"","time_out","","html-keyboard-response","370","466401","0.0-1.0-512.0-0.0","0","0","19763","","null","","","null","56","","","","","","","","","","","","","","","",""
"","ITI","","html-keyboard-response","371","467407","0.0-1.0-513.0","0","0","19763","","null","","","null","56","","","","","","","","","","","","","","","NaN",""
"","S1","","html-keyboard-response","372","467562","0.0-1.0-515.0","0","0","19763","","null","","","null","57","","","","","","","","","","","","","","","",""
"","ISI","","html-keyboard-response","373","469566","0.0-1.0-516.0","0","0","19763","","null","","","null","57","NaN","","","","","","","","","","","","","","",""
"","S2","","html-keyboard-response","374","469722","0.0-1.0-517.0","0","0","19763","","null","","","null","57","","NaN","","","","","","","","","","","","","",""
"","response","","html-keyboard-response","375","470209","0.0-1.0-518.0-0.0","0","0","19763","","483","","","68","57","","","2","57","training","adjacent","GF","7","6","Q.jpg","O.jpg","0","0","1","",""
"","feedback","","html-keyboard-response","376","471215","0.0-1.0-519.0-0.0","0","0","19763","","null","","","null","57","","","","","","","","","","","","","","","",""
"","ITI","","html-keyboard-response","377","472220","0.0-1.0-522.0","0","0","19763","","null","","","null","57","","","","","","","","","","","","","","","NaN",""
"","S1","","html-keyboard-response","378","472375","0.0-1.0-524.0","0","0","19763","","null","","","null","58","","","","","","","","","","","","","","","",""
"","ISI","","html-keyboard-response","379","474379","0.0-1.0-525.0","0","0","19763","","null","","","null","58","NaN","","","","","","","","","","","","","","",""
"","S2","","html-keyboard-response","380","474534","0.0-1.0-526.0","0","0","19763","","null","","","null","58","","NaN","","","","","","","","","","","","","",""
"","response","","html-keyboard-response","381","475144","0.0-1.0-527.0-0.0","0","0","19763","","605","","","75","58","","","2","58","training","adjacent","ED","5","4","L.jpg","R.jpg","1","0","0","",""
"","feedback","","html-keyboard-response","382","476149","0.0-1.0-528.0-0.0","0","0","19763","","null","","","null","58","","","","","","","","","","","","","","","",""
"","time_out","","html-keyboard-response","383","478155","0.0-1.0-530.0-0.0","0","0","19763","","null","","","null","58","","","","","","","","","","","","","","","",""
"","ITI","","html-keyboard-response","384","479159","0.0-1.0-531.0","0","0","19763","","null","","","null","58","","","","","","","","","","","","","","","NaN",""
"","S1","","html-keyboard-response","385","479314","0.0-1.0-533.0","0","0","19763","","null","","","null","59","","","","","","","","","","","","","","","",""
"","ISI","","html-keyboard-response","386","481319","0.0-1.0-534.0","0","0","19763","","null","","","null","59","NaN","","","","","","","","","","","","","","",""
"","S2","","html-keyboard-response","387","481474","0.0-1.0-535.0","0","0","19763","","null","","","null","59","","NaN","","","","","","","","","","","","","",""
"","response","","html-keyboard-response","388","482035","0.0-1.0-536.0-0.0","0","0","19763","","556","","","75","59","","","2","59","training","adjacent","CD","3","4","P.jpg","R.jpg","1","1","1","",""
"","feedback","","html-keyboard-response","389","483041","0.0-1.0-537.0-0.0","0","0","19763","","null","","","null","59","","","","","","","","","","","","","","","",""
"","ITI","","html-keyboard-response","390","484046","0.0-1.0-540.0","0","0","19763","","null","","","null","59","","","","","","","","","","","","","","","NaN",""
"","S1","","html-keyboard-response","391","484201","0.0-1.0-542.0","0","0","19763","","null","","","null","60","","","","","","","","","","","","","","","",""
"","ISI","","html-keyboard-response","392","486205","0.0-1.0-543.0","0","0","19763","","null","","","null","60","NaN","","","","","","","","","","","","","","",""
"","S2","","html-keyboard-response","393","486360","0.0-1.0-544.0","0","0","19763","","null","","","null","60","","NaN","","","","","","","","","","","","","",""
"","response","","html-keyboard-response","394","486946","0.0-1.0-545.0-0.0","0","0","19763","","582","","","68","60","","","2","60","training","adjacent","DC","4","3","R.jpg","P.jpg","0","0","1","",""
"","feedback","","html-keyboard-response","395","487952","0.0-1.0-546.0-0.0","0","0","19763","","null","","","null","60","","","","","","","","","","","","","","","",""
"","ITI","","html-keyboard-response","396","488957","0.0-1.0-549.0","0","0","19763","","null","","","null","60","","","","","","","","","","","","","","","NaN",""
"","S1","","html-keyboard-response","397","489113","0.0-1.0-551.0","0","0","19763","","null","","","null","61","","","","","","","","","","","","","","","",""
"","ISI","","html-keyboard-response","398","491118","0.0-1.0-552.0","0","0","19763","","null","","","null","61","NaN","","","","","","","","","","","","","","",""
"","S2","","html-keyboard-response","399","491273","0.0-1.0-553.0","0","0","19763","","null","","","null","61","","NaN","","","","","","","","","","","","","",""
"","response","","html-keyboard-response","400","491848","0.0-1.0-554.0-0.0","0","0","19763","","572","","","75","61","","","2","61","training","adjacent","AB","1","2","M.jpg","N.jpg","1","1","1","",""
"","feedback","","html-keyboard-response","401","492853","0.0-1.0-555.0-0.0","0","0","19763","","null","","","null","61","","","","","","","","","","","","","","","",""
"","ITI","","html-keyboard-response","402","493859","0.0-1.0-558.0","0","0","19763","","null","","","null","61","","","","","","","","","","","","","","","NaN",""
"","S1","","html-keyboard-response","403","494015","0.0-1.0-560.0","0","0","19763","","null","","","null","62","","","","","","","","","","","","","","","",""
"","ISI","","html-keyboard-response","404","496019","0.0-1.0-561.0","0","0","19763","","null","","","null","62","NaN","","","","","","","","","","","","","","",""
"","S2","","html-keyboard-response","405","496175","0.0-1.0-562.0","0","0","19763","","null","","","null","62","","NaN","","","","","","","","","","","","","",""
"","response","","html-keyboard-response","406","496689","0.0-1.0-563.0-0.0","0","0","19763","","510","","","68","62","","","2","62","training","adjacent","CB","3","2","P.jpg","N.jpg","0","0","1","",""
"","feedback","","html-keyboard-response","407","497696","0.0-1.0-564.0-0.0","0","0","19763","","null","","","null","62","","","","","","","","","","","","","","","",""
"","ITI","","html-keyboard-response","408","498700","0.0-1.0-567.0","0","0","19763","","null","","","null","62","","","","","","","","","","","","","","","NaN",""
"","S1","","html-keyboard-response","409","498855","0.0-1.0-569.0","0","0","19763","","null","","","null","63","","","","","","","","","","","","","","","",""
"","ISI","","html-keyboard-response","410","500860","0.0-1.0-570.0","0","0","19763","","null","","","null","63","NaN","","","","","","","","","","","","","","",""
"","S2","","html-keyboard-response","411","501016","0.0-1.0-571.0","0","0","19763","","null","","","null","63","","NaN","","","","","","","","","","","","","",""
"","response","","html-keyboard-response","412","501169","0.0-1.0-572.0-0.0","0","0","19763","","149","","","75","63","","","2","63","training","adjacent","BA","2","1","N.jpg","M.jpg","1","0","0","",""
"","feedback","","html-keyboard-response","413","502175","0.0-1.0-573.0-0.0","0","0","19763","","null","","","null","63","","","","","","","","","","","","","","","",""
"","time_out","","html-keyboard-response","414","504180","0.0-1.0-575.0-0.0","0","0","19763","","null","","","null","63","","","","","","","","","","","","","","","",""
"","ITI","","html-keyboard-response","415","505185","0.0-1.0-576.0","0","0","19763","","null","","","null","63","","","","","","","","","","","","","","","NaN",""
"","S1","","html-keyboard-response","416","505340","0.0-1.0-578.0","0","0","19763","","null","","","null","64","","","","","","","","","","","","","","","",""
"","ISI","","html-keyboard-response","417","507344","0.0-1.0-579.0","0","0","19763","","null","","","null","64","NaN","","","","","","","","","","","","","","",""
"","S2","","html-keyboard-response","418","507500","0.0-1.0-580.0","0","0","19763","","null","","","null","64","","NaN","","","","","","","","","","","","","",""
"","response","","html-keyboard-response","419","507929","0.0-1.0-581.0-0.0","0","0","19763","","425","","","68","64","","","2","64","training","adjacent","BC","2","3","N.jpg","P.jpg","0","1","0","",""
"","feedback","","html-keyboard-response","420","508935","0.0-1.0-582.0-0.0","0","0","19763","","null","","","null","64","","","","","","","","","","","","","","","",""
"","time_out","","html-keyboard-response","421","510940","0.0-1.0-584.0-0.0","0","0","19763","","null","","","null","64","","","","","","","","","","","","","","","",""
"","ITI","","html-keyboard-response","422","511945","0.0-1.0-585.0","0","0","19763","","null","","","null","64","","","","","","","","","","","","","","","NaN",""
"","S1","","html-keyboard-response","423","512100","0.0-1.0-587.0","0","0","19763","","null","","","null","65","","","","","","","","","","","","","","","",""
"","ISI","","html-keyboard-response","424","514105","0.0-1.0-588.0","0","0","19763","","null","","","null","65","NaN","","","","","","","","","","","","","","",""
"","S2","","html-keyboard-response","425","514261","0.0-1.0-589.0","0","0","19763","","null","","","null","65","","NaN","","","","","","","","","","","","","",""
"","response","","html-keyboard-response","426","514410","0.0-1.0-590.0-0.0","0","0","19763","","145","","","75","65","","","2","65","training","adjacent","CD","3","4","P.jpg","R.jpg","1","1","1","",""
"","feedback","","html-keyboard-response","427","515416","0.0-1.0-591.0-0.0","0","0","19763","","null","","","null","65","","","","","","","","","","","","","","","",""
"","ITI","","html-keyboard-response","428","516421","0.0-1.0-594.0","0","0","19763","","null","","","null","65","","","","","","","","","","","","","","","NaN",""
"","S1","","html-keyboard-response","429","516577","0.0-1.0-596.0","0","0","19763","","null","","","null","66","","","","","","","","","","","","","","","",""
"","ISI","","html-keyboard-response","430","518583","0.0-1.0-597.0","0","0","19763","","null","","","null","66","NaN","","","","","","","","","","","","","","",""
"","S2","","html-keyboard-response","431","518738","0.0-1.0-598.0","0","0","19763","","null","","","null","66","","NaN","","","","","","","","","","","","","",""
"","response","","html-keyboard-response","432","519098","0.0-1.0-599.0-0.0","0","0","19763","","357","","","68","66","","","2","66","training","adjacent","GF","7","6","Q.jpg","O.jpg","0","0","1","",""
"","feedback","","html-keyboard-response","433","520104","0.0-1.0-600.0-0.0","0","0","19763","","null","","","null","66","","","","","","","","","","","","","","","",""
"","ITI","","html-keyboard-response","434","521109","0.0-1.0-603.0","0","0","19763","","null","","","null","66","","","","","","","","","","","","","","","NaN",""
"","S1","","html-keyboard-response","435","521264","0.0-1.0-605.0","0","0","19763","","null","","","null","67","","","","","","","","","","","","","","","",""
"","ISI","","html-keyboard-response","436","523269","0.0-1.0-606.0","0","0","19763","","null","","","null","67","NaN","","","","","","","","","","","","","","",""
"","S2","","html-keyboard-response","437","523425","0.0-1.0-607.0","0","0","19763","","null","","","null","67","","NaN","","","","","","","","","","","","","",""
"","response","","html-keyboard-response","438","523697","0.0-1.0-608.0-0.0","0","0","19763","","268","","","75","67","","","2","67","training","adjacent","CD","3","4","P.jpg","R.jpg","1","1","1","",""
"","feedback","","html-keyboard-response","439","524702","0.0-1.0-609.0-0.0","0","0","19763","","null","","","null","67","","","","","","","","","","","","","","","",""
"","ITI","","html-keyboard-response","440","525707","0.0-1.0-612.0","0","0","19763","","null","","","null","67","","","","","","","","","","","","","","","NaN",""
"","S1","","html-keyboard-response","441","525862","0.0-1.0-614.0","0","0","19763","","null","","","null","68","","","","","","","","","","","","","","","",""
"","ISI","","html-keyboard-response","442","527867","0.0-1.0-615.0","0","0","19763","","null","","","null","68","NaN","","","","","","","","","","","","","","",""
"","S2","","html-keyboard-response","443","528022","0.0-1.0-616.0","0","0","19763","","null","","","null","68","","NaN","","","","","","","","","","","","","",""
"","response","","html-keyboard-response","444","528329","0.0-1.0-617.0-0.0","0","0","19763","","302","","","75","68","","","2","68","training","adjacent","ED","5","4","L.jpg","R.jpg","1","0","0","",""
"","feedback","","html-keyboard-response","445","529336","0.0-1.0-618.0-0.0","0","0","19763","","null","","","null","68","","","","","","","","","","","","","","","",""
"","time_out","","html-keyboard-response","446","531341","0.0-1.0-620.0-0.0","0","0","19763","","null","","","null","68","","","","","","","","","","","","","","","",""
"","ITI","","html-keyboard-response","447","532346","0.0-1.0-621.0","0","0","19763","","null","","","null","68","","","","","","","","","","","","","","","NaN",""
"","S1","","html-keyboard-response","448","532501","0.0-1.0-623.0","0","0","19763","","null","","","null","69","","","","","","","","","","","","","","","",""
"","ISI","","html-keyboard-response","449","534507","0.0-1.0-624.0","0","0","19763","","null","","","null","69","NaN","","","","","","","","","","","","","","",""
"","S2","","html-keyboard-response","450","534662","0.0-1.0-625.0","0","0","19763","","null","","","null","69","","NaN","","","","","","","","","","","","","",""
"","response","","html-keyboard-response","451","535121","0.0-1.0-626.0-0.0","0","0","19763","","455","","","68","69","","","2","69","training","adjacent","CB","3","2","P.jpg","N.jpg","0","0","1","",""
"","feedback","","html-keyboard-response","452","536128","0.0-1.0-627.0-0.0","0","0","19763","","null","","","null","69","","","","","","","","","","","","","","","",""
"","ITI","","html-keyboard-response","453","537133","0.0-1.0-630.0","0","0","19763","","null","","","null","69","","","","","","","","","","","","","","","NaN",""
"","S1","","html-keyboard-response","454","537288","0.0-1.0-632.0","0","0","19763","","null","","","null","70","","","","","","","","","","","","","","","",""
"","ISI","","html-keyboard-response","455","539292","0.0-1.0-633.0","0","0","19763","","null","","","null","70","NaN","","","","","","","","","","","","","","",""
"","S2","","html-keyboard-response","456","539448","0.0-1.0-634.0","0","0","19763","","null","","","null","70","","NaN","","","","","","","","","","","","","",""
"","response","","html-keyboard-response","457","539676","0.0-1.0-635.0-0.0","0","0","19763","","223","","","75","70","","","2","70","training","adjacent","DE","4","5","R.jpg","L.jpg","1","1","1","",""
"","feedback","","html-keyboard-response","458","540681","0.0-1.0-636.0-0.0","0","0","19763","","null","","","null","70","","","","","","","","","","","","","","","",""
"","ITI","","html-keyboard-response","459","541687","0.0-1.0-639.0","0","0","19763","","null","","","null","70","","","","","","","","","","","","","","","NaN",""
"","S1","","html-keyboard-response","460","541843","0.0-1.0-641.0","0","0","19763","","null","","","null","71","","","","","","","","","","","","","","","",""
"","ISI","","html-keyboard-response","461","543847","0.0-1.0-642.0","0","0","19763","","null","","","null","71","NaN","","","","","","","","","","","","","","",""
"","S2","","html-keyboard-response","462","544002","0.0-1.0-643.0","0","0","19763","","null","","","null","71","","NaN","","","","","","","","","","","","","",""
"","response","","html-keyboard-response","463","544331","0.0-1.0-644.0-0.0","0","0","19763","","325","","","75","71","","","2","71","training","adjacent","EF","5","6","L.jpg","O.jpg","1","1","1","",""
"","feedback","","html-keyboard-response","464","545337","0.0-1.0-645.0-0.0","0","0","19763","","null","","","null","71","","","","","","","","","","","","","","","",""
"","ITI","","html-keyboard-response","465","546341","0.0-1.0-648.0","0","0","19763","","null","","","null","71","","","","","","","","","","","","","","","NaN",""
"","S1","","html-keyboard-response","466","546496","0.0-1.0-650.0","0","0","19763","","null","","","null","72","","","","","","","","","","","","","","","",""
"","ISI","","html-keyboard-response","467","548500","0.0-1.0-651.0","0","0","19763","","null","","","null","72","NaN","","","","","","","","","","","","","","",""
"","S2","","html-keyboard-response","468","548656","0.0-1.0-652.0","0","0","19763","","null","","","null","72","","NaN","","","","","","","","","","","","","",""
"","response","","html-keyboard-response","469","548914","0.0-1.0-653.0-0.0","0","0","19763","","253","","","75","72","","","2","72","training","adjacent","FE","6","5","O.jpg","L.jpg","1","0","0","",""
"","feedback","","html-keyboard-response","470","549920","0.0-1.0-654.0-0.0","0","0","19763","","null","","","null","72","","","","","","","","","","","","","","","",""
"","time_out","","html-keyboard-response","471","551925","0.0-1.0-656.0-0.0","0","0","19763","","null","","","null","72","","","","","","","","","","","","","","","",""
"","ITI","","html-keyboard-response","472","552930","0.0-1.0-657.0","0","0","19763","","null","","","null","72","","","","","","","","","","","","","","","NaN",""
"","S1","","html-keyboard-response","473","553085","0.0-1.0-659.0","0","0","19763","","null","","","null","73","","","","","","","","","","","","","","","",""
"","ISI","","html-keyboard-response","474","555089","0.0-1.0-660.0","0","0","19763","","null","","","null","73","NaN","","","","","","","","","","","","","","",""
"","S2","","html-keyboard-response","475","555244","0.0-1.0-661.0","0","0","19763","","null","","","null","73","","NaN","","","","","","","","","","","","","",""
"","response","","html-keyboard-response","476","555605","0.0-1.0-662.0-0.0","0","0","19763","","357","","","75","73","","","2","73","training","adjacent","BC","2","3","N.jpg","P.jpg","1","1","1","",""
"","feedback","","html-keyboard-response","477","556610","0.0-1.0-663.0-0.0","0","0","19763","","null","","","null","73","","","","","","","","","","","","","","","",""
"","ITI","","html-keyboard-response","478","557616","0.0-1.0-666.0","0","0","19763","","null","","","null","73","","","","","","","","","","","","","","","NaN",""
"","S1","","html-keyboard-response","479","557771","0.0-1.0-668.0","0","0","19763","","null","","","null","74","","","","","","","","","","","","","","","",""
"","ISI","","html-keyboard-response","480","559775","0.0-1.0-669.0","0","0","19763","","null","","","null","74","NaN","","","","","","","","","","","","","","",""
"","S2","","html-keyboard-response","481","559930","0.0-1.0-670.0","0","0","19763","","null","","","null","74","","NaN","","","","","","","","","","","","","",""
"","response","","html-keyboard-response","482","560193","0.0-1.0-671.0-0.0","0","0","19763","","259","","","75","74","","","2","74","training","adjacent","FE","6","5","O.jpg","L.jpg","1","0","0","",""
"","feedback","","html-keyboard-response","483","561198","0.0-1.0-672.0-0.0","0","0","19763","","null","","","null","74","","","","","","","","","","","","","","","",""
"","time_out","","html-keyboard-response","484","563203","0.0-1.0-674.0-0.0","0","0","19763","","null","","","null","74","","","","","","","","","","","","","","","",""
"","ITI","","html-keyboard-response","485","564208","0.0-1.0-675.0","0","0","19763","","null","","","null","74","","","","","","","","","","","","","","","NaN",""
"","S1","","html-keyboard-response","486","564364","0.0-1.0-677.0","0","0","19763","","null","","","null","75","","","","","","","","","","","","","","","",""
"","ISI","","html-keyboard-response","487","566367","0.0-1.0-678.0","0","0","19763","","null","","","null","75","NaN","","","","","","","","","","","","","","",""
"","S2","","html-keyboard-response","488","566522","0.0-1.0-679.0","0","0","19763","","null","","","null","75","","NaN","","","","","","","","","","","","","",""
"","response","","html-keyboard-response","489","566715","0.0-1.0-680.0-0.0","0","0","19763","","188","","","68","75","","","2","75","training","adjacent","DE","4","5","R.jpg","L.jpg","0","1","0","",""
"","feedback","","html-keyboard-response","490","567719","0.0-1.0-681.0-0.0","0","0","19763","","null","","","null","75","","","","","","","","","","","","","","","",""
"","time_out","","html-keyboard-response","491","569724","0.0-1.0-683.0-0.0","0","0","19763","","null","","","null","75","","","","","","","","","","","","","","","",""
"","ITI","","html-keyboard-response","492","570729","0.0-1.0-684.0","0","0","19763","","null","","","null","75","","","","","","","","","","","","","","","NaN",""
"","S1","","html-keyboard-response","493","570884","0.0-1.0-686.0","0","0","19763","","null","","","null","76","","","","","","","","","","","","","","","",""
"","ISI","","html-keyboard-response","494","572889","0.0-1.0-687.0","0","0","19763","","null","","","null","76","NaN","","","","","","","","","","","","","","",""
"","S2","","html-keyboard-response","495","573045","0.0-1.0-688.0","0","0","19763","","null","","","null","76","","NaN","","","","","","","","","","","","","",""
"","response","","html-keyboard-response","496","573359","0.0-1.0-689.0-0.0","0","0","19763","","309","","","75","76","","","2","76","training","adjacent","DC","4","3","R.jpg","P.jpg","1","0","0","",""
"","feedback","","html-keyboard-response","497","574365","0.0-1.0-690.0-0.0","0","0","19763","","null","","","null","76","","","","","","","","","","","","","","","",""
"","time_out","","html-keyboard-response","498","576370","0.0-1.0-692.0-0.0","0","0","19763","","null","","","null","76","","","","","","","","","","","","","","","",""
"","ITI","","html-keyboard-response","499","577376","0.0-1.0-693.0","0","0","19763","","null","","","null","76","","","","","","","","","","","","","","","NaN",""
"","S1","","html-keyboard-response","500","577530","0.0-1.0-695.0","0","0","19763","","null","","","null","77","","","","","","","","","","","","","","","",""
"","ISI","","html-keyboard-response","501","579535","0.0-1.0-696.0","0","0","19763","","null","","","null","77","NaN","","","","","","","","","","","","","","",""
"","S2","","html-keyboard-response","502","579689","0.0-1.0-697.0","0","0","19763","","null","","","null","77","","NaN","","","","","","","","","","","","","",""
"","response","","html-keyboard-response","503","579873","0.0-1.0-698.0-0.0","0","0","19763","","178","","","68","77","","","2","77","training","adjacent","FE","6","5","O.jpg","L.jpg","0","0","1","",""
"","feedback","","html-keyboard-response","504","580878","0.0-1.0-699.0-0.0","0","0","19763","","null","","","null","77","","","","","","","","","","","","","","","",""
"","ITI","","html-keyboard-response","505","581884","0.0-1.0-702.0","0","0","19763","","null","","","null","77","","","","","","","","","","","","","","","NaN",""
"","S1","","html-keyboard-response","506","582038","0.0-1.0-704.0","0","0","19763","","null","","","null","78","","","","","","","","","","","","","","","",""
"","ISI","","html-keyboard-response","507","584042","0.0-1.0-705.0","0","0","19763","","null","","","null","78","NaN","","","","","","","","","","","","","","",""
"","S2","","html-keyboard-response","508","584197","0.0-1.0-706.0","0","0","19763","","null","","","null","78","","NaN","","","","","","","","","","","","","",""
"","response","","html-keyboard-response","509","584432","0.0-1.0-707.0-0.0","0","0","19763","","231","","","75","78","","","2","78","training","adjacent","FG","6","7","O.jpg","Q.jpg","1","1","1","",""
"","feedback","","html-keyboard-response","510","585437","0.0-1.0-708.0-0.0","0","0","19763","","null","","","null","78","","","","","","","","","","","","","","","",""
"","ITI","","html-keyboard-response","511","586442","0.0-1.0-711.0","0","0","19763","","null","","","null","78","","","","","","","","","","","","","","","NaN",""
"","S1","","html-keyboard-response","512","586598","0.0-1.0-713.0","0","0","19763","","null","","","null","79","","","","","","","","","","","","","","","",""
"","ISI","","html-keyboard-response","513","588603","0.0-1.0-714.0","0","0","19763","","null","","","null","79","NaN","","","","","","","","","","","","","","",""
"","S2","","html-keyboard-response","514","588758","0.0-1.0-715.0","0","0","19763","","null","","","null","79","","NaN","","","","","","","","","","","","","",""
"","response","","html-keyboard-response","515","588921","0.0-1.0-716.0-0.0","0","0","19763","","159","","","75","79","","","2","79","training","adjacent","FG","6","7","O.jpg","Q.jpg","1","1","1","",""
"","feedback","","html-keyboard-response","516","589927","0.0-1.0-717.0-0.0","0","0","19763","","null","","","null","79","","","","","","","","","","","","","","","",""
"","ITI","","html-keyboard-response","517","590932","0.0-1.0-720.0","0","0","19763","","null","","","null","79","","","","","","","","","","","","","","","NaN",""
"","S1","","html-keyboard-response","518","591088","0.0-1.0-722.0","0","0","19763","","null","","","null","80","","","","","","","","","","","","","","","",""
"","ISI","","html-keyboard-response","519","593092","0.0-1.0-723.0","0","0","19763","","null","","","null","80","NaN","","","","","","","","","","","","","","",""
"","S2","","html-keyboard-response","520","593248","0.0-1.0-724.0","0","0","19763","","null","","","null","80","","NaN","","","","","","","","","","","","","",""
"","response","","html-keyboard-response","521","593660","0.0-1.0-725.0-0.0","0","0","19763","","408","","","68","80","","","2","80","training","adjacent","DC","4","3","R.jpg","P.jpg","0","0","1","",""
"","feedback","","html-keyboard-response","522","594666","0.0-1.0-726.0-0.0","0","0","19763","","null","","","null","80","","","","","","","","","","","","","","","",""
"","ITI","","html-keyboard-response","523","595671","0.0-1.0-729.0","0","0","19763","","null","","","null","80","","","","","","","","","","","","","","","NaN",""
"","S1","","html-keyboard-response","524","595828","0.0-1.0-731.0","0","0","19763","","null","","","null","81","","","","","","","","","","","","","","","",""
"","ISI","","html-keyboard-response","525","597832","0.0-1.0-732.0","0","0","19763","","null","","","null","81","NaN","","","","","","","","","","","","","","",""
"","S2","","html-keyboard-response","526","597988","0.0-1.0-733.0","0","0","19763","","null","","","null","81","","NaN","","","","","","","","","","","","","",""
"","response","","html-keyboard-response","527","598436","0.0-1.0-734.0-0.0","0","0","19763","","443","","","68","81","","","2","81","training","adjacent","DC","4","3","R.jpg","P.jpg","0","0","1","",""
"","feedback","","html-keyboard-response","528","599442","0.0-1.0-735.0-0.0","0","0","19763","","null","","","null","81","","","","","","","","","","","","","","","",""
"","ITI","","html-keyboard-response","529","600446","0.0-1.0-738.0","0","0","19763","","null","","","null","81","","","","","","","","","","","","","","","NaN",""
"","S1","","html-keyboard-response","530","600601","0.0-1.0-740.0","0","0","19763","","null","","","null","82","","","","","","","","","","","","","","","",""
"","ISI","","html-keyboard-response","531","602606","0.0-1.0-741.0","0","0","19763","","null","","","null","82","NaN","","","","","","","","","","","","","","",""
"","S2","","html-keyboard-response","532","602761","0.0-1.0-742.0","0","0","19763","","null","","","null","82","","NaN","","","","","","","","","","","","","",""
"","response","","html-keyboard-response","533","603425","0.0-1.0-743.0-0.0","0","0","19763","","660","","","75","82","","","2","82","training","adjacent","GF","7","6","Q.jpg","O.jpg","1","0","0","",""
"","feedback","","html-keyboard-response","534","604430","0.0-1.0-744.0-0.0","0","0","19763","","null","","","null","82","","","","","","","","","","","","","","","",""
"","time_out","","html-keyboard-response","535","606436","0.0-1.0-746.0-0.0","0","0","19763","","null","","","null","82","","","","","","","","","","","","","","","",""
"","ITI","","html-keyboard-response","536","607441","0.0-1.0-747.0","0","0","19763","","null","","","null","82","","","","","","","","","","","","","","","NaN",""
"","S1","","html-keyboard-response","537","607597","0.0-1.0-749.0","0","0","19763","","null","","","null","83","","","","","","","","","","","","","","","",""
"","ISI","","html-keyboard-response","538","609601","0.0-1.0-750.0","0","0","19763","","null","","","null","83","NaN","","","","","","","","","","","","","","",""
"","S2","","html-keyboard-response","539","609756","0.0-1.0-751.0","0","0","19763","","null","","","null","83","","NaN","","","","","","","","","","","","","",""
"","response","","html-keyboard-response","540","610738","0.0-1.0-752.0-0.0","0","0","19763","","977","","","68","83","","","2","83","training","adjacent","BA","2","1","N.jpg","M.jpg","0","0","1","",""
"","feedback","","html-keyboard-response","541","611744","0.0-1.0-753.0-0.0","0","0","19763","","null","","","null","83","","","","","","","","","","","","","","","",""
"","ITI","","html-keyboard-response","542","612748","0.0-1.0-756.0","0","0","19763","","null","","","null","83","","","","","","","","","","","","","","","NaN",""
"","S1","","html-keyboard-response","543","612905","0.0-1.0-758.0","0","0","19763","","null","","","null","84","","","","","","","","","","","","","","","",""
"","ISI","","html-keyboard-response","544","614909","0.0-1.0-759.0","0","0","19763","","null","","","null","84","NaN","","","","","","","","","","","","","","",""
"","S2","","html-keyboard-response","545","615064","0.0-1.0-760.0","0","0","19763","","null","","","null","84","","NaN","","","","","","","","","","","","","",""
"","response","","html-keyboard-response","546","615820","0.0-1.0-761.0-0.0","0","0","19763","","751","","","68","84","","","2","84","training","adjacent","BA","2","1","N.jpg","M.jpg","0","0","1","",""
"","feedback","","html-keyboard-response","547","616826","0.0-1.0-762.0-0.0","0","0","19763","","null","","","null","84","","","","","","","","","","","","","","","",""
"","ITI","","html-keyboard-response","548","617832","0.0-1.0-765.0","0","0","19763","","null","","","null","84","","","","","","","","","","","","","","","NaN",""
"","S1","","html-keyboard-response","549","617988","0.0-1.0-767.0","0","0","19763","","null","","","null","85","","","","","","","","","","","","","","","",""
"","ISI","","html-keyboard-response","550","619992","0.0-1.0-768.0","0","0","19763","","null","","","null","85","NaN","","","","","","","","","","","","","","",""
"","S2","","html-keyboard-response","551","620148","0.0-1.0-769.0","0","0","19763","","null","","","null","85","","NaN","","","","","","","","","","","","","",""
"","response","","html-keyboard-response","552","620618","0.0-1.0-770.0-0.0","0","0","19763","","466","","","68","85","","","2","85","training","adjacent","CB","3","2","P.jpg","N.jpg","0","0","1","",""
"","feedback","","html-keyboard-response","553","621623","0.0-1.0-771.0-0.0","0","0","19763","","null","","","null","85","","","","","","","","","","","","","","","",""
"","ITI","","html-keyboard-response","554","622628","0.0-1.0-774.0","0","0","19763","","null","","","null","85","","","","","","","","","","","","","","","NaN",""
"","S1","","html-keyboard-response","555","622783","0.0-1.0-776.0","0","0","19763","","null","","","null","86","","","","","","","","","","","","","","","",""
"","ISI","","html-keyboard-response","556","624788","0.0-1.0-777.0","0","0","19763","","null","","","null","86","NaN","","","","","","","","","","","","","","",""
"","S2","","html-keyboard-response","557","624943","0.0-1.0-778.0","0","0","19763","","null","","","null","86","","NaN","","","","","","","","","","","","","",""
"","response","","html-keyboard-response","558","625379","0.0-1.0-779.0-0.0","0","0","19763","","431","","","68","86","","","2","86","training","adjacent","CB","3","2","P.jpg","N.jpg","0","0","1","",""
"","feedback","","html-keyboard-response","559","626385","0.0-1.0-780.0-0.0","0","0","19763","","null","","","null","86","","","","","","","","","","","","","","","",""
"","ITI","","html-keyboard-response","560","627391","0.0-1.0-783.0","0","0","19763","","null","","","null","86","","","","","","","","","","","","","","","NaN",""
"","S1","","html-keyboard-response","561","627546","0.0-1.0-785.0","0","0","19763","","null","","","null","87","","","","","","","","","","","","","","","",""
"","ISI","","html-keyboard-response","562","629551","0.0-1.0-786.0","0","0","19763","","null","","","null","87","NaN","","","","","","","","","","","","","","",""
"","S2","","html-keyboard-response","563","629706","0.0-1.0-787.0","0","0","19763","","null","","","null","87","","NaN","","","","","","","","","","","","","",""
"","response","","html-keyboard-response","564","630125","0.0-1.0-788.0-0.0","0","0","19763","","415","","","68","87","","","2","87","training","adjacent","ED","5","4","L.jpg","R.jpg","0","0","1","",""
"","feedback","","html-keyboard-response","565","631130","0.0-1.0-789.0-0.0","0","0","19763","","null","","","null","87","","","","","","","","","","","","","","","",""
"","ITI","","html-keyboard-response","566","632136","0.0-1.0-792.0","0","0","19763","","null","","","null","87","","","","","","","","","","","","","","","NaN",""
"","S1","","html-keyboard-response","567","632292","0.0-1.0-794.0","0","0","19763","","null","","","null","88","","","","","","","","","","","","","","","",""
"","ISI","","html-keyboard-response","568","634297","0.0-1.0-795.0","0","0","19763","","null","","","null","88","NaN","","","","","","","","","","","","","","",""
"","S2","","html-keyboard-response","569","634453","0.0-1.0-796.0","0","0","19763","","null","","","null","88","","NaN","","","","","","","","","","","","","",""
"","response","","html-keyboard-response","570","634922","0.0-1.0-797.0-0.0","0","0","19763","","465","","","68","88","","","2","88","training","adjacent","AB","1","2","M.jpg","N.jpg","0","1","0","",""
"","feedback","","html-keyboard-response","571","635928","0.0-1.0-798.0-0.0","0","0","19763","","null","","","null","88","","","","","","","","","","","","","","","",""
"","time_out","","html-keyboard-response","572","637934","0.0-1.0-800.0-0.0","0","0","19763","","null","","","null","88","","","","","","","","","","","","","","","",""
"","ITI","","html-keyboard-response","573","638938","0.0-1.0-801.0","0","0","19763","","null","","","null","88","","","","","","","","","","","","","","","NaN",""
"","S1","","html-keyboard-response","574","639093","0.0-1.0-803.0","0","0","19763","","null","","","null","89","","","","","","","","","","","","","","","",""
"","ISI","","html-keyboard-response","575","641098","0.0-1.0-804.0","0","0","19763","","null","","","null","89","NaN","","","","","","","","","","","","","","",""
"","S2","","html-keyboard-response","576","641254","0.0-1.0-805.0","0","0","19763","","null","","","null","89","","NaN","","","","","","","","","","","","","",""
"","response","","html-keyboard-response","577","641506","0.0-1.0-806.0-0.0","0","0","19763","","247","","","75","89","","","2","89","training","adjacent","FG","6","7","O.jpg","Q.jpg","1","1","1","",""
"","feedback","","html-keyboard-response","578","642511","0.0-1.0-807.0-0.0","0","0","19763","","null","","","null","89","","","","","","","","","","","","","","","",""
"","ITI","","html-keyboard-response","579","643518","0.0-1.0-810.0","0","0","19763","","null","","","null","89","","","","","","","","","","","","","","","NaN",""
"","S1","","html-keyboard-response","580","643674","0.0-1.0-812.0","0","0","19763","","null","","","null","90","","","","","","","","","","","","","","","",""
"","ISI","","html-keyboard-response","581","645679","0.0-1.0-813.0","0","0","19763","","null","","","null","90","NaN","","","","","","","","","","","","","","",""
"","S2","","html-keyboard-response","582","645836","0.0-1.0-814.0","0","0","19763","","null","","","null","90","","NaN","","","","","","","","","","","","","",""
