"success","ttype","start_time","trial_type","trial_index","time_elapsed","internal_node_id","warning","missed_checkup","PID","view_history","rt","responses","repeat_instructions","key_press","index","keypress_isi","keypress_S2","block","trial_num","phase","group_type","pair_type","S1_stim","S2_stim","S1_img","S2_img","S1_chosen","S1_higher","accuracy","keypress_iti","total_bonus_tally"
"true","full_screen","d03072023hr1954","fullscreen","0","12912","0.0-0.0","0","0","59363","","","","","","","","","","","","","","","","","","","","","",""
"","instructions","","instructions","1","58156","0.0-1.0-0.0-0.0","0","0","59363","[{""page_index"":0,""viewing_time"":7884},{""page_index"":1,""viewing_time"":24625},{""page_index"":2,""viewing_time"":10182},{""page_index"":3,""viewing_time"":2549}]","45241","","","","","","","","","","","","","","","","","","","",""
"","comprehension_check","","survey-multi-choice","2","89876","0.0-1.0-0.0-1.0","0","0","59363","","31712","{""Q0"":""True"",""Q1"":""K"",""Q2"":""Once the second image appears and while the screen 'MAKE A CHOICE' is shown"",""Q3"":""Green mark"",""Q4"":""either D or K""}","0","","","","","","","","","","","","","","","","","",""
"","start_exp","","html-keyboard-response","3","92336","0.0-1.0-1.0","0","0","59363","","2453","","","32","","","","","","","","","","","","","","","","",""
"","S1","","html-keyboard-response","4","92589","0.0-1.0-2.0","0","0","59363","","null","","","null","0","","","","","","","","","","","","","","","",""
"","ISI","","html-keyboard-response","5","93593","0.0-1.0-3.0","0","0","59363","","null","","","null","0","NaN","","","","","","","","","","","","","","",""
"","S2","","html-keyboard-response","6","93847","0.0-1.0-4.0","0","0","59363","","null","","","null","0","","NaN","","","","","","","","","","","","","",""
"","response","","html-keyboard-response","7","94355","0.0-1.0-5.0-0.0","0","0","59363","","505","","","75","0","","","1","0","training","adjacent","CB","3","2","R.jpg","M.jpg","1","0","0","",""
"","feedback","","html-keyboard-response","8","95358","0.0-1.0-6.0-0.0","0","0","59363","","null","","","null","0","","","","","","","","","","","","","","","",""
"","time_out","","html-keyboard-response","9","97362","0.0-1.0-8.0-0.0","0","0","59363","","null","","","null","0","","","","","","","","","","","","","","","",""
"","ITI","","html-keyboard-response","10","98365","0.0-1.0-9.0","0","0","59363","","null","","","null","0","","","","","","","","","","","","","","","NaN",""
"","S1","","html-keyboard-response","11","98617","0.0-1.0-11.0","0","0","59363","","null","","","null","1","","","","","","","","","","","","","","","",""
"","ISI","","html-keyboard-response","12","99619","0.0-1.0-12.0","0","0","59363","","null","","","null","1","NaN","","","","","","","","","","","","","","",""
"","S2","","html-keyboard-response","13","99885","0.0-1.0-13.0","0","0","59363","","null","","","null","1","","NaN","","","","","","","","","","","","","",""
"","response","","html-keyboard-response","14","100195","0.0-1.0-14.0-0.0","0","0","59363","","308","","","68","1","","","1","1","training","adjacent","AB","1","2","P.jpg","M.jpg","0","1","0","",""
"","feedback","","html-keyboard-response","15","101198","0.0-1.0-15.0-0.0","0","0","59363","","null","","","null","1","","","","","","","","","","","","","","","",""
"","time_out","","html-keyboard-response","16","103200","0.0-1.0-17.0-0.0","0","0","59363","","null","","","null","1","","","","","","","","","","","","","","","",""
"","ITI","","html-keyboard-response","17","104203","0.0-1.0-18.0","0","0","59363","","null","","","null","1","","","","","","","","","","","","","","","NaN",""
"","S1","","html-keyboard-response","18","104456","0.0-1.0-20.0","0","0","59363","","null","","","null","2","","","","","","","","","","","","","","","",""
"","ISI","","html-keyboard-response","19","105459","0.0-1.0-21.0","0","0","59363","","null","","","null","2","NaN","","","","","","","","","","","","","","",""
"","S2","","html-keyboard-response","20","105713","0.0-1.0-22.0","0","0","59363","","null","","","null","2","","NaN","","","","","","","","","","","","","",""
"","response","","html-keyboard-response","21","106270","0.0-1.0-23.0-0.0","0","0","59363","","555","","","75","2","","","1","2","training","adjacent","BC","2","3","M.jpg","R.jpg","1","1","1","",""
"","feedback","","html-keyboard-response","22","107273","0.0-1.0-24.0-0.0","0","0","59363","","null","","","null","2","","","","","","","","","","","","","","","",""
"","ITI","","html-keyboard-response","23","108275","0.0-1.0-27.0","0","0","59363","","null","","","null","2","","","","","","","","","","","","","","","NaN",""
"","S1","","html-keyboard-response","24","108529","0.0-1.0-29.0","0","0","59363","","null","","","null","3","","","","","","","","","","","","","","","",""
"","ISI","","html-keyboard-response","25","109531","0.0-1.0-30.0","0","0","59363","","null","","","null","3","NaN","","","","","","","","","","","","","","",""
"","S2","","html-keyboard-response","26","109784","0.0-1.0-31.0","0","0","59363","","null","","","null","3","","NaN","","","","","","","","","","","","","",""
"","response","","html-keyboard-response","27","110396","0.0-1.0-32.0-0.0","0","0","59363","","609","","","75","3","","","1","3","training","adjacent","FE","6","5","O.jpg","L.jpg","1","0","0","",""
"","feedback","","html-keyboard-response","28","111398","0.0-1.0-33.0-0.0","0","0","59363","","null","","","null","3","","","","","","","","","","","","","","","",""
"","time_out","","html-keyboard-response","29","113402","0.0-1.0-35.0-0.0","0","0","59363","","null","","","null","3","","","","","","","","","","","","","","","",""
"","ITI","","html-keyboard-response","30","114408","0.0-1.0-36.0","0","0","59363","","null","","","null","3","","","","","","","","","","","","","","","NaN",""
"","S1","","html-keyboard-response","31","114662","0.0-1.0-38.0","0","0","59363","","null","","","null","4","","","","","","","","","","","","","","","",""
"","ISI","","html-keyboard-response","32","115664","0.0-1.0-39.0","0","0","59363","","null","","","null","4","NaN","","","","","","","","","","","","","","",""
"","S2","","html-keyboard-response","33","115917","0.0-1.0-40.0","0","0","59363","","null","","","null","4","","NaN","","","","","","","","","","","","","",""
"","response","","html-keyboard-response","34","116828","0.0-1.0-41.0-0.0","0","0","59363","","910","","","68","4","","","1","4","training","adjacent","AB","1","2","P.jpg","M.jpg","0","1","0","",""
"","feedback","","html-keyboard-response","35","117832","0.0-1.0-42.0-0.0","0","0","59363","","null","","","null","4","","","","","","","","","","","","","","","",""
"","time_out","","html-keyboard-response","36","119835","0.0-1.0-44.0-0.0","0","0","59363","","null","","","null","4","","","","","","","","","","","","","","","",""
"","ITI","","html-keyboard-response","37","120838","0.0-1.0-45.0","0","0","59363","","null","","","null","4","","","","","","","","","","","","","","","NaN",""
"","S1","","html-keyboard-response","38","121092","0.0-1.0-47.0","0","0","59363","","null","","","null","5","","","","","","","","","","","","","","","",""
"","ISI","","html-keyboard-response","39","122095","0.0-1.0-48.0","0","0","59363","","null","","","null","5","NaN","","","","","","","","","","","","","","",""
"","S2","","html-keyboard-response","40","122348","0.0-1.0-49.0","0","0","59363","","null","","","null","5","","NaN","","","","","","","","","","","","","",""
"","response","","html-keyboard-response","41","122939","0.0-1.0-50.0-0.0","0","0","59363","","588","","","75","5","","","1","5","training","adjacent","FE","6","5","O.jpg","L.jpg","1","0","0","",""
"","feedback","","html-keyboard-response","42","123942","0.0-1.0-51.0-0.0","0","0","59363","","null","","","null","5","","","","","","","","","","","","","","","",""
"","time_out","","html-keyboard-response","43","125945","0.0-1.0-53.0-0.0","0","0","59363","","null","","","null","5","","","","","","","","","","","","","","","",""
"","ITI","","html-keyboard-response","44","126949","0.0-1.0-54.0","0","0","59363","","null","","","null","5","","","","","","","","","","","","","","","NaN",""
"","S1","","html-keyboard-response","45","127202","0.0-1.0-56.0","0","0","59363","","null","","","null","6","","","","","","","","","","","","","","","",""
"","ISI","","html-keyboard-response","46","128205","0.0-1.0-57.0","0","0","59363","","null","","","null","6","NaN","","","","","","","","","","","","","","",""
"","S2","","html-keyboard-response","47","128458","0.0-1.0-58.0","0","0","59363","","null","","","null","6","","NaN","","","","","","","","","","","","","",""
"","response","","html-keyboard-response","48","129064","0.0-1.0-59.0-0.0","0","0","59363","","604","","","68","6","","","1","6","training","adjacent","ED","5","4","L.jpg","N.jpg","0","0","1","",""
"","feedback","","html-keyboard-response","49","130068","0.0-1.0-60.0-0.0","0","0","59363","","null","","","null","6","","","","","","","","","","","","","","","",""
"","ITI","","html-keyboard-response","50","131070","0.0-1.0-63.0","0","0","59363","","null","","","null","6","","","","","","","","","","","","","","","NaN",""
"","S1","","html-keyboard-response","51","131323","0.0-1.0-65.0","0","0","59363","","null","","","null","7","","","","","","","","","","","","","","","",""
"","ISI","","html-keyboard-response","52","132325","0.0-1.0-66.0","0","0","59363","","null","","","null","7","NaN","","","","","","","","","","","","","","",""
"","S2","","html-keyboard-response","53","132579","0.0-1.0-67.0","0","0","59363","","null","","","null","7","","NaN","","","","","","","","","","","","","",""
"","response","","html-keyboard-response","54","133904","0.0-1.0-68.0-0.0","0","0","59363","","1323","","","68","7","","","1","7","training","adjacent","GF","7","6","Q.jpg","O.jpg","0","0","1","",""
"","feedback","","html-keyboard-response","55","134907","0.0-1.0-69.0-0.0","0","0","59363","","null","","","null","7","","","","","","","","","","","","","","","",""
"","ITI","","html-keyboard-response","56","135909","0.0-1.0-72.0","0","0","59363","","null","","","null","7","","","","","","","","","","","","","","","NaN",""
"","S1","","html-keyboard-response","57","136162","0.0-1.0-74.0","0","0","59363","","null","","","null","8","","","","","","","","","","","","","","","",""
"","ISI","","html-keyboard-response","58","137164","0.0-1.0-75.0","0","0","59363","","null","","","null","8","NaN","","","","","","","","","","","","","","",""
"","S2","","html-keyboard-response","59","137417","0.0-1.0-76.0","0","0","59363","","null","","","null","8","","NaN","","","","","","","","","","","","","",""
"","response","","html-keyboard-response","60","137981","0.0-1.0-77.0-0.0","0","0","59363","","562","","","68","8","","","1","8","training","adjacent","EF","5","6","L.jpg","O.jpg","0","1","0","",""
"","feedback","","html-keyboard-response","61","138985","0.0-1.0-78.0-0.0","0","0","59363","","null","","","null","8","","","","","","","","","","","","","","","",""
"","time_out","","html-keyboard-response","62","140987","0.0-1.0-80.0-0.0","0","0","59363","","null","","","null","8","","","","","","","","","","","","","","","",""
"","ITI","","html-keyboard-response","63","141989","0.0-1.0-81.0","0","0","59363","","null","","","null","8","","","","","","","","","","","","","","","NaN",""
"","S1","","html-keyboard-response","64","142242","0.0-1.0-83.0","0","0","59363","","null","","","null","9","","","","","","","","","","","","","","","",""
"","ISI","","html-keyboard-response","65","143244","0.0-1.0-84.0","0","0","59363","","null","","","null","9","NaN","","","","","","","","","","","","","","",""
"","S2","","html-keyboard-response","66","143497","0.0-1.0-85.0","0","0","59363","","null","","","null","9","","NaN","","","","","","","","","","","","","",""
"","response","","html-keyboard-response","67","144434","0.0-1.0-86.0-0.0","0","0","59363","","934","","","68","9","","","1","9","training","adjacent","FG","6","7","O.jpg","Q.jpg","0","1","0","",""
"","feedback","","html-keyboard-response","68","145437","0.0-1.0-87.0-0.0","0","0","59363","","null","","","null","9","","","","","","","","","","","","","","","",""
"","time_out","","html-keyboard-response","69","147443","0.0-1.0-89.0-0.0","0","0","59363","","null","","","null","9","","","","","","","","","","","","","","","",""
"","ITI","","html-keyboard-response","70","148446","0.0-1.0-90.0","0","0","59363","","null","","","null","9","","","","","","","","","","","","","","","NaN",""
"","S1","","html-keyboard-response","71","148699","0.0-1.0-92.0","0","0","59363","","null","","","null","10","","","","","","","","","","","","","","","",""
"","ISI","","html-keyboard-response","72","149702","0.0-1.0-93.0","0","0","59363","","null","","","null","10","NaN","","","","","","","","","","","","","","",""
"","S2","","html-keyboard-response","73","149954","0.0-1.0-94.0","0","0","59363","","null","","","null","10","","NaN","","","","","","","","","","","","","",""
"","response","","html-keyboard-response","74","150653","0.0-1.0-95.0-0.0","0","0","59363","","697","","","75","10","","","1","10","training","adjacent","EF","5","6","L.jpg","O.jpg","1","1","1","",""
"","feedback","","html-keyboard-response","75","151657","0.0-1.0-96.0-0.0","0","0","59363","","null","","","null","10","","","","","","","","","","","","","","","",""
"","ITI","","html-keyboard-response","76","152659","0.0-1.0-99.0","0","0","59363","","null","","","null","10","","","","","","","","","","","","","","","NaN",""
"","S1","","html-keyboard-response","77","152913","0.0-1.0-101.0","0","0","59363","","null","","","null","11","","","","","","","","","","","","","","","",""
"","ISI","","html-keyboard-response","78","153916","0.0-1.0-102.0","0","0","59363","","null","","","null","11","NaN","","","","","","","","","","","","","","",""
"","S2","","html-keyboard-response","79","154169","0.0-1.0-103.0","0","0","59363","","null","","","null","11","","NaN","","","","","","","","","","","","","",""
"","response","","html-keyboard-response","80","154652","0.0-1.0-104.0-0.0","0","0","59363","","482","","","75","11","","","1","11","training","adjacent","BA","2","1","M.jpg","P.jpg","1","0","0","",""
"","feedback","","html-keyboard-response","81","155655","0.0-1.0-105.0-0.0","0","0","59363","","null","","","null","11","","","","","","","","","","","","","","","",""
"","time_out","","html-keyboard-response","82","157658","0.0-1.0-107.0-0.0","0","0","59363","","null","","","null","11","","","","","","","","","","","","","","","",""
"","ITI","","html-keyboard-response","83","158660","0.0-1.0-108.0","0","0","59363","","null","","","null","11","","","","","","","","","","","","","","","NaN",""
"","S1","","html-keyboard-response","84","158913","0.0-1.0-110.0","0","0","59363","","null","","","null","12","","","","","","","","","","","","","","","",""
"","ISI","","html-keyboard-response","85","159916","0.0-1.0-111.0","0","0","59363","","null","","","null","12","NaN","","","","","","","","","","","","","","",""
"","S2","","html-keyboard-response","86","160168","0.0-1.0-112.0","0","0","59363","","null","","","null","12","","NaN","","","","","","","","","","","","","",""
"","response","","html-keyboard-response","87","160676","0.0-1.0-113.0-0.0","0","0","59363","","505","","","68","12","","","1","12","training","adjacent","BC","2","3","M.jpg","R.jpg","0","1","0","",""
"","feedback","","html-keyboard-response","88","161679","0.0-1.0-114.0-0.0","0","0","59363","","null","","","null","12","","","","","","","","","","","","","","","",""
"","time_out","","html-keyboard-response","89","163682","0.0-1.0-116.0-0.0","0","0","59363","","null","","","null","12","","","","","","","","","","","","","","","",""
"","ITI","","html-keyboard-response","90","164684","0.0-1.0-117.0","0","0","59363","","null","","","null","12","","","","","","","","","","","","","","","NaN",""
"","S1","","html-keyboard-response","91","164937","0.0-1.0-119.0","0","0","59363","","null","","","null","13","","","","","","","","","","","","","","","",""
"","ISI","","html-keyboard-response","92","165939","0.0-1.0-120.0","0","0","59363","","null","","","null","13","NaN","","","","","","","","","","","","","","",""
"","S2","","html-keyboard-response","93","166192","0.0-1.0-121.0","0","0","59363","","null","","","null","13","","NaN","","","","","","","","","","","","","",""
"","response","","html-keyboard-response","94","167247","0.0-1.0-122.0-0.0","0","0","59363","","1052","","","68","13","","","1","13","training","adjacent","GF","7","6","Q.jpg","O.jpg","0","0","1","",""
"","feedback","","html-keyboard-response","95","168249","0.0-1.0-123.0-0.0","0","0","59363","","null","","","null","13","","","","","","","","","","","","","","","",""
"","ITI","","html-keyboard-response","96","169253","0.0-1.0-126.0","0","0","59363","","null","","","null","13","","","","","","","","","","","","","","","NaN",""
"","S1","","html-keyboard-response","97","169507","0.0-1.0-128.0","0","0","59363","","null","","","null","14","","","","","","","","","","","","","","","",""
"","ISI","","html-keyboard-response","98","170511","0.0-1.0-129.0","0","0","59363","","null","","","null","14","NaN","","","","","","","","","","","","","","",""
"","S2","","html-keyboard-response","99","170764","0.0-1.0-130.0","0","0","59363","","null","","","null","14","","NaN","","","","","","","","","","","","","",""
"","response","","html-keyboard-response","100","171396","0.0-1.0-131.0-0.0","0","0","59363","","630","","","75","14","","","1","14","training","adjacent","FG","6","7","O.jpg","Q.jpg","1","1","1","",""
"","feedback","","html-keyboard-response","101","172399","0.0-1.0-132.0-0.0","0","0","59363","","null","","","null","14","","","","","","","","","","","","","","","",""
"","ITI","","html-keyboard-response","102","173402","0.0-1.0-135.0","0","0","59363","","null","","","null","14","","","","","","","","","","","","","","","NaN",""
"","S1","","html-keyboard-response","103","173656","0.0-1.0-137.0","0","0","59363","","null","","","null","15","","","","","","","","","","","","","","","",""
"","ISI","","html-keyboard-response","104","174658","0.0-1.0-138.0","0","0","59363","","null","","","null","15","NaN","","","","","","","","","","","","","","",""
"","S2","","html-keyboard-response","105","174922","0.0-1.0-139.0","0","0","59363","","null","","","null","15","","NaN","","","","","","","","","","","","","",""
"","response","","html-keyboard-response","106","175798","0.0-1.0-140.0-0.0","0","0","59363","","874","","","75","15","","","1","15","training","adjacent","CB","3","2","R.jpg","M.jpg","1","0","0","",""
"","feedback","","html-keyboard-response","107","176802","0.0-1.0-141.0-0.0","0","0","59363","","null","","","null","15","","","","","","","","","","","","","","","",""
"","time_out","","html-keyboard-response","108","178805","0.0-1.0-143.0-0.0","0","0","59363","","null","","","null","15","","","","","","","","","","","","","","","",""
"","ITI","","html-keyboard-response","109","179820","0.0-1.0-144.0","0","0","59363","","null","","","null","15","","","","","","","","","","","","","","","NaN",""
"","S1","","html-keyboard-response","110","180073","0.0-1.0-146.0","0","0","59363","","null","","","null","16","","","","","","","","","","","","","","","",""
"","ISI","","html-keyboard-response","111","181075","0.0-1.0-147.0","0","0","59363","","null","","","null","16","NaN","","","","","","","","","","","","","","",""
"","S2","","html-keyboard-response","112","181329","0.0-1.0-148.0","0","0","59363","","null","","","null","16","","NaN","","","","","","","","","","","","","",""
"","response","","html-keyboard-response","113","182229","0.0-1.0-149.0-0.0","0","0","59363","","898","","","68","16","","","1","16","training","adjacent","CB","3","2","R.jpg","M.jpg","0","0","1","",""
"","feedback","","html-keyboard-response","114","183233","0.0-1.0-150.0-0.0","0","0","59363","","null","","","null","16","","","","","","","","","","","","","","","",""
"","ITI","","html-keyboard-response","115","184235","0.0-1.0-153.0","0","0","59363","","null","","","null","16","","","","","","","","","","","","","","","NaN",""
"","S1","","html-keyboard-response","116","184489","0.0-1.0-155.0","0","0","59363","","null","","","null","17","","","","","","","","","","","","","","","",""
"","ISI","","html-keyboard-response","117","185491","0.0-1.0-156.0","0","0","59363","","null","","","null","17","NaN","","","","","","","","","","","","","","",""
"","S2","","html-keyboard-response","118","185744","0.0-1.0-157.0","0","0","59363","","null","","","null","17","","NaN","","","","","","","","","","","","","",""
"","response","","html-keyboard-response","119","186268","0.0-1.0-158.0-0.0","0","0","59363","","523","","","75","17","","","1","17","training","adjacent","BC","2","3","M.jpg","R.jpg","1","1","1","",""
"","feedback","","html-keyboard-response","120","187272","0.0-1.0-159.0-0.0","0","0","59363","","null","","","null","17","","","","","","","","","","","","","","","",""
"","ITI","","html-keyboard-response","121","188276","0.0-1.0-162.0","0","0","59363","","null","","","null","17","","","","","","","","","","","","","","","NaN",""
"","S1","","html-keyboard-response","122","188529","0.0-1.0-164.0","0","0","59363","","null","","","null","18","","","","","","","","","","","","","","","",""
"","ISI","","html-keyboard-response","123","189531","0.0-1.0-165.0","0","0","59363","","null","","","null","18","NaN","","","","","","","","","","","","","","",""
"","S2","","html-keyboard-response","124","189785","0.0-1.0-166.0","0","0","59363","","null","","","null","18","","NaN","","","","","","","","","","","","","",""
"","response","","html-keyboard-response","125","191034","0.0-1.0-167.0-0.0","0","0","59363","","1248","","","75","18","","","1","18","training","adjacent","CB","3","2","R.jpg","M.jpg","1","0","0","",""
"","feedback","","html-keyboard-response","126","192037","0.0-1.0-168.0-0.0","0","0","59363","","null","","","null","18","","","","","","","","","","","","","","","",""
"","time_out","","html-keyboard-response","127","194039","0.0-1.0-170.0-0.0","0","0","59363","","null","","","null","18","","","","","","","","","","","","","","","",""
"","ITI","","html-keyboard-response","128","195042","0.0-1.0-171.0","0","0","59363","","null","","","null","18","","","","","","","","","","","","","","","NaN",""
"","S1","","html-keyboard-response","129","195295","0.0-1.0-173.0","0","0","59363","","null","","","null","19","","","","","","","","","","","","","","","",""
"","ISI","","html-keyboard-response","130","196297","0.0-1.0-174.0","0","0","59363","","null","","","null","19","NaN","","","","","","","","","","","","","","",""
"","S2","","html-keyboard-response","131","196550","0.0-1.0-175.0","0","0","59363","","null","","","null","19","","NaN","","","","","","","","","","","","","",""
"","response","","html-keyboard-response","132","197466","0.0-1.0-176.0-0.0","0","0","59363","","914","","","68","19","","","1","19","training","adjacent","DE","4","5","N.jpg","L.jpg","0","1","0","",""
"","feedback","","html-keyboard-response","133","198469","0.0-1.0-177.0-0.0","0","0","59363","","null","","","null","19","","","","","","","","","","","","","","","",""
"","time_out","","html-keyboard-response","134","200472","0.0-1.0-179.0-0.0","0","0","59363","","null","","","null","19","","","","","","","","","","","","","","","",""
"","ITI","","html-keyboard-response","135","201477","0.0-1.0-180.0","0","0","59363","","null","","","null","19","","","","","","","","","","","","","","","NaN",""
"","S1","","html-keyboard-response","136","201729","0.0-1.0-182.0","0","0","59363","","null","","","null","20","","","","","","","","","","","","","","","",""
"","ISI","","html-keyboard-response","137","202731","0.0-1.0-183.0","0","0","59363","","null","","","null","20","NaN","","","","","","","","","","","","","","",""
"","S2","","html-keyboard-response","138","202984","0.0-1.0-184.0","0","0","59363","","null","","","null","20","","NaN","","","","","","","","","","","","","",""
"","response","","html-keyboard-response","139","203874","0.0-1.0-185.0-0.0","0","0","59363","","888","","","75","20","","","1","20","training","adjacent","DE","4","5","N.jpg","L.jpg","1","1","1","",""
"","feedback","","html-keyboard-response","140","204878","0.0-1.0-186.0-0.0","0","0","59363","","null","","","null","20","","","","","","","","","","","","","","","",""
"","ITI","","html-keyboard-response","141","205882","0.0-1.0-189.0","0","0","59363","","null","","","null","20","","","","","","","","","","","","","","","NaN",""
"","S1","","html-keyboard-response","142","206135","0.0-1.0-191.0","0","0","59363","","null","","","null","21","","","","","","","","","","","","","","","",""
"","ISI","","html-keyboard-response","143","207138","0.0-1.0-192.0","0","0","59363","","null","","","null","21","NaN","","","","","","","","","","","","","","",""
"","S2","","html-keyboard-response","144","207391","0.0-1.0-193.0","0","0","59363","","null","","","null","21","","NaN","","","","","","","","","","","","","",""
"","response","","html-keyboard-response","145","208574","0.0-1.0-194.0-0.0","0","0","59363","","1181","","","75","21","","","1","21","training","adjacent","DC","4","3","N.jpg","R.jpg","1","0","0","",""
"","feedback","","html-keyboard-response","146","209578","0.0-1.0-195.0-0.0","0","0","59363","","null","","","null","21","","","","","","","","","","","","","","","",""
"","time_out","","html-keyboard-response","147","211580","0.0-1.0-197.0-0.0","0","0","59363","","null","","","null","21","","","","","","","","","","","","","","","",""
"","ITI","","html-keyboard-response","148","212583","0.0-1.0-198.0","0","0","59363","","null","","","null","21","","","","","","","","","","","","","","","NaN",""
"","S1","","html-keyboard-response","149","212837","0.0-1.0-200.0","0","0","59363","","null","","","null","22","","","","","","","","","","","","","","","",""
"","ISI","","html-keyboard-response","150","213838","0.0-1.0-201.0","0","0","59363","","null","","","null","22","NaN","","","","","","","","","","","","","","",""
"","S2","","html-keyboard-response","151","214091","0.0-1.0-202.0","0","0","59363","","null","","","null","22","","NaN","","","","","","","","","","","","","",""
"","response","","html-keyboard-response","152","214964","0.0-1.0-203.0-0.0","0","0","59363","","871","","","68","22","","","1","22","training","adjacent","CD","3","4","R.jpg","N.jpg","0","1","0","",""
"","feedback","","html-keyboard-response","153","215968","0.0-1.0-204.0-0.0","0","0","59363","","null","","","null","22","","","","","","","","","","","","","","","",""
"","time_out","","html-keyboard-response","154","217970","0.0-1.0-206.0-0.0","0","0","59363","","null","","","null","22","","","","","","","","","","","","","","","",""
"","ITI","","html-keyboard-response","155","218972","0.0-1.0-207.0","0","0","59363","","null","","","null","22","","","","","","","","","","","","","","","NaN",""
"","S1","","html-keyboard-response","156","219225","0.0-1.0-209.0","0","0","59363","","null","","","null","23","","","","","","","","","","","","","","","",""
"","ISI","","html-keyboard-response","157","220228","0.0-1.0-210.0","0","0","59363","","null","","","null","23","NaN","","","","","","","","","","","","","","",""
"","S2","","html-keyboard-response","158","220481","0.0-1.0-211.0","0","0","59363","","null","","","null","23","","NaN","","","","","","","","","","","","","",""
"","response","","html-keyboard-response","159","221269","0.0-1.0-212.0-0.0","0","0","59363","","785","","","75","23","","","1","23","training","adjacent","DE","4","5","N.jpg","L.jpg","1","1","1","",""
"","feedback","","html-keyboard-response","160","222272","0.0-1.0-213.0-0.0","0","0","59363","","null","","","null","23","","","","","","","","","","","","","","","",""
"","ITI","","html-keyboard-response","161","223274","0.0-1.0-216.0","0","0","59363","","null","","","null","23","","","","","","","","","","","","","","","NaN",""
"","S1","","html-keyboard-response","162","223527","0.0-1.0-218.0","0","0","59363","","null","","","null","24","","","","","","","","","","","","","","","",""
"","ISI","","html-keyboard-response","163","224530","0.0-1.0-219.0","0","0","59363","","null","","","null","24","NaN","","","","","","","","","","","","","","",""
"","S2","","html-keyboard-response","164","224784","0.0-1.0-220.0","0","0","59363","","null","","","null","24","","NaN","","","","","","","","","","","","","",""
"","response","","html-keyboard-response","165","225326","0.0-1.0-221.0-0.0","0","0","59363","","541","","","75","24","","","1","24","training","adjacent","DC","4","3","N.jpg","R.jpg","1","0","0","",""
"","feedback","","html-keyboard-response","166","226330","0.0-1.0-222.0-0.0","0","0","59363","","null","","","null","24","","","","","","","","","","","","","","","",""
"","time_out","","html-keyboard-response","167","228333","0.0-1.0-224.0-0.0","0","0","59363","","null","","","null","24","","","","","","","","","","","","","","","",""
"","ITI","","html-keyboard-response","168","229336","0.0-1.0-225.0","0","0","59363","","null","","","null","24","","","","","","","","","","","","","","","NaN",""
"","S1","","html-keyboard-response","169","229588","0.0-1.0-227.0","0","0","59363","","null","","","null","25","","","","","","","","","","","","","","","",""
"","ISI","","html-keyboard-response","170","230592","0.0-1.0-228.0","0","0","59363","","null","","","null","25","NaN","","","","","","","","","","","","","","",""
"","S2","","html-keyboard-response","171","230844","0.0-1.0-229.0","0","0","59363","","null","","","null","25","","NaN","","","","","","","","","","","","","",""
"","response","","html-keyboard-response","172","231343","0.0-1.0-230.0-0.0","0","0","59363","","497","","","75","25","","","1","25","training","adjacent","DC","4","3","N.jpg","R.jpg","1","0","0","",""
"","feedback","","html-keyboard-response","173","232347","0.0-1.0-231.0-0.0","0","0","59363","","null","","","null","25","","","","","","","","","","","","","","","",""
"","time_out","","html-keyboard-response","174","234350","0.0-1.0-233.0-0.0","0","0","59363","","null","","","null","25","","","","","","","","","","","","","","","",""
"","ITI","","html-keyboard-response","175","235354","0.0-1.0-234.0","0","0","59363","","null","","","null","25","","","","","","","","","","","","","","","NaN",""
"","S1","","html-keyboard-response","176","235608","0.0-1.0-236.0","0","0","59363","","null","","","null","26","","","","","","","","","","","","","","","",""
"","ISI","","html-keyboard-response","177","236618","0.0-1.0-237.0","0","0","59363","","null","","","null","26","NaN","","","","","","","","","","","","","","",""
"","S2","","html-keyboard-response","178","236871","0.0-1.0-238.0","0","0","59363","","null","","","null","26","","NaN","","","","","","","","","","","","","",""
"","response","","html-keyboard-response","179","237645","0.0-1.0-239.0-0.0","0","0","59363","","771","","","68","26","","","1","26","training","adjacent","GF","7","6","Q.jpg","O.jpg","0","0","1","",""
"","feedback","","html-keyboard-response","180","238648","0.0-1.0-240.0-0.0","0","0","59363","","null","","","null","26","","","","","","","","","","","","","","","",""
"","ITI","","html-keyboard-response","181","239650","0.0-1.0-243.0","0","0","59363","","null","","","null","26","","","","","","","","","","","","","","","NaN",""
"","S1","","html-keyboard-response","182","239904","0.0-1.0-245.0","0","0","59363","","null","","","null","27","","","","","","","","","","","","","","","",""
"","ISI","","html-keyboard-response","183","240906","0.0-1.0-246.0","0","0","59363","","null","","","null","27","NaN","","","","","","","","","","","","","","",""
"","S2","","html-keyboard-response","184","241159","0.0-1.0-247.0","0","0","59363","","null","","","null","27","","NaN","","","","","","","","","","","","","",""
"","response","","html-keyboard-response","185","241724","0.0-1.0-248.0-0.0","0","0","59363","","562","","","68","27","","","1","27","training","adjacent","CD","3","4","R.jpg","N.jpg","0","1","0","",""
"","feedback","","html-keyboard-response","186","242727","0.0-1.0-249.0-0.0","0","0","59363","","null","","","null","27","","","","","","","","","","","","","","","",""
"","time_out","","html-keyboard-response","187","244729","0.0-1.0-251.0-0.0","0","0","59363","","null","","","null","27","","","","","","","","","","","","","","","",""
"","ITI","","html-keyboard-response","188","245732","0.0-1.0-252.0","0","0","59363","","null","","","null","27","","","","","","","","","","","","","","","NaN",""
"","S1","","html-keyboard-response","189","245986","0.0-1.0-254.0","0","0","59363","","null","","","null","28","","","","","","","","","","","","","","","",""
"","ISI","","html-keyboard-response","190","246989","0.0-1.0-255.0","0","0","59363","","null","","","null","28","NaN","","","","","","","","","","","","","","",""
"","S2","","html-keyboard-response","191","247242","0.0-1.0-256.0","0","0","59363","","null","","","null","28","","NaN","","","","","","","","","","","","","",""
"","response","","html-keyboard-response","192","247980","0.0-1.0-257.0-0.0","0","0","59363","","736","","","68","28","","","1","28","training","adjacent","BA","2","1","M.jpg","P.jpg","0","0","1","",""
"","feedback","","html-keyboard-response","193","248983","0.0-1.0-258.0-0.0","0","0","59363","","null","","","null","28","","","","","","","","","","","","","","","",""
"","ITI","","html-keyboard-response","194","249987","0.0-1.0-261.0","0","0","59363","","null","","","null","28","","","","","","","","","","","","","","","NaN",""
"","S1","","html-keyboard-response","195","250240","0.0-1.0-263.0","0","0","59363","","null","","","null","29","","","","","","","","","","","","","","","",""
"","ISI","","html-keyboard-response","196","251243","0.0-1.0-264.0","0","0","59363","","null","","","null","29","NaN","","","","","","","","","","","","","","",""
"","S2","","html-keyboard-response","197","251497","0.0-1.0-265.0","0","0","59363","","null","","","null","29","","NaN","","","","","","","","","","","","","",""
"","response","","html-keyboard-response","198","252918","0.0-1.0-266.0-0.0","0","0","59363","","1419","","","68","29","","","1","29","training","adjacent","DE","4","5","N.jpg","L.jpg","0","1","0","",""
"","feedback","","html-keyboard-response","199","253923","0.0-1.0-267.0-0.0","0","0","59363","","null","","","null","29","","","","","","","","","","","","","","","",""
"","time_out","","html-keyboard-response","200","255926","0.0-1.0-269.0-0.0","0","0","59363","","null","","","null","29","","","","","","","","","","","","","","","",""
"","ITI","","html-keyboard-response","201","256928","0.0-1.0-270.0","0","0","59363","","null","","","null","29","","","","","","","","","","","","","","","NaN",""
"","S1","","html-keyboard-response","202","257182","0.0-1.0-272.0","0","0","59363","","null","","","null","30","","","","","","","","","","","","","","","",""
"","ISI","","html-keyboard-response","203","258184","0.0-1.0-273.0","0","0","59363","","null","","","null","30","NaN","","","","","","","","","","","","","","",""
"","S2","","html-keyboard-response","204","258437","0.0-1.0-274.0","0","0","59363","","null","","","null","30","","NaN","","","","","","","","","","","","","",""
"","response","","html-keyboard-response","205","259169","0.0-1.0-275.0-0.0","0","0","59363","","730","","","75","30","","","1","30","training","adjacent","DC","4","3","N.jpg","R.jpg","1","0","0","",""
"","feedback","","html-keyboard-response","206","260171","0.0-1.0-276.0-0.0","0","0","59363","","null","","","null","30","","","","","","","","","","","","","","","",""
"","time_out","","html-keyboard-response","207","262174","0.0-1.0-278.0-0.0","0","0","59363","","null","","","null","30","","","","","","","","","","","","","","","",""
"","ITI","","html-keyboard-response","208","263178","0.0-1.0-279.0","0","0","59363","","null","","","null","30","","","","","","","","","","","","","","","NaN",""
"","S1","","html-keyboard-response","209","263430","0.0-1.0-281.0","0","0","59363","","null","","","null","31","","","","","","","","","","","","","","","",""
"","ISI","","html-keyboard-response","210","264432","0.0-1.0-282.0","0","0","59363","","null","","","null","31","NaN","","","","","","","","","","","","","","",""
"","S2","","html-keyboard-response","211","264686","0.0-1.0-283.0","0","0","59363","","null","","","null","31","","NaN","","","","","","","","","","","","","",""
"","response","","html-keyboard-response","212","265889","0.0-1.0-284.0-0.0","0","0","59363","","1201","","","75","31","","","1","31","training","adjacent","FE","6","5","O.jpg","L.jpg","1","0","0","",""
"","feedback","","html-keyboard-response","213","266893","0.0-1.0-285.0-0.0","0","0","59363","","null","","","null","31","","","","","","","","","","","","","","","",""
"","time_out","","html-keyboard-response","214","268897","0.0-1.0-287.0-0.0","0","0","59363","","null","","","null","31","","","","","","","","","","","","","","","",""
"","ITI","","html-keyboard-response","215","269900","0.0-1.0-288.0","0","0","59363","","null","","","null","31","","","","","","","","","","","","","","","NaN",""
"","S1","","html-keyboard-response","216","270153","0.0-1.0-290.0","0","0","59363","","null","","","null","32","","","","","","","","","","","","","","","",""
"","ISI","","html-keyboard-response","217","271156","0.0-1.0-291.0","0","0","59363","","null","","","null","32","NaN","","","","","","","","","","","","","","",""
"","S2","","html-keyboard-response","218","271409","0.0-1.0-292.0","0","0","59363","","null","","","null","32","","NaN","","","","","","","","","","","","","",""
"","response","","html-keyboard-response","219","272081","0.0-1.0-293.0-0.0","0","0","59363","","670","","","68","32","","","1","32","training","adjacent","BC","2","3","M.jpg","R.jpg","0","1","0","",""
"","feedback","","html-keyboard-response","220","273085","0.0-1.0-294.0-0.0","0","0","59363","","null","","","null","32","","","","","","","","","","","","","","","",""
"","time_out","","html-keyboard-response","221","275087","0.0-1.0-296.0-0.0","0","0","59363","","null","","","null","32","","","","","","","","","","","","","","","",""
"","ITI","","html-keyboard-response","222","276091","0.0-1.0-297.0","0","0","59363","","null","","","null","32","","","","","","","","","","","","","","","NaN",""
"","S1","","html-keyboard-response","223","276344","0.0-1.0-299.0","0","0","59363","","null","","","null","33","","","","","","","","","","","","","","","",""
"","ISI","","html-keyboard-response","224","277346","0.0-1.0-300.0","0","0","59363","","null","","","null","33","NaN","","","","","","","","","","","","","","",""
"","S2","","html-keyboard-response","225","277599","0.0-1.0-301.0","0","0","59363","","null","","","null","33","","NaN","","","","","","","","","","","","","",""
"","response","","html-keyboard-response","226","278506","0.0-1.0-302.0-0.0","0","0","59363","","905","","","68","33","","","1","33","training","adjacent","EF","5","6","L.jpg","O.jpg","0","1","0","",""
"","feedback","","html-keyboard-response","227","279509","0.0-1.0-303.0-0.0","0","0","59363","","null","","","null","33","","","","","","","","","","","","","","","",""
"","time_out","","html-keyboard-response","228","281512","0.0-1.0-305.0-0.0","0","0","59363","","null","","","null","33","","","","","","","","","","","","","","","",""
"","ITI","","html-keyboard-response","229","282515","0.0-1.0-306.0","0","0","59363","","null","","","null","33","","","","","","","","","","","","","","","NaN",""
"","S1","","html-keyboard-response","230","282768","0.0-1.0-308.0","0","0","59363","","null","","","null","34","","","","","","","","","","","","","","","",""
"","ISI","","html-keyboard-response","231","283770","0.0-1.0-309.0","0","0","59363","","null","","","null","34","NaN","","","","","","","","","","","","","","",""
"","S2","","html-keyboard-response","232","284022","0.0-1.0-310.0","0","0","59363","","null","","","null","34","","NaN","","","","","","","","","","","","","",""
"","response","","html-keyboard-response","233","284471","0.0-1.0-311.0-0.0","0","0","59363","","446","","","75","34","","","1","34","training","adjacent","ED","5","4","L.jpg","N.jpg","1","0","0","",""
"","feedback","","html-keyboard-response","234","285474","0.0-1.0-312.0-0.0","0","0","59363","","null","","","null","34","","","","","","","","","","","","","","","",""
"","time_out","","html-keyboard-response","235","287476","0.0-1.0-314.0-0.0","0","0","59363","","null","","","null","34","","","","","","","","","","","","","","","",""
"","ITI","","html-keyboard-response","236","288479","0.0-1.0-315.0","0","0","59363","","null","","","null","34","","","","","","","","","","","","","","","NaN",""
"","S1","","html-keyboard-response","237","288732","0.0-1.0-317.0","0","0","59363","","null","","","null","35","","","","","","","","","","","","","","","",""
"","ISI","","html-keyboard-response","238","289734","0.0-1.0-318.0","0","0","59363","","null","","","null","35","NaN","","","","","","","","","","","","","","",""
"","S2","","html-keyboard-response","239","289986","0.0-1.0-319.0","0","0","59363","","null","","","null","35","","NaN","","","","","","","","","","","","","",""
"","response","","html-keyboard-response","240","291215","0.0-1.0-320.0-0.0","0","0","59363","","1227","","","75","35","","","1","35","training","adjacent","EF","5","6","L.jpg","O.jpg","1","1","1","",""
"","feedback","","html-keyboard-response","241","292227","0.0-1.0-321.0-0.0","0","0","59363","","null","","","null","35","","","","","","","","","","","","","","","",""
"","ITI","","html-keyboard-response","242","293229","0.0-1.0-324.0","0","0","59363","","null","","","null","35","","","","","","","","","","","","","","","NaN",""
"","S1","","html-keyboard-response","243","293482","0.0-1.0-326.0","0","0","59363","","null","","","null","36","","","","","","","","","","","","","","","",""
"","ISI","","html-keyboard-response","244","294485","0.0-1.0-327.0","0","0","59363","","null","","","null","36","NaN","","","","","","","","","","","","","","",""
"","S2","","html-keyboard-response","245","294739","0.0-1.0-328.0","0","0","59363","","null","","","null","36","","NaN","","","","","","","","","","","","","",""
"","response","","html-keyboard-response","246","296304","0.0-1.0-329.0-0.0","0","0","59363","","1562","","","75","36","","","1","36","training","adjacent","AB","1","2","P.jpg","M.jpg","1","1","1","",""
"","feedback","","html-keyboard-response","247","297307","0.0-1.0-330.0-0.0","0","0","59363","","null","","","null","36","","","","","","","","","","","","","","","",""
"","ITI","","html-keyboard-response","248","298310","0.0-1.0-333.0","0","0","59363","","null","","","null","36","","","","","","","","","","","","","","","NaN",""
"","S1","","html-keyboard-response","249","298564","0.0-1.0-335.0","0","0","59363","","null","","","null","37","","","","","","","","","","","","","","","",""
"","ISI","","html-keyboard-response","250","299567","0.0-1.0-336.0","0","0","59363","","null","","","null","37","NaN","","","","","","","","","","","","","","",""
"","S2","","html-keyboard-response","251","299819","0.0-1.0-337.0","0","0","59363","","null","","","null","37","","NaN","","","","","","","","","","","","","",""
"","response","","html-keyboard-response","252","300410","0.0-1.0-338.0-0.0","0","0","59363","","588","","","75","37","","","1","37","training","adjacent","ED","5","4","L.jpg","N.jpg","1","0","0","",""
"","feedback","","html-keyboard-response","253","301413","0.0-1.0-339.0-0.0","0","0","59363","","null","","","null","37","","","","","","","","","","","","","","","",""
"","time_out","","html-keyboard-response","254","303417","0.0-1.0-341.0-0.0","0","0","59363","","null","","","null","37","","","","","","","","","","","","","","","",""
"","ITI","","html-keyboard-response","255","304419","0.0-1.0-342.0","0","0","59363","","null","","","null","37","","","","","","","","","","","","","","","NaN",""
"","S1","","html-keyboard-response","256","304672","0.0-1.0-344.0","0","0","59363","","null","","","null","38","","","","","","","","","","","","","","","",""
"","ISI","","html-keyboard-response","257","305675","0.0-1.0-345.0","0","0","59363","","null","","","null","38","NaN","","","","","","","","","","","","","","",""
"","S2","","html-keyboard-response","258","305928","0.0-1.0-346.0","0","0","59363","","null","","","null","38","","NaN","","","","","","","","","","","","","",""
"","response","","html-keyboard-response","259","307040","0.0-1.0-347.0-0.0","0","0","59363","","1109","","","75","38","","","1","38","training","adjacent","GF","7","6","Q.jpg","O.jpg","1","0","0","",""
"","feedback","","html-keyboard-response","260","308043","0.0-1.0-348.0-0.0","0","0","59363","","null","","","null","38","","","","","","","","","","","","","","","",""
"","time_out","","html-keyboard-response","261","310045","0.0-1.0-350.0-0.0","0","0","59363","","null","","","null","38","","","","","","","","","","","","","","","",""
"","ITI","","html-keyboard-response","262","311048","0.0-1.0-351.0","0","0","59363","","null","","","null","38","","","","","","","","","","","","","","","NaN",""
"","S1","","html-keyboard-response","263","311302","0.0-1.0-353.0","0","0","59363","","null","","","null","39","","","","","","","","","","","","","","","",""
"","ISI","","html-keyboard-response","264","312304","0.0-1.0-354.0","0","0","59363","","null","","","null","39","NaN","","","","","","","","","","","","","","",""
"","S2","","html-keyboard-response","265","312557","0.0-1.0-355.0","0","0","59363","","null","","","null","39","","NaN","","","","","","","","","","","","","",""
"","response","","html-keyboard-response","266","313256","0.0-1.0-356.0-0.0","0","0","59363","","698","","","68","39","","","1","39","training","adjacent","CD","3","4","R.jpg","N.jpg","0","1","0","",""
"","feedback","","html-keyboard-response","267","314259","0.0-1.0-357.0-0.0","0","0","59363","","null","","","null","39","","","","","","","","","","","","","","","",""
"","time_out","","html-keyboard-response","268","316262","0.0-1.0-359.0-0.0","0","0","59363","","null","","","null","39","","","","","","","","","","","","","","","",""
"","ITI","","html-keyboard-response","269","317265","0.0-1.0-360.0","0","0","59363","","null","","","null","39","","","","","","","","","","","","","","","NaN",""
"","S1","","html-keyboard-response","270","317518","0.0-1.0-362.0","0","0","59363","","null","","","null","40","","","","","","","","","","","","","","","",""
"","ISI","","html-keyboard-response","271","318520","0.0-1.0-363.0","0","0","59363","","null","","","null","40","NaN","","","","","","","","","","","","","","",""
"","S2","","html-keyboard-response","272","318774","0.0-1.0-364.0","0","0","59363","","null","","","null","40","","NaN","","","","","","","","","","","","","",""
"","response","","html-keyboard-response","273","319569","0.0-1.0-365.0-0.0","0","0","59363","","793","","","68","40","","","1","40","training","adjacent","AB","1","2","P.jpg","M.jpg","0","1","0","",""
"","feedback","","html-keyboard-response","274","320572","0.0-1.0-366.0-0.0","0","0","59363","","null","","","null","40","","","","","","","","","","","","","","","",""
"","time_out","","html-keyboard-response","275","322575","0.0-1.0-368.0-0.0","0","0","59363","","null","","","null","40","","","","","","","","","","","","","","","",""
"","ITI","","html-keyboard-response","276","323578","0.0-1.0-369.0","0","0","59363","","null","","","null","40","","","","","","","","","","","","","","","NaN",""
"","S1","","html-keyboard-response","277","323831","0.0-1.0-371.0","0","0","59363","","null","","","null","41","","","","","","","","","","","","","","","",""
"","ISI","","html-keyboard-response","278","324834","0.0-1.0-372.0","0","0","59363","","null","","","null","41","NaN","","","","","","","","","","","","","","",""
"","S2","","html-keyboard-response","279","325087","0.0-1.0-373.0","0","0","59363","","null","","","null","41","","NaN","","","","","","","","","","","","","",""
"","response","","html-keyboard-response","280","325981","0.0-1.0-374.0-0.0","0","0","59363","","891","","","75","41","","","1","41","training","adjacent","CD","3","4","R.jpg","N.jpg","1","1","1","",""
"","feedback","","html-keyboard-response","281","326984","0.0-1.0-375.0-0.0","0","0","59363","","null","","","null","41","","","","","","","","","","","","","","","",""
"","ITI","","html-keyboard-response","282","327987","0.0-1.0-378.0","0","0","59363","","null","","","null","41","","","","","","","","","","","","","","","NaN",""
"","S1","","html-keyboard-response","283","328239","0.0-1.0-380.0","0","0","59363","","null","","","null","42","","","","","","","","","","","","","","","",""
"","ISI","","html-keyboard-response","284","329242","0.0-1.0-381.0","0","0","59363","","null","","","null","42","NaN","","","","","","","","","","","","","","",""
"","S2","","html-keyboard-response","285","329495","0.0-1.0-382.0","0","0","59363","","null","","","null","42","","NaN","","","","","","","","","","","","","",""
"","response","","html-keyboard-response","286","330734","0.0-1.0-383.0-0.0","0","0","59363","","1238","","","75","42","","","1","42","training","adjacent","FG","6","7","O.jpg","Q.jpg","1","1","1","",""
"","feedback","","html-keyboard-response","287","331737","0.0-1.0-384.0-0.0","0","0","59363","","null","","","null","42","","","","","","","","","","","","","","","",""
"","ITI","","html-keyboard-response","288","332741","0.0-1.0-387.0","0","0","59363","","null","","","null","42","","","","","","","","","","","","","","","NaN",""
"","S1","","html-keyboard-response","289","332994","0.0-1.0-389.0","0","0","59363","","null","","","null","43","","","","","","","","","","","","","","","",""
"","ISI","","html-keyboard-response","290","333996","0.0-1.0-390.0","0","0","59363","","null","","","null","43","NaN","","","","","","","","","","","","","","",""
"","S2","","html-keyboard-response","291","334248","0.0-1.0-391.0","0","0","59363","","null","","","null","43","","NaN","","","","","","","","","","","","","",""
"","response","","html-keyboard-response","292","335170","0.0-1.0-392.0-0.0","0","0","59363","","920","","","75","43","","","1","43","training","adjacent","BA","2","1","M.jpg","P.jpg","1","0","0","",""
"","feedback","","html-keyboard-response","293","336174","0.0-1.0-393.0-0.0","0","0","59363","","null","","","null","43","","","","","","","","","","","","","","","",""
"","time_out","","html-keyboard-response","294","338178","0.0-1.0-395.0-0.0","0","0","59363","","null","","","null","43","","","","","","","","","","","","","","","",""
"","ITI","","html-keyboard-response","295","339181","0.0-1.0-396.0","0","0","59363","","null","","","null","43","","","","","","","","","","","","","","","NaN",""
"","S1","","html-keyboard-response","296","339434","0.0-1.0-398.0","0","0","59363","","null","","","null","44","","","","","","","","","","","","","","","",""
"","ISI","","html-keyboard-response","297","340437","0.0-1.0-399.0","0","0","59363","","null","","","null","44","NaN","","","","","","","","","","","","","","",""
"","S2","","html-keyboard-response","298","340690","0.0-1.0-400.0","0","0","59363","","null","","","null","44","","NaN","","","","","","","","","","","","","",""
"","response","","html-keyboard-response","299","341698","0.0-1.0-401.0-0.0","0","0","59363","","1006","","","75","44","","","1","44","training","adjacent","BA","2","1","M.jpg","P.jpg","1","0","0","",""
"","feedback","","html-keyboard-response","300","342701","0.0-1.0-402.0-0.0","0","0","59363","","null","","","null","44","","","","","","","","","","","","","","","",""
"","time_out","","html-keyboard-response","301","344704","0.0-1.0-404.0-0.0","0","0","59363","","null","","","null","44","","","","","","","","","","","","","","","",""
"","ITI","","html-keyboard-response","302","345706","0.0-1.0-405.0","0","0","59363","","null","","","null","44","","","","","","","","","","","","","","","NaN",""
"","S1","","html-keyboard-response","303","345960","0.0-1.0-407.0","0","0","59363","","null","","","null","45","","","","","","","","","","","","","","","",""
"","ISI","","html-keyboard-response","304","346962","0.0-1.0-408.0","0","0","59363","","null","","","null","45","NaN","","","","","","","","","","","","","","",""
"","S2","","html-keyboard-response","305","347214","0.0-1.0-409.0","0","0","59363","","null","","","null","45","","NaN","","","","","","","","","","","","","",""
"","response","","html-keyboard-response","306","348748","0.0-1.0-410.0-0.0","0","0","59363","","1532","","","75","45","","","1","45","training","adjacent","FE","6","5","O.jpg","L.jpg","1","0","0","",""
"","feedback","","html-keyboard-response","307","349751","0.0-1.0-411.0-0.0","0","0","59363","","null","","","null","45","","","","","","","","","","","","","","","",""
"","time_out","","html-keyboard-response","308","351754","0.0-1.0-413.0-0.0","0","0","59363","","null","","","null","45","","","","","","","","","","","","","","","",""
"","ITI","","html-keyboard-response","309","352756","0.0-1.0-414.0","0","0","59363","","null","","","null","45","","","","","","","","","","","","","","","NaN",""
"","S1","","html-keyboard-response","310","353009","0.0-1.0-416.0","0","0","59363","","null","","","null","46","","","","","","","","","","","","","","","",""
"","ISI","","html-keyboard-response","311","354012","0.0-1.0-417.0","0","0","59363","","null","","","null","46","NaN","","","","","","","","","","","","","","",""
"","S2","","html-keyboard-response","312","354266","0.0-1.0-418.0","0","0","59363","","null","","","null","46","","NaN","","","","","","","","","","","","","",""
"","response","","html-keyboard-response","313","356019","0.0-1.0-419.0-0.0","0","0","59363","","null","","","null","46","","","1","46","training","adjacent","ED","5","4","L.jpg","N.jpg","NaN","0","0","",""
"","too_slow_prompt","","html-keyboard-response","314","357022","0.0-1.0-421.0-0.0","1","0","59363","","null","","","null","","","","","","","","","","","","","","","","",""
"","time_out","","html-keyboard-response","315","359025","0.0-1.0-422.0-0.0","0","0","59363","","null","","","null","46","","","","","","","","","","","","","","","",""
"","ITI","","html-keyboard-response","316","360028","0.0-1.0-423.0","0","0","59363","","null","","","null","46","","","","","","","","","","","","","","","NaN",""
"","S1","","html-keyboard-response","317","360281","0.0-1.0-425.0","0","0","59363","","null","","","null","47","","","","","","","","","","","","","","","",""
"","ISI","","html-keyboard-response","318","361284","0.0-1.0-426.0","0","0","59363","","null","","","null","47","NaN","","","","","","","","","","","","","","",""
"","S2","","html-keyboard-response","319","361538","0.0-1.0-427.0","0","0","59363","","null","","","null","47","","NaN","","","","","","","","","","","","","",""
"","response","","html-keyboard-response","320","362215","0.0-1.0-428.0-0.0","0","0","59363","","674","","","68","47","","","1","47","training","adjacent","FG","6","7","O.jpg","Q.jpg","0","1","0","",""
"","feedback","","html-keyboard-response","321","363217","0.0-1.0-429.0-0.0","0","0","59363","","null","","","null","47","","","","","","","","","","","","","","","",""
"","time_out","","html-keyboard-response","322","365219","0.0-1.0-431.0-0.0","0","0","59363","","null","","","null","47","","","","","","","","","","","","","","","",""
"","ITI","","html-keyboard-response","323","366222","0.0-1.0-432.0","0","0","59363","","null","","","null","47","","","","","","","","","","","","","","","NaN",""
"","block_over","","html-keyboard-response","324","372510","0.0-1.0-433.0-0.0","0","0","59363","","6285","","","32","47","","","","","","","","","","","","","","","",""
"","S1","","html-keyboard-response","325","372763","0.0-1.0-434.0","0","0","59363","","null","","","null","48","","","","","","","","","","","","","","","",""
"","ISI","","html-keyboard-response","326","373765","0.0-1.0-435.0","0","0","59363","","null","","","null","48","NaN","","","","","","","","","","","","","","",""
"","S2","","html-keyboard-response","327","374018","0.0-1.0-436.0","0","0","59363","","null","","","null","48","","NaN","","","","","","","","","","","","","",""
"","response","","html-keyboard-response","328","374305","0.0-1.0-437.0-0.0","0","0","59363","","285","","","68","48","","","2","48","training","adjacent","EF","5","6","L.jpg","O.jpg","0","1","0","",""
"","feedback","","html-keyboard-response","329","375308","0.0-1.0-438.0-0.0","0","0","59363","","null","","","null","48","","","","","","","","","","","","","","","",""
"","time_out","","html-keyboard-response","330","377312","0.0-1.0-440.0-0.0","0","0","59363","","null","","","null","48","","","","","","","","","","","","","","","",""
"","ITI","","html-keyboard-response","331","378315","0.0-1.0-441.0","0","0","59363","","null","","","null","48","","","","","","","","","","","","","","","NaN",""
"","S1","","html-keyboard-response","332","378567","0.0-1.0-443.0","0","0","59363","","null","","","null","49","","","","","","","","","","","","","","","",""
"","ISI","","html-keyboard-response","333","379570","0.0-1.0-444.0","0","0","59363","","null","","","null","49","NaN","","","","","","","","","","","","","","",""
"","S2","","html-keyboard-response","334","379822","0.0-1.0-445.0","0","0","59363","","null","","","null","49","","NaN","","","","","","","","","","","","","",""
"","response","","html-keyboard-response","335","381145","0.0-1.0-446.0-0.0","0","0","59363","","1320","","","75","49","","","2","49","training","adjacent","EF","5","6","L.jpg","O.jpg","1","1","1","",""
"","feedback","","html-keyboard-response","336","382148","0.0-1.0-447.0-0.0","0","0","59363","","null","","","null","49","","","","","","","","","","","","","","","",""
"","ITI","","html-keyboard-response","337","383152","0.0-1.0-450.0","0","0","59363","","null","","","null","49","","","","","","","","","","","","","","","NaN",""
"","S1","","html-keyboard-response","338","383405","0.0-1.0-452.0","0","0","59363","","null","","","null","50","","","","","","","","","","","","","","","",""
"","ISI","","html-keyboard-response","339","384407","0.0-1.0-453.0","0","0","59363","","null","","","null","50","NaN","","","","","","","","","","","","","","",""
"","S2","","html-keyboard-response","340","384662","0.0-1.0-454.0","0","0","59363","","null","","","null","50","","NaN","","","","","","","","","","","","","",""
"","response","","html-keyboard-response","341","385038","0.0-1.0-455.0-0.0","0","0","59363","","375","","","75","50","","","2","50","training","adjacent","BA","2","1","M.jpg","P.jpg","1","0","0","",""
"","feedback","","html-keyboard-response","342","386042","0.0-1.0-456.0-0.0","0","0","59363","","null","","","null","50","","","","","","","","","","","","","","","",""
"","time_out","","html-keyboard-response","343","388044","0.0-1.0-458.0-0.0","0","0","59363","","null","","","null","50","","","","","","","","","","","","","","","",""
"","ITI","","html-keyboard-response","344","389047","0.0-1.0-459.0","0","0","59363","","null","","","null","50","","","","","","","","","","","","","","","NaN",""
"","S1","","html-keyboard-response","345","389301","0.0-1.0-461.0","0","0","59363","","null","","","null","51","","","","","","","","","","","","","","","",""
"","ISI","","html-keyboard-response","346","390304","0.0-1.0-462.0","0","0","59363","","null","","","null","51","NaN","","","","","","","","","","","","","","",""
"","S2","","html-keyboard-response","347","390557","0.0-1.0-463.0","0","0","59363","","null","","","null","51","","NaN","","","","","","","","","","","","","",""
"","response","","html-keyboard-response","348","392310","0.0-1.0-464.0-0.0","0","0","59363","","null","","","null","51","","","2","51","training","adjacent","GF","7","6","Q.jpg","O.jpg","NaN","0","0","",""
"","too_slow_prompt","","html-keyboard-response","349","393321","0.0-1.0-466.0-0.0","1","0","59363","","null","","","null","","","","","","","","","","","","","","","","",""
"","time_out","","html-keyboard-response","350","395324","0.0-1.0-467.0-0.0","0","0","59363","","null","","","null","51","","","","","","","","","","","","","","","",""
"","ITI","","html-keyboard-response","351","396327","0.0-1.0-468.0","0","0","59363","","null","","","null","51","","","","","","","","","","","","","","","NaN",""
"","S1","","html-keyboard-response","352","396580","0.0-1.0-470.0","0","0","59363","","null","","","null","52","","","","","","","","","","","","","","","",""
"","ISI","","html-keyboard-response","353","397583","0.0-1.0-471.0","0","0","59363","","null","","","null","52","NaN","","","","","","","","","","","","","","",""
"","S2","","html-keyboard-response","354","397837","0.0-1.0-472.0","0","0","59363","","null","","","null","52","","NaN","","","","","","","","","","","","","",""
"","response","","html-keyboard-response","355","398753","0.0-1.0-473.0-0.0","0","0","59363","","915","","","68","52","","","2","52","training","adjacent","AB","1","2","P.jpg","M.jpg","0","1","0","",""
"","feedback","","html-keyboard-response","356","399756","0.0-1.0-474.0-0.0","0","0","59363","","null","","","null","52","","","","","","","","","","","","","","","",""
"","time_out","","html-keyboard-response","357","401760","0.0-1.0-476.0-0.0","0","0","59363","","null","","","null","52","","","","","","","","","","","","","","","",""
"","ITI","","html-keyboard-response","358","402762","0.0-1.0-477.0","0","0","59363","","null","","","null","52","","","","","","","","","","","","","","","NaN",""
"","S1","","html-keyboard-response","359","403016","0.0-1.0-479.0","0","0","59363","","null","","","null","53","","","","","","","","","","","","","","","",""
"","ISI","","html-keyboard-response","360","404017","0.0-1.0-480.0","0","0","59363","","null","","","null","53","NaN","","","","","","","","","","","","","","",""
"","S2","","html-keyboard-response","361","404271","0.0-1.0-481.0","0","0","59363","","null","","","null","53","","NaN","","","","","","","","","","","","","",""
"","response","","html-keyboard-response","362","404874","0.0-1.0-482.0-0.0","0","0","59363","","602","","","75","53","","","2","53","training","adjacent","FE","6","5","O.jpg","L.jpg","1","0","0","",""
"","feedback","","html-keyboard-response","363","405878","0.0-1.0-483.0-0.0","0","0","59363","","null","","","null","53","","","","","","","","","","","","","","","",""
"","time_out","","html-keyboard-response","364","407881","0.0-1.0-485.0-0.0","0","0","59363","","null","","","null","53","","","","","","","","","","","","","","","",""
"","ITI","","html-keyboard-response","365","408885","0.0-1.0-486.0","0","0","59363","","null","","","null","53","","","","","","","","","","","","","","","NaN",""
"","S1","","html-keyboard-response","366","409138","0.0-1.0-488.0","0","0","59363","","null","","","null","54","","","","","","","","","","","","","","","",""
"","ISI","","html-keyboard-response","367","410142","0.0-1.0-489.0","0","0","59363","","null","","","null","54","NaN","","","","","","","","","","","","","","",""
"","S2","","html-keyboard-response","368","410395","0.0-1.0-490.0","0","0","59363","","null","","","null","54","","NaN","","","","","","","","","","","","","",""
"","response","","html-keyboard-response","369","411133","0.0-1.0-491.0-0.0","0","0","59363","","736","","","68","54","","","2","54","training","adjacent","DC","4","3","N.jpg","R.jpg","0","0","1","",""
"","feedback","","html-keyboard-response","370","412136","0.0-1.0-492.0-0.0","0","0","59363","","null","","","null","54","","","","","","","","","","","","","","","",""
"","ITI","","html-keyboard-response","371","413141","0.0-1.0-495.0","0","0","59363","","null","","","null","54","","","","","","","","","","","","","","","NaN",""
"","S1","","html-keyboard-response","372","413394","0.0-1.0-497.0","0","0","59363","","null","","","null","55","","","","","","","","","","","","","","","",""
"","ISI","","html-keyboard-response","373","414397","0.0-1.0-498.0","0","0","59363","","null","","","null","55","NaN","","","","","","","","","","","","","","",""
"","S2","","html-keyboard-response","374","414650","0.0-1.0-499.0","0","0","59363","","null","","","null","55","","NaN","","","","","","","","","","","","","",""
"","response","","html-keyboard-response","375","415128","0.0-1.0-500.0-0.0","0","0","59363","","476","","","68","55","","","2","55","training","adjacent","GF","7","6","Q.jpg","O.jpg","0","0","1","",""
"","feedback","","html-keyboard-response","376","416131","0.0-1.0-501.0-0.0","0","0","59363","","null","","","null","55","","","","","","","","","","","","","","","",""
"","ITI","","html-keyboard-response","377","417135","0.0-1.0-504.0","0","0","59363","","null","","","null","55","","","","","","","","","","","","","","","NaN",""
"","S1","","html-keyboard-response","378","417389","0.0-1.0-506.0","0","0","59363","","null","","","null","56","","","","","","","","","","","","","","","",""
"","ISI","","html-keyboard-response","379","418391","0.0-1.0-507.0","0","0","59363","","null","","","null","56","NaN","","","","","","","","","","","","","","",""
"","S2","","html-keyboard-response","380","418644","0.0-1.0-508.0","0","0","59363","","null","","","null","56","","NaN","","","","","","","","","","","","","",""
"","response","","html-keyboard-response","381","419393","0.0-1.0-509.0-0.0","0","0","59363","","747","","","75","56","","","2","56","training","adjacent","CD","3","4","R.jpg","N.jpg","1","1","1","",""
"","feedback","","html-keyboard-response","382","420397","0.0-1.0-510.0-0.0","0","0","59363","","null","","","null","56","","","","","","","","","","","","","","","",""
"","ITI","","html-keyboard-response","383","421400","0.0-1.0-513.0","0","0","59363","","null","","","null","56","","","","","","","","","","","","","","","NaN",""
"","S1","","html-keyboard-response","384","421654","0.0-1.0-515.0","0","0","59363","","null","","","null","57","","","","","","","","","","","","","","","",""
"","ISI","","html-keyboard-response","385","422657","0.0-1.0-516.0","0","0","59363","","null","","","null","57","NaN","","","","","","","","","","","","","","",""
"","S2","","html-keyboard-response","386","422911","0.0-1.0-517.0","0","0","59363","","null","","","null","57","","NaN","","","","","","","","","","","","","",""
"","response","","html-keyboard-response","387","424081","0.0-1.0-518.0-0.0","0","0","59363","","1169","","","68","57","","","2","57","training","adjacent","CD","3","4","R.jpg","N.jpg","0","1","0","",""
"","feedback","","html-keyboard-response","388","425085","0.0-1.0-519.0-0.0","0","0","59363","","null","","","null","57","","","","","","","","","","","","","","","",""
"","time_out","","html-keyboard-response","389","427087","0.0-1.0-521.0-0.0","0","0","59363","","null","","","null","57","","","","","","","","","","","","","","","",""
"","ITI","","html-keyboard-response","390","428089","0.0-1.0-522.0","0","0","59363","","null","","","null","57","","","","","","","","","","","","","","","NaN",""
"","S1","","html-keyboard-response","391","428357","0.0-1.0-524.0","0","0","59363","","null","","","null","58","","","","","","","","","","","","","","","",""
"","ISI","","html-keyboard-response","392","429361","0.0-1.0-525.0","0","0","59363","","null","","","null","58","NaN","","","","","","","","","","","","","","",""
"","S2","","html-keyboard-response","393","429614","0.0-1.0-526.0","0","0","59363","","null","","","null","58","","NaN","","","","","","","","","","","","","",""
"","response","","html-keyboard-response","394","430248","0.0-1.0-527.0-0.0","0","0","59363","","632","","","75","58","","","2","58","training","adjacent","EF","5","6","L.jpg","O.jpg","1","1","1","",""
"","feedback","","html-keyboard-response","395","431252","0.0-1.0-528.0-0.0","0","0","59363","","null","","","null","58","","","","","","","","","","","","","","","",""
"","ITI","","html-keyboard-response","396","432254","0.0-1.0-531.0","0","0","59363","","null","","","null","58","","","","","","","","","","","","","","","NaN",""
"","S1","","html-keyboard-response","397","432507","0.0-1.0-533.0","0","0","59363","","null","","","null","59","","","","","","","","","","","","","","","",""
"","ISI","","html-keyboard-response","398","433509","0.0-1.0-534.0","0","0","59363","","null","","","null","59","NaN","","","","","","","","","","","","","","",""
"","S2","","html-keyboard-response","399","433762","0.0-1.0-535.0","0","0","59363","","null","","","null","59","","NaN","","","","","","","","","","","","","",""
"","response","","html-keyboard-response","400","434019","0.0-1.0-536.0-0.0","0","0","59363","","255","","","75","59","","","2","59","training","adjacent","FE","6","5","O.jpg","L.jpg","1","0","0","",""
"","feedback","","html-keyboard-response","401","435023","0.0-1.0-537.0-0.0","0","0","59363","","null","","","null","59","","","","","","","","","","","","","","","",""
"","time_out","","html-keyboard-response","402","437026","0.0-1.0-539.0-0.0","0","0","59363","","null","","","null","59","","","","","","","","","","","","","","","",""
"","ITI","","html-keyboard-response","403","438029","0.0-1.0-540.0","0","0","59363","","null","","","null","59","","","","","","","","","","","","","","","NaN",""
"","S1","","html-keyboard-response","404","438282","0.0-1.0-542.0","0","0","59363","","null","","","null","60","","","","","","","","","","","","","","","",""
"","ISI","","html-keyboard-response","405","439284","0.0-1.0-543.0","0","0","59363","","null","","","null","60","NaN","","","","","","","","","","","","","","",""
"","S2","","html-keyboard-response","406","439537","0.0-1.0-544.0","0","0","59363","","null","","","null","60","","NaN","","","","","","","","","","","","","",""
"","response","","html-keyboard-response","407","439987","0.0-1.0-545.0-0.0","0","0","59363","","448","","","68","60","","","2","60","training","adjacent","CB","3","2","R.jpg","M.jpg","0","0","1","",""
"","feedback","","html-keyboard-response","408","440991","0.0-1.0-546.0-0.0","0","0","59363","","null","","","null","60","","","","","","","","","","","","","","","",""
"","ITI","","html-keyboard-response","409","441995","0.0-1.0-549.0","0","0","59363","","null","","","null","60","","","","","","","","","","","","","","","NaN",""
"","S1","","html-keyboard-response","410","442248","0.0-1.0-551.0","0","0","59363","","null","","","null","61","","","","","","","","","","","","","","","",""
"","ISI","","html-keyboard-response","411","443251","0.0-1.0-552.0","0","0","59363","","null","","","null","61","NaN","","","","","","","","","","","","","","",""
"","S2","","html-keyboard-response","412","443505","0.0-1.0-553.0","0","0","59363","","null","","","null","61","","NaN","","","","","","","","","","","","","",""
"","response","","html-keyboard-response","413","443695","0.0-1.0-554.0-0.0","0","0","59363","","189","","","68","61","","","2","61","training","adjacent","ED","5","4","L.jpg","N.jpg","0","0","1","",""
"","feedback","","html-keyboard-response","414","444699","0.0-1.0-555.0-0.0","0","0","59363","","null","","","null","61","","","","","","","","","","","","","","","",""
"","ITI","","html-keyboard-response","415","445701","0.0-1.0-558.0","0","0","59363","","null","","","null","61","","","","","","","","","","","","","","","NaN",""
"","S1","","html-keyboard-response","416","445954","0.0-1.0-560.0","0","0","59363","","null","","","null","62","","","","","","","","","","","","","","","",""
"","ISI","","html-keyboard-response","417","446956","0.0-1.0-561.0","0","0","59363","","null","","","null","62","NaN","","","","","","","","","","","","","","",""
"","S2","","html-keyboard-response","418","447209","0.0-1.0-562.0","0","0","59363","","null","","","null","62","","NaN","","","","","","","","","","","","","",""
"","response","","html-keyboard-response","419","447259","0.0-1.0-563.0-0.0","0","0","59363","","47","","","68","62","","","2","62","training","adjacent","DC","4","3","N.jpg","R.jpg","0","0","1","",""
"","feedback","","html-keyboard-response","420","448262","0.0-1.0-564.0-0.0","0","0","59363","","null","","","null","62","","","","","","","","","","","","","","","",""
"","ITI","","html-keyboard-response","421","449266","0.0-1.0-567.0","0","0","59363","","null","","","null","62","","","","","","","","","","","","","","","NaN",""
"","S1","","html-keyboard-response","422","449519","0.0-1.0-569.0","0","0","59363","","null","","","null","63","","","","","","","","","","","","","","","",""
"","ISI","","html-keyboard-response","423","450523","0.0-1.0-570.0","0","0","59363","","null","","","null","63","NaN","","","","","","","","","","","","","","",""
"","S2","","html-keyboard-response","424","450777","0.0-1.0-571.0","0","0","59363","","null","","","null","63","","NaN","","","","","","","","","","","","","",""
"","response","","html-keyboard-response","425","450900","0.0-1.0-572.0-0.0","0","0","59363","","120","","","75","63","","","2","63","training","adjacent","FG","6","7","O.jpg","Q.jpg","1","1","1","",""
"","feedback","","html-keyboard-response","426","451903","0.0-1.0-573.0-0.0","0","0","59363","","null","","","null","63","","","","","","","","","","","","","","","",""
"","ITI","","html-keyboard-response","427","452906","0.0-1.0-576.0","0","0","59363","","null","","","null","63","","","","","","","","","","","","","","","NaN",""
"","S1","","html-keyboard-response","428","453158","0.0-1.0-578.0","0","0","59363","","null","","","null","64","","","","","","","","","","","","","","","",""
"","ISI","","html-keyboard-response","429","454161","0.0-1.0-579.0","0","0","59363","","null","","","null","64","NaN","","","","","","","","","","","","","","",""
"","S2","","html-keyboard-response","430","454415","0.0-1.0-580.0","0","0","59363","","null","","","null","64","","NaN","","","","","","","","","","","","","",""
"","response","","html-keyboard-response","431","454505","0.0-1.0-581.0-0.0","0","0","59363","","88","","","68","64","","","2","64","training","adjacent","BC","2","3","M.jpg","R.jpg","0","1","0","",""
"","feedback","","html-keyboard-response","432","455507","0.0-1.0-582.0-0.0","0","0","59363","","null","","","null","64","","","","","","","","","","","","","","","",""
"","time_out","","html-keyboard-response","433","457511","0.0-1.0-584.0-0.0","0","0","59363","","null","","","null","64","","","","","","","","","","","","","","","",""
"","ITI","","html-keyboard-response","434","458514","0.0-1.0-585.0","0","0","59363","","null","","","null","64","","","","","","","","","","","","","","","NaN",""
"","S1","","html-keyboard-response","435","458766","0.0-1.0-587.0","0","0","59363","","null","","","null","65","","","","","","","","","","","","","","","",""
"","ISI","","html-keyboard-response","436","459769","0.0-1.0-588.0","0","0","59363","","null","","","null","65","NaN","","","","","","","","","","","","","","",""
"","S2","","html-keyboard-response","437","460029","0.0-1.0-589.0","0","0","59363","","null","","","null","65","","NaN","","","","","","","","","","","","","",""
"","response","","html-keyboard-response","438","460250","0.0-1.0-590.0-0.0","0","0","59363","","219","","","75","65","","","2","65","training","adjacent","DE","4","5","N.jpg","L.jpg","1","1","1","",""
"","feedback","","html-keyboard-response","439","461253","0.0-1.0-591.0-0.0","0","0","59363","","null","","","null","65","","","","","","","","","","","","","","","",""
"","ITI","","html-keyboard-response","440","462257","0.0-1.0-594.0","0","0","59363","","null","","","null","65","","","","","","","","","","","","","","","NaN",""
"","S1","","html-keyboard-response","441","462511","0.0-1.0-596.0","0","0","59363","","null","","","null","66","","","","","","","","","","","","","","","",""
"","ISI","","html-keyboard-response","442","463515","0.0-1.0-597.0","0","0","59363","","null","","","null","66","NaN","","","","","","","","","","","","","","",""
"","S2","","html-keyboard-response","443","463769","0.0-1.0-598.0","0","0","59363","","null","","","null","66","","NaN","","","","","","","","","","","","","",""
"","response","","html-keyboard-response","444","464029","0.0-1.0-599.0-0.0","0","0","59363","","258","","","68","66","","","2","66","training","adjacent","BA","2","1","M.jpg","P.jpg","0","0","1","",""
"","feedback","","html-keyboard-response","445","465032","0.0-1.0-600.0-0.0","0","0","59363","","null","","","null","66","","","","","","","","","","","","","","","",""
"","ITI","","html-keyboard-response","446","466035","0.0-1.0-603.0","0","0","59363","","null","","","null","66","","","","","","","","","","","","","","","NaN",""
"","S1","","html-keyboard-response","447","466289","0.0-1.0-605.0","0","0","59363","","null","","","null","67","","","","","","","","","","","","","","","",""
"","ISI","","html-keyboard-response","448","467291","0.0-1.0-606.0","0","0","59363","","null","","","null","67","NaN","","","","","","","","","","","","","","",""
"","S2","","html-keyboard-response","449","467544","0.0-1.0-607.0","0","0","59363","","null","","","null","67","","NaN","","","","","","","","","","","","","",""
"","response","","html-keyboard-response","450","467960","0.0-1.0-608.0-0.0","0","0","59363","","413","","","75","67","","","2","67","training","adjacent","BA","2","1","M.jpg","P.jpg","1","0","0","",""
"","feedback","","html-keyboard-response","451","468963","0.0-1.0-609.0-0.0","0","0","59363","","null","","","null","67","","","","","","","","","","","","","","","",""
"","time_out","","html-keyboard-response","452","470967","0.0-1.0-611.0-0.0","0","0","59363","","null","","","null","67","","","","","","","","","","","","","","","",""
"","ITI","","html-keyboard-response","453","471978","0.0-1.0-612.0","0","0","59363","","null","","","null","67","","","","","","","","","","","","","","","NaN",""
"","S1","","html-keyboard-response","454","472231","0.0-1.0-614.0","0","0","59363","","null","","","null","68","","","","","","","","","","","","","","","",""
"","ISI","","html-keyboard-response","455","473233","0.0-1.0-615.0","0","0","59363","","null","","","null","68","NaN","","","","","","","","","","","","","","",""
"","S2","","html-keyboard-response","456","473487","0.0-1.0-616.0","0","0","59363","","null","","","null","68","","NaN","","","","","","","","","","","","","",""
"","response","","html-keyboard-response","457","473896","0.0-1.0-617.0-0.0","0","0","59363","","407","","","68","68","","","2","68","training","adjacent","FG","6","7","O.jpg","Q.jpg","0","1","0","",""
"","feedback","","html-keyboard-response","458","474900","0.0-1.0-618.0-0.0","0","0","59363","","null","","","null","68","","","","","","","","","","","","","","","",""
"","time_out","","html-keyboard-response","459","476903","0.0-1.0-620.0-0.0","0","0","59363","","null","","","null","68","","","","","","","","","","","","","","","",""
"","ITI","","html-keyboard-response","460","477907","0.0-1.0-621.0","0","0","59363","","null","","","null","68","","","","","","","","","","","","","","","NaN",""
"","S1","","html-keyboard-response","461","478161","0.0-1.0-623.0","0","0","59363","","null","","","null","69","","","","","","","","","","","","","","","",""
"","ISI","","html-keyboard-response","462","479164","0.0-1.0-624.0","0","0","59363","","null","","","null","69","NaN","","","","","","","","","","","","","","",""
"","S2","","html-keyboard-response","463","479418","0.0-1.0-625.0","0","0","59363","","null","","","null","69","","NaN","","","","","","","","","","","","","",""
"","response","","html-keyboard-response","464","479865","0.0-1.0-626.0-0.0","0","0","59363","","445","","","75","69","","","2","69","training","adjacent","FE","6","5","O.jpg","L.jpg","1","0","0","",""
"","feedback","","html-keyboard-response","465","480869","0.0-1.0-627.0-0.0","0","0","59363","","null","","","null","69","","","","","","","","","","","","","","","",""
"","time_out","","html-keyboard-response","466","482872","0.0-1.0-629.0-0.0","0","0","59363","","null","","","null","69","","","","","","","","","","","","","","","",""
"","ITI","","html-keyboard-response","467","483875","0.0-1.0-630.0","0","0","59363","","null","","","null","69","","","","","","","","","","","","","","","NaN",""
"","S1","","html-keyboard-response","468","484128","0.0-1.0-632.0","0","0","59363","","null","","","null","70","","","","","","","","","","","","","","","",""
"","ISI","","html-keyboard-response","469","485132","0.0-1.0-633.0","0","0","59363","","null","","","null","70","NaN","","","","","","","","","","","","","","",""
"","S2","","html-keyboard-response","470","485385","0.0-1.0-634.0","0","0","59363","","null","","","null","70","","NaN","","","","","","","","","","","","","",""
"","response","","html-keyboard-response","471","485807","0.0-1.0-635.0-0.0","0","0","59363","","419","","","75","70","","","2","70","training","adjacent","BC","2","3","M.jpg","R.jpg","1","1","1","",""
"","feedback","","html-keyboard-response","472","486811","0.0-1.0-636.0-0.0","0","0","59363","","null","","","null","70","","","","","","","","","","","","","","","",""
"","ITI","","html-keyboard-response","473","487814","0.0-1.0-639.0","0","0","59363","","null","","","null","70","","","","","","","","","","","","","","","NaN",""
"","S1","","html-keyboard-response","474","488067","0.0-1.0-641.0","0","0","59363","","null","","","null","71","","","","","","","","","","","","","","","",""
"","ISI","","html-keyboard-response","475","489069","0.0-1.0-642.0","0","0","59363","","null","","","null","71","NaN","","","","","","","","","","","","","","",""
"","S2","","html-keyboard-response","476","489322","0.0-1.0-643.0","0","0","59363","","null","","","null","71","","NaN","","","","","","","","","","","","","",""
"","response","","html-keyboard-response","477","489901","0.0-1.0-644.0-0.0","0","0","59363","","576","","","68","71","","","2","71","training","adjacent","CD","3","4","R.jpg","N.jpg","0","1","0","",""
"","feedback","","html-keyboard-response","478","490904","0.0-1.0-645.0-0.0","0","0","59363","","null","","","null","71","","","","","","","","","","","","","","","",""
"","time_out","","html-keyboard-response","479","492907","0.0-1.0-647.0-0.0","0","0","59363","","null","","","null","71","","","","","","","","","","","","","","","",""
"","ITI","","html-keyboard-response","480","493911","0.0-1.0-648.0","0","0","59363","","null","","","null","71","","","","","","","","","","","","","","","NaN",""
"","S1","","html-keyboard-response","481","494164","0.0-1.0-650.0","0","0","59363","","null","","","null","72","","","","","","","","","","","","","","","",""
"","ISI","","html-keyboard-response","482","495167","0.0-1.0-651.0","0","0","59363","","null","","","null","72","NaN","","","","","","","","","","","","","","",""
"","S2","","html-keyboard-response","483","495419","0.0-1.0-652.0","0","0","59363","","null","","","null","72","","NaN","","","","","","","","","","","","","",""
"","response","","html-keyboard-response","484","495832","0.0-1.0-653.0-0.0","0","0","59363","","411","","","75","72","","","2","72","training","adjacent","CD","3","4","R.jpg","N.jpg","1","1","1","",""
"","feedback","","html-keyboard-response","485","496836","0.0-1.0-654.0-0.0","0","0","59363","","null","","","null","72","","","","","","","","","","","","","","","",""
"","ITI","","html-keyboard-response","486","497838","0.0-1.0-657.0","0","0","59363","","null","","","null","72","","","","","","","","","","","","","","","NaN",""
"","S1","","html-keyboard-response","487","498099","0.0-1.0-659.0","0","0","59363","","null","","","null","73","","","","","","","","","","","","","","","",""
"","ISI","","html-keyboard-response","488","499102","0.0-1.0-660.0","0","0","59363","","null","","","null","73","NaN","","","","","","","","","","","","","","",""
"","S2","","html-keyboard-response","489","499355","0.0-1.0-661.0","0","0","59363","","null","","","null","73","","NaN","","","","","","","","","","","","","",""
"","response","","html-keyboard-response","490","500166","0.0-1.0-662.0-0.0","0","0","59363","","810","","","68","73","","","2","73","training","adjacent","DC","4","3","N.jpg","R.jpg","0","0","1","",""
"","feedback","","html-keyboard-response","491","501169","0.0-1.0-663.0-0.0","0","0","59363","","null","","","null","73","","","","","","","","","","","","","","","",""
"","ITI","","html-keyboard-response","492","502172","0.0-1.0-666.0","0","0","59363","","null","","","null","73","","","","","","","","","","","","","","","NaN",""
"","S1","","html-keyboard-response","493","502425","0.0-1.0-668.0","0","0","59363","","null","","","null","74","","","","","","","","","","","","","","","",""
"","ISI","","html-keyboard-response","494","503428","0.0-1.0-669.0","0","0","59363","","null","","","null","74","NaN","","","","","","","","","","","","","","",""
"","S2","","html-keyboard-response","495","503681","0.0-1.0-670.0","0","0","59363","","null","","","null","74","","NaN","","","","","","","","","","","","","",""
"","response","","html-keyboard-response","496","503973","0.0-1.0-671.0-0.0","0","0","59363","","290","","","75","74","","","2","74","training","adjacent","DE","4","5","N.jpg","L.jpg","1","1","1","",""
"","feedback","","html-keyboard-response","497","504978","0.0-1.0-672.0-0.0","0","0","59363","","null","","","null","74","","","","","","","","","","","","","","","",""
"","ITI","","html-keyboard-response","498","505982","0.0-1.0-675.0","0","0","59363","","null","","","null","74","","","","","","","","","","","","","","","NaN",""
"","S1","","html-keyboard-response","499","506235","0.0-1.0-677.0","0","0","59363","","null","","","null","75","","","","","","","","","","","","","","","",""
"","ISI","","html-keyboard-response","500","507241","0.0-1.0-678.0","0","0","59363","","null","","","null","75","NaN","","","","","","","","","","","","","","",""
"","S2","","html-keyboard-response","501","507495","0.0-1.0-679.0","0","0","59363","","null","","","null","75","","NaN","","","","","","","","","","","","","",""
"","response","","html-keyboard-response","502","507806","0.0-1.0-680.0-0.0","0","0","59363","","308","","","75","75","","","2","75","training","adjacent","ED","5","4","L.jpg","N.jpg","1","0","0","",""
"","feedback","","html-keyboard-response","503","508809","0.0-1.0-681.0-0.0","0","0","59363","","null","","","null","75","","","","","","","","","","","","","","","",""
"","time_out","","html-keyboard-response","504","510812","0.0-1.0-683.0-0.0","0","0","59363","","null","","","null","75","","","","","","","","","","","","","","","",""
"","ITI","","html-keyboard-response","505","511814","0.0-1.0-684.0","0","0","59363","","null","","","null","75","","","","","","","","","","","","","","","NaN",""
"","S1","","html-keyboard-response","506","512068","0.0-1.0-686.0","0","0","59363","","null","","","null","76","","","","","","","","","","","","","","","",""
"","ISI","","html-keyboard-response","507","513070","0.0-1.0-687.0","0","0","59363","","null","","","null","76","NaN","","","","","","","","","","","","","","",""
"","S2","","html-keyboard-response","508","513323","0.0-1.0-688.0","0","0","59363","","null","","","null","76","","NaN","","","","","","","","","","","","","",""
"","response","","html-keyboard-response","509","513738","0.0-1.0-689.0-0.0","0","0","59363","","413","","","68","76","","","2","76","training","adjacent","CB","3","2","R.jpg","M.jpg","0","0","1","",""
"","feedback","","html-keyboard-response","510","514743","0.0-1.0-690.0-0.0","0","0","59363","","null","","","null","76","","","","","","","","","","","","","","","",""
"","ITI","","html-keyboard-response","511","515747","0.0-1.0-693.0","0","0","59363","","null","","","null","76","","","","","","","","","","","","","","","NaN",""
"","S1","","html-keyboard-response","512","516000","0.0-1.0-695.0","0","0","59363","","null","","","null","77","","","","","","","","","","","","","","","",""
"","ISI","","html-keyboard-response","513","517002","0.0-1.0-696.0","0","0","59363","","null","","","null","77","NaN","","","","","","","","","","","","","","",""
"","S2","","html-keyboard-response","514","517255","0.0-1.0-697.0","0","0","59363","","null","","","null","77","","NaN","","","","","","","","","","","","","",""
"","response","","html-keyboard-response","515","517539","0.0-1.0-698.0-0.0","0","0","59363","","282","","","68","77","","","2","77","training","adjacent","BC","2","3","M.jpg","R.jpg","0","1","0","",""
"","feedback","","html-keyboard-response","516","518543","0.0-1.0-699.0-0.0","0","0","59363","","null","","","null","77","","","","","","","","","","","","","","","",""
"","time_out","","html-keyboard-response","517","520547","0.0-1.0-701.0-0.0","0","0","59363","","null","","","null","77","","","","","","","","","","","","","","","",""
"","ITI","","html-keyboard-response","518","521550","0.0-1.0-702.0","0","0","59363","","null","","","null","77","","","","","","","","","","","","","","","NaN",""
"","S1","","html-keyboard-response","519","521803","0.0-1.0-704.0","0","0","59363","","null","","","null","78","","","","","","","","","","","","","","","",""
"","ISI","","html-keyboard-response","520","522807","0.0-1.0-705.0","0","0","59363","","null","","","null","78","NaN","","","","","","","","","","","","","","",""
"","S2","","html-keyboard-response","521","523060","0.0-1.0-706.0","0","0","59363","","null","","","null","78","","NaN","","","","","","","","","","","","","",""
"","response","","html-keyboard-response","522","523377","0.0-1.0-707.0-0.0","0","0","59363","","314","","","75","78","","","2","78","training","adjacent","CB","3","2","R.jpg","M.jpg","1","0","0","",""
"","feedback","","html-keyboard-response","523","524380","0.0-1.0-708.0-0.0","0","0","59363","","null","","","null","78","","","","","","","","","","","","","","","",""
"","time_out","","html-keyboard-response","524","526384","0.0-1.0-710.0-0.0","0","0","59363","","null","","","null","78","","","","","","","","","","","","","","","",""
"","ITI","","html-keyboard-response","525","527387","0.0-1.0-711.0","0","0","59363","","null","","","null","78","","","","","","","","","","","","","","","NaN",""
"","S1","","html-keyboard-response","526","527640","0.0-1.0-713.0","0","0","59363","","null","","","null","79","","","","","","","","","","","","","","","",""
"","ISI","","html-keyboard-response","527","528643","0.0-1.0-714.0","0","0","59363","","null","","","null","79","NaN","","","","","","","","","","","","","","",""
"","S2","","html-keyboard-response","528","528895","0.0-1.0-715.0","0","0","59363","","null","","","null","79","","NaN","","","","","","","","","","","","","",""
"","response","","html-keyboard-response","529","529329","0.0-1.0-716.0-0.0","0","0","59363","","432","","","68","79","","","2","79","training","adjacent","AB","1","2","P.jpg","M.jpg","0","1","0","",""
"","feedback","","html-keyboard-response","530","530333","0.0-1.0-717.0-0.0","0","0","59363","","null","","","null","79","","","","","","","","","","","","","","","",""
"","time_out","","html-keyboard-response","531","532336","0.0-1.0-719.0-0.0","0","0","59363","","null","","","null","79","","","","","","","","","","","","","","","",""
"","ITI","","html-keyboard-response","532","533339","0.0-1.0-720.0","0","0","59363","","null","","","null","79","","","","","","","","","","","","","","","NaN",""
"","S1","","html-keyboard-response","533","533591","0.0-1.0-722.0","0","0","59363","","null","","","null","80","","","","","","","","","","","","","","","",""
"","ISI","","html-keyboard-response","534","534594","0.0-1.0-723.0","0","0","59363","","null","","","null","80","NaN","","","","","","","","","","","","","","",""
"","S2","","html-keyboard-response","535","534847","0.0-1.0-724.0","0","0","59363","","null","","","null","80","","NaN","","","","","","","","","","","","","",""
"","response","","html-keyboard-response","536","535310","0.0-1.0-725.0-0.0","0","0","59363","","460","","","75","80","","","2","80","training","adjacent","CB","3","2","R.jpg","M.jpg","1","0","0","",""
"","feedback","","html-keyboard-response","537","536314","0.0-1.0-726.0-0.0","0","0","59363","","null","","","null","80","","","","","","","","","","","","","","","",""
"","time_out","","html-keyboard-response","538","538317","0.0-1.0-728.0-0.0","0","0","59363","","null","","","null","80","","","","","","","","","","","","","","","",""
"","ITI","","html-keyboard-response","539","539319","0.0-1.0-729.0","0","0","59363","","null","","","null","80","","","","","","","","","","","","","","","NaN",""
"","S1","","html-keyboard-response","540","539585","0.0-1.0-731.0","0","0","59363","","null","","","null","81","","","","","","","","","","","","","","","",""
"","ISI","","html-keyboard-response","541","540587","0.0-1.0-732.0","0","0","59363","","null","","","null","81","NaN","","","","","","","","","","","","","","",""
"","S2","","html-keyboard-response","542","540841","0.0-1.0-733.0","0","0","59363","","null","","","null","81","","NaN","","","","","","","","","","","","","",""
"","response","","html-keyboard-response","543","541113","0.0-1.0-734.0-0.0","0","0","59363","","271","","","68","81","","","2","81","training","adjacent","DE","4","5","N.jpg","L.jpg","0","1","0","",""
"","feedback","","html-keyboard-response","544","542117","0.0-1.0-735.0-0.0","0","0","59363","","null","","","null","81","","","","","","","","","","","","","","","",""
"","time_out","","html-keyboard-response","545","544120","0.0-1.0-737.0-0.0","0","0","59363","","null","","","null","81","","","","","","","","","","","","","","","",""
"","ITI","","html-keyboard-response","546","545123","0.0-1.0-738.0","0","0","59363","","null","","","null","81","","","","","","","","","","","","","","","NaN",""
"","S1","","html-keyboard-response","547","545377","0.0-1.0-740.0","0","0","59363","","null","","","null","82","","","","","","","","","","","","","","","",""
"","ISI","","html-keyboard-response","548","546380","0.0-1.0-741.0","0","0","59363","","null","","","null","82","NaN","","","","","","","","","","","","","","",""
"","S2","","html-keyboard-response","549","546634","0.0-1.0-742.0","0","0","59363","","null","","","null","82","","NaN","","","","","","","","","","","","","",""
"","response","","html-keyboard-response","550","547068","0.0-1.0-743.0-0.0","0","0","59363","","433","","","75","82","","","2","82","training","adjacent","FE","6","5","O.jpg","L.jpg","1","0","0","",""
"","feedback","","html-keyboard-response","551","548073","0.0-1.0-744.0-0.0","0","0","59363","","null","","","null","82","","","","","","","","","","","","","","","",""
"","time_out","","html-keyboard-response","552","550076","0.0-1.0-746.0-0.0","0","0","59363","","null","","","null","82","","","","","","","","","","","","","","","",""
"","ITI","","html-keyboard-response","553","551078","0.0-1.0-747.0","0","0","59363","","null","","","null","82","","","","","","","","","","","","","","","NaN",""
"","S1","","html-keyboard-response","554","551340","0.0-1.0-749.0","0","0","59363","","null","","","null","83","","","","","","","","","","","","","","","",""
"","ISI","","html-keyboard-response","555","552344","0.0-1.0-750.0","0","0","59363","","null","","","null","83","NaN","","","","","","","","","","","","","","",""
"","S2","","html-keyboard-response","556","552597","0.0-1.0-751.0","0","0","59363","","null","","","null","83","","NaN","","","","","","","","","","","","","",""
"","response","","html-keyboard-response","557","553009","0.0-1.0-752.0-0.0","0","0","59363","","409","","","68","83","","","2","83","training","adjacent","DE","4","5","N.jpg","L.jpg","0","1","0","",""
"","feedback","","html-keyboard-response","558","554014","0.0-1.0-753.0-0.0","0","0","59363","","null","","","null","83","","","","","","","","","","","","","","","",""
"","time_out","","html-keyboard-response","559","556017","0.0-1.0-755.0-0.0","0","0","59363","","null","","","null","83","","","","","","","","","","","","","","","",""
"","ITI","","html-keyboard-response","560","557020","0.0-1.0-756.0","0","0","59363","","null","","","null","83","","","","","","","","","","","","","","","NaN",""
"","S1","","html-keyboard-response","561","557273","0.0-1.0-758.0","0","0","59363","","null","","","null","84","","","","","","","","","","","","","","","",""
"","ISI","","html-keyboard-response","562","558275","0.0-1.0-759.0","0","0","59363","","null","","","null","84","NaN","","","","","","","","","","","","","","",""
"","S2","","html-keyboard-response","563","558529","0.0-1.0-760.0","0","0","59363","","null","","","null","84","","NaN","","","","","","","","","","","","","",""
"","response","","html-keyboard-response","564","558919","0.0-1.0-761.0-0.0","0","0","59363","","387","","","75","84","","","2","84","training","adjacent","AB","1","2","P.jpg","M.jpg","1","1","1","",""
"","feedback","","html-keyboard-response","565","559922","0.0-1.0-762.0-0.0","0","0","59363","","null","","","null","84","","","","","","","","","","","","","","","",""
"","ITI","","html-keyboard-response","566","560925","0.0-1.0-765.0","0","0","59363","","null","","","null","84","","","","","","","","","","","","","","","NaN",""
"","S1","","html-keyboard-response","567","561178","0.0-1.0-767.0","0","0","59363","","null","","","null","85","","","","","","","","","","","","","","","",""
"","ISI","","html-keyboard-response","568","562181","0.0-1.0-768.0","0","0","59363","","null","","","null","85","NaN","","","","","","","","","","","","","","",""
"","S2","","html-keyboard-response","569","562434","0.0-1.0-769.0","0","0","59363","","null","","","null","85","","NaN","","","","","","","","","","","","","",""
"","response","","html-keyboard-response","570","562931","0.0-1.0-770.0-0.0","0","0","59363","","495","","","75","85","","","2","85","training","adjacent","GF","7","6","Q.jpg","O.jpg","1","0","0","",""
"","feedback","","html-keyboard-response","571","563935","0.0-1.0-771.0-0.0","0","0","59363","","null","","","null","85","","","","","","","","","","","","","","","",""
"","time_out","","html-keyboard-response","572","565937","0.0-1.0-773.0-0.0","0","0","59363","","null","","","null","85","","","","","","","","","","","","","","","",""
"","ITI","","html-keyboard-response","573","566939","0.0-1.0-774.0","0","0","59363","","null","","","null","85","","","","","","","","","","","","","","","NaN",""
"","S1","","html-keyboard-response","574","567207","0.0-1.0-776.0","0","0","59363","","null","","","null","86","","","","","","","","","","","","","","","",""
"","ISI","","html-keyboard-response","575","568220","0.0-1.0-777.0","0","0","59363","","null","","","null","86","NaN","","","","","","","","","","","","","","",""
"","S2","","html-keyboard-response","576","568473","0.0-1.0-778.0","0","0","59363","","null","","","null","86","","NaN","","","","","","","","","","","","","",""
"","response","","html-keyboard-response","577","568908","0.0-1.0-779.0-0.0","0","0","59363","","433","","","75","86","","","2","86","training","adjacent","BA","2","1","M.jpg","P.jpg","1","0","0","",""
"","feedback","","html-keyboard-response","578","569913","0.0-1.0-780.0-0.0","0","0","59363","","null","","","null","86","","","","","","","","","","","","","","","",""
"","time_out","","html-keyboard-response","579","571916","0.0-1.0-782.0-0.0","0","0","59363","","null","","","null","86","","","","","","","","","","","","","","","",""
"","ITI","","html-keyboard-response","580","572918","0.0-1.0-783.0","0","0","59363","","null","","","null","86","","","","","","","","","","","","","","","NaN",""
"","S1","","html-keyboard-response","581","573170","0.0-1.0-785.0","0","0","59363","","null","","","null","87","","","","","","","","","","","","","","","",""
"","ISI","","html-keyboard-response","582","574174","0.0-1.0-786.0","0","0","59363","","null","","","null","87","NaN","","","","","","","","","","","","","","",""
