"success","ttype","start_time","trial_type","trial_index","time_elapsed","internal_node_id","warning","missed_checkup","PID","view_history","rt","responses","repeat_instructions","key_press","index","keypress_isi","keypress_S2","block","trial_num","phase","group_type","pair_type","S1_stim","S2_stim","S1_img","S2_img","S1_chosen","S1_higher","accuracy","keypress_iti","total_bonus_tally"
"true","full_screen","d08022022hr0944","fullscreen","0","11162","0.0-0.0","0","0","18697","","","","","","","","","","","","","","","","","","","","","",""
"","instructions","","instructions","1","38007","0.0-1.0-0.0-0.0","0","0","18697","[{""page_index"":0,""viewing_time"":3889},{""page_index"":1,""viewing_time"":12314},{""page_index"":2,""viewing_time"":8714},{""page_index"":3,""viewing_time"":1926}]","26843","","","","","","","","","","","","","","","","","","","",""
"","comprehension_check","","survey-multi-choice","2","52057","0.0-1.0-0.0-1.0","0","0","18697","","14047","{""Q0"":""True"",""Q1"":""D"",""Q2"":""When you see the prompt 'MAKE A CHOICE' after the second image was presented"",""Q3"":""Green mark"",""Q4"":""either D or K""}","1","","","","","","","","","","","","","","","","","",""
"","missed_instruction_checkup","","html-keyboard-response","3","54397","0.0-1.0-0.0-2.0-0.0","0","1","18697","","2338","","","32","","","","","","","","","","","","","","","","",""
"","instructions","","instructions","4","77792","0.0-1.0-0.1-0.1","0","0","18697","[{""page_index"":0,""viewing_time"":3366},{""page_index"":1,""viewing_time"":11950},{""page_index"":2,""viewing_time"":6705},{""page_index"":3,""viewing_time"":1374}]","23395","","","","","","","","","","","","","","","","","","","",""
"","comprehension_check","","survey-multi-choice","5","96777","0.0-1.0-0.1-1.1","0","0","18697","","18980","{""Q0"":""False"",""Q1"":""D"",""Q2"":""When you see the prompt 'MAKE A CHOICE' after the second image was presented"",""Q3"":""Green mark"",""Q4"":""either D or K""}","1","","","","","","","","","","","","","","","","","",""
"","missed_instruction_checkup","","html-keyboard-response","6","98277","0.0-1.0-0.1-2.1-0.1","0","1","18697","","1498","","","32","","","","","","","","","","","","","","","","",""
"","instructions","","instructions","7","114747","0.0-1.0-0.2-0.2","0","0","18697","[{""page_index"":0,""viewing_time"":3789},{""page_index"":1,""viewing_time"":6606},{""page_index"":2,""viewing_time"":4370},{""page_index"":3,""viewing_time"":1704}]","16469","","","","","","","","","","","","","","","","","","","",""
"","comprehension_check","","survey-multi-choice","8","130011","0.0-1.0-0.2-1.2","0","0","18697","","15261","{""Q0"":""True"",""Q1"":""D"",""Q2"":""When you see the prompt 'MAKE A CHOICE' after the second image was presented"",""Q3"":""Green mark"",""Q4"":""either D or K""}","1","","","","","","","","","","","","","","","","","",""
"","missed_instruction_checkup","","html-keyboard-response","9","132557","0.0-1.0-0.2-2.2-0.2","0","1","18697","","2544","","","32","","","","","","","","","","","","","","","","",""
"","instructions","","instructions","10","151777","0.0-1.0-0.3-0.3","0","0","18697","[{""page_index"":0,""viewing_time"":4329},{""page_index"":1,""viewing_time"":8724},{""page_index"":2,""viewing_time"":4272},{""page_index"":3,""viewing_time"":1894}]","19219","","","","","","","","","","","","","","","","","","","",""
"","comprehension_check","","survey-multi-choice","11","163771","0.0-1.0-0.3-1.3","0","0","18697","","11990","{""Q0"":""True"",""Q1"":""K"",""Q2"":""When you see the prompt 'MAKE A CHOICE' after the second image was presented"",""Q3"":""Green mark"",""Q4"":""either D or K""}","0","","","","","","","","","","","","","","","","","",""
"","start_exp","","html-keyboard-response","12","165437","0.0-1.0-1.0","0","0","18697","","1664","","","32","","","","","","","","","","","","","","","","",""
"","S1","","html-keyboard-response","13","165689","0.0-1.0-2.0","0","0","18697","","null","","","null","0","","","","","","","","","","","","","","","",""
"","ISI","","html-keyboard-response","14","167691","0.0-1.0-3.0","0","0","18697","","323","","","75","0","k","","","","","","","","","","","","","","",""
"","S2","","html-keyboard-response","15","167944","0.0-1.0-4.0","0","0","18697","","null","","","null","0","","NaN","","","","","","","","","","","","","",""
"","response","","html-keyboard-response","16","168589","0.0-1.0-5.0","0","0","18697","","643","","","75","0","","","1","0","training","adjacent","DC","4","3","M.jpg","L.jpg","1","0","0","",""
"","feedback","","html-keyboard-response","17","169591","0.0-1.0-6.0-0.0","0","0","18697","","null","","","null","0","","","","","","","","","","","","","","","",""
"","time_out","","html-keyboard-response","18","171593","0.0-1.0-8.0-0.0","0","0","18697","","null","","","null","0","","","","","","","","","","","","","","","",""
"","ITI","","html-keyboard-response","19","172595","0.0-1.0-9.0","0","0","18697","","null","","","null","0","","","","","","","","","","","","","","","NaN",""
"","S1","","html-keyboard-response","20","172847","0.0-1.0-11.0","0","0","18697","","null","","","null","1","","","","","","","","","","","","","","","",""
"","ISI","","html-keyboard-response","21","174849","0.0-1.0-12.0","0","0","18697","","null","","","null","1","NaN","","","","","","","","","","","","","","",""
"","S2","","html-keyboard-response","22","175101","0.0-1.0-13.0","0","0","18697","","null","","","null","1","","NaN","","","","","","","","","","","","","",""
"","response","","html-keyboard-response","23","175533","0.0-1.0-14.0","0","0","18697","","430","","","68","1","","","1","1","training","adjacent","CB","3","2","L.jpg","R.jpg","0","0","1","",""
"","feedback","","html-keyboard-response","24","176534","0.0-1.0-15.0-0.0","0","0","18697","","null","","","null","1","","","","","","","","","","","","","","","",""
"","ITI","","html-keyboard-response","25","177536","0.0-1.0-18.0","0","0","18697","","null","","","null","1","","","","","","","","","","","","","","","NaN",""
"","S1","","html-keyboard-response","26","177787","0.0-1.0-20.0","0","0","18697","","null","","","null","2","","","","","","","","","","","","","","","",""
"","ISI","","html-keyboard-response","27","179788","0.0-1.0-21.0","0","0","18697","","null","","","null","2","NaN","","","","","","","","","","","","","","",""
"","S2","","html-keyboard-response","28","180040","0.0-1.0-22.0","0","0","18697","","null","","","null","2","","NaN","","","","","","","","","","","","","",""
"","response","","html-keyboard-response","29","180268","0.0-1.0-23.0","0","0","18697","","228","","","75","2","","","1","2","training","adjacent","CD","3","4","L.jpg","M.jpg","1","1","1","",""
"","feedback","","html-keyboard-response","30","181271","0.0-1.0-24.0-0.0","0","0","18697","","null","","","null","2","","","","","","","","","","","","","","","",""
"","ITI","","html-keyboard-response","31","182273","0.0-1.0-27.0","0","0","18697","","null","","","null","2","","","","","","","","","","","","","","","NaN",""
"","S1","","html-keyboard-response","32","182525","0.0-1.0-29.0","0","0","18697","","null","","","null","3","","","","","","","","","","","","","","","",""
"","ISI","","html-keyboard-response","33","184526","0.0-1.0-30.0","0","0","18697","","null","","","null","3","NaN","","","","","","","","","","","","","","",""
"","S2","","html-keyboard-response","34","184777","0.0-1.0-31.0","0","0","18697","","null","","","null","3","","NaN","","","","","","","","","","","","","",""
"","response","","html-keyboard-response","35","185220","0.0-1.0-32.0","0","0","18697","","441","","","75","3","","","1","3","training","adjacent","BA","2","1","R.jpg","Q.jpg","1","0","0","",""
"","feedback","","html-keyboard-response","36","186222","0.0-1.0-33.0-0.0","0","0","18697","","null","","","null","3","","","","","","","","","","","","","","","",""
"","time_out","","html-keyboard-response","37","188224","0.0-1.0-35.0-0.0","0","0","18697","","null","","","null","3","","","","","","","","","","","","","","","",""
"","ITI","","html-keyboard-response","38","189225","0.0-1.0-36.0","0","0","18697","","null","","","null","3","","","","","","","","","","","","","","","NaN",""
"","S1","","html-keyboard-response","39","189476","0.0-1.0-38.0","0","0","18697","","null","","","null","4","","","","","","","","","","","","","","","",""
"","ISI","","html-keyboard-response","40","191478","0.0-1.0-39.0","0","0","18697","","null","","","null","4","NaN","","","","","","","","","","","","","","",""
"","S2","","html-keyboard-response","41","191729","0.0-1.0-40.0","0","0","18697","","null","","","null","4","","NaN","","","","","","","","","","","","","",""
"","response","","html-keyboard-response","42","191797","0.0-1.0-41.0","0","0","18697","","66","","","68","4","","","1","4","training","adjacent","FE","6","5","O.jpg","P.jpg","0","0","1","",""
"","feedback","","html-keyboard-response","43","192798","0.0-1.0-42.0-0.0","0","0","18697","","null","","","null","4","","","","","","","","","","","","","","","",""
"","ITI","","html-keyboard-response","44","193800","0.0-1.0-45.0","0","0","18697","","null","","","null","4","","","","","","","","","","","","","","","NaN",""
"","S1","","html-keyboard-response","45","194058","0.0-1.0-47.0","0","0","18697","","null","","","null","5","","","","","","","","","","","","","","","",""
"","ISI","","html-keyboard-response","46","196059","0.0-1.0-48.0","0","0","18697","","null","","","null","5","NaN","","","","","","","","","","","","","","",""
"","S2","","html-keyboard-response","47","196320","0.0-1.0-49.0","0","0","18697","","null","","","null","5","","NaN","","","","","","","","","","","","","",""
"","response","","html-keyboard-response","48","196620","0.0-1.0-50.0","0","0","18697","","299","","","75","5","","","1","5","training","adjacent","EF","5","6","P.jpg","O.jpg","1","1","1","",""
"","feedback","","html-keyboard-response","49","197622","0.0-1.0-51.0-0.0","0","0","18697","","null","","","null","5","","","","","","","","","","","","","","","",""
"","ITI","","html-keyboard-response","50","198625","0.0-1.0-54.0","0","0","18697","","null","","","null","5","","","","","","","","","","","","","","","NaN",""
"","S1","","html-keyboard-response","51","198877","0.0-1.0-56.0","0","0","18697","","null","","","null","6","","","","","","","","","","","","","","","",""
"","ISI","","html-keyboard-response","52","200879","0.0-1.0-57.0","0","0","18697","","null","","","null","6","NaN","","","","","","","","","","","","","","",""
"","S2","","html-keyboard-response","53","201145","0.0-1.0-58.0","0","0","18697","","null","","","null","6","","NaN","","","","","","","","","","","","","",""
"","response","","html-keyboard-response","54","201692","0.0-1.0-59.0","0","0","18697","","546","","","68","6","","","1","6","training","adjacent","DE","4","5","M.jpg","P.jpg","0","1","0","",""
"","feedback","","html-keyboard-response","55","202694","0.0-1.0-60.0-0.0","0","0","18697","","null","","","null","6","","","","","","","","","","","","","","","",""
"","time_out","","html-keyboard-response","56","204696","0.0-1.0-62.0-0.0","0","0","18697","","null","","","null","6","","","","","","","","","","","","","","","",""
"","ITI","","html-keyboard-response","57","205698","0.0-1.0-63.0","0","0","18697","","null","","","null","6","","","","","","","","","","","","","","","NaN",""
"","S1","","html-keyboard-response","58","205950","0.0-1.0-65.0","0","0","18697","","null","","","null","7","","","","","","","","","","","","","","","",""
"","ISI","","html-keyboard-response","59","207952","0.0-1.0-66.0","0","0","18697","","null","","","null","7","NaN","","","","","","","","","","","","","","",""
"","S2","","html-keyboard-response","60","208204","0.0-1.0-67.0","0","0","18697","","null","","","null","7","","NaN","","","","","","","","","","","","","",""
"","response","","html-keyboard-response","61","208492","0.0-1.0-68.0","0","0","18697","","287","","","75","7","","","1","7","training","adjacent","ED","5","4","P.jpg","M.jpg","1","0","0","",""
"","feedback","","html-keyboard-response","62","209494","0.0-1.0-69.0-0.0","0","0","18697","","null","","","null","7","","","","","","","","","","","","","","","",""
"","time_out","","html-keyboard-response","63","211496","0.0-1.0-71.0-0.0","0","0","18697","","null","","","null","7","","","","","","","","","","","","","","","",""
"","ITI","","html-keyboard-response","64","212497","0.0-1.0-72.0","0","0","18697","","null","","","null","7","","","","","","","","","","","","","","","NaN",""
"","S1","","html-keyboard-response","65","212749","0.0-1.0-74.0","0","0","18697","","null","","","null","8","","","","","","","","","","","","","","","",""
"","ISI","","html-keyboard-response","66","214751","0.0-1.0-75.0","0","0","18697","","null","","","null","8","NaN","","","","","","","","","","","","","","",""
"","S2","","html-keyboard-response","67","215003","0.0-1.0-76.0","0","0","18697","","null","","","null","8","","NaN","","","","","","","","","","","","","",""
"","response","","html-keyboard-response","68","215396","0.0-1.0-77.0","0","0","18697","","391","","","75","8","","","1","8","training","adjacent","FE","6","5","O.jpg","P.jpg","1","0","0","",""
"","feedback","","html-keyboard-response","69","216410","0.0-1.0-78.0-0.0","0","0","18697","","null","","","null","8","","","","","","","","","","","","","","","",""
"","time_out","","html-keyboard-response","70","218412","0.0-1.0-80.0-0.0","0","0","18697","","null","","","null","8","","","","","","","","","","","","","","","",""
"","ITI","","html-keyboard-response","71","219413","0.0-1.0-81.0","0","0","18697","","null","","","null","8","","","","","","","","","","","","","","","NaN",""
"","S1","","html-keyboard-response","72","219665","0.0-1.0-83.0","0","0","18697","","null","","","null","9","","","","","","","","","","","","","","","",""
"","ISI","","html-keyboard-response","73","221666","0.0-1.0-84.0","0","0","18697","","null","","","null","9","NaN","","","","","","","","","","","","","","",""
"","S2","","html-keyboard-response","74","221918","0.0-1.0-85.0","0","0","18697","","null","","","null","9","","NaN","","","","","","","","","","","","","",""
"","response","","html-keyboard-response","75","222308","0.0-1.0-86.0","0","0","18697","","389","","","75","9","","","1","9","training","adjacent","BA","2","1","R.jpg","Q.jpg","1","0","0","",""
"","feedback","","html-keyboard-response","76","223310","0.0-1.0-87.0-0.0","0","0","18697","","null","","","null","9","","","","","","","","","","","","","","","",""
"","time_out","","html-keyboard-response","77","225311","0.0-1.0-89.0-0.0","0","0","18697","","null","","","null","9","","","","","","","","","","","","","","","",""
"","ITI","","html-keyboard-response","78","226314","0.0-1.0-90.0","0","0","18697","","null","","","null","9","","","","","","","","","","","","","","","NaN",""
"","S1","","html-keyboard-response","79","226566","0.0-1.0-92.0","0","0","18697","","null","","","null","10","","","","","","","","","","","","","","","",""
"","ISI","","html-keyboard-response","80","228567","0.0-1.0-93.0","0","0","18697","","null","","","null","10","NaN","","","","","","","","","","","","","","",""
"","S2","","html-keyboard-response","81","228820","0.0-1.0-94.0","0","0","18697","","null","","","null","10","","NaN","","","","","","","","","","","","","",""
"","response","","html-keyboard-response","82","229036","0.0-1.0-95.0","0","0","18697","","215","","","75","10","","","1","10","training","adjacent","DE","4","5","M.jpg","P.jpg","1","1","1","",""
"","feedback","","html-keyboard-response","83","230043","0.0-1.0-96.0-0.0","0","0","18697","","null","","","null","10","","","","","","","","","","","","","","","",""
"","ITI","","html-keyboard-response","84","231044","0.0-1.0-99.0","0","0","18697","","null","","","null","10","","","","","","","","","","","","","","","NaN",""
"","S1","","html-keyboard-response","85","231295","0.0-1.0-101.0","0","0","18697","","null","","","null","11","","","","","","","","","","","","","","","",""
"","ISI","","html-keyboard-response","86","233296","0.0-1.0-102.0","0","0","18697","","null","","","null","11","NaN","","","","","","","","","","","","","","",""
"","S2","","html-keyboard-response","87","233549","0.0-1.0-103.0","0","0","18697","","null","","","null","11","","NaN","","","","","","","","","","","","","",""
"","response","","html-keyboard-response","88","233836","0.0-1.0-104.0","0","0","18697","","286","","","75","11","","","1","11","training","adjacent","CD","3","4","L.jpg","M.jpg","1","1","1","",""
"","feedback","","html-keyboard-response","89","234838","0.0-1.0-105.0-0.0","0","0","18697","","null","","","null","11","","","","","","","","","","","","","","","",""
"","ITI","","html-keyboard-response","90","235840","0.0-1.0-108.0","0","0","18697","","null","","","null","11","","","","","","","","","","","","","","","NaN",""
"","S1","","html-keyboard-response","91","236092","0.0-1.0-110.0","0","0","18697","","null","","","null","12","","","","","","","","","","","","","","","",""
"","ISI","","html-keyboard-response","92","238094","0.0-1.0-111.0","0","0","18697","","null","","","null","12","NaN","","","","","","","","","","","","","","",""
"","S2","","html-keyboard-response","93","238346","0.0-1.0-112.0","0","0","18697","","null","","","null","12","","NaN","","","","","","","","","","","","","",""
"","response","","html-keyboard-response","94","239484","0.0-1.0-113.0","0","0","18697","","1137","","","68","12","","","1","12","training","adjacent","AB","1","2","Q.jpg","R.jpg","0","1","0","",""
"","feedback","","html-keyboard-response","95","240485","0.0-1.0-114.0-0.0","0","0","18697","","null","","","null","12","","","","","","","","","","","","","","","",""
"","time_out","","html-keyboard-response","96","242487","0.0-1.0-116.0-0.0","0","0","18697","","null","","","null","12","","","","","","","","","","","","","","","",""
"","ITI","","html-keyboard-response","97","243488","0.0-1.0-117.0","0","0","18697","","null","","","null","12","","","","","","","","","","","","","","","NaN",""
"","S1","","html-keyboard-response","98","243740","0.0-1.0-119.0","0","0","18697","","null","","","null","13","","","","","","","","","","","","","","","",""
"","ISI","","html-keyboard-response","99","245741","0.0-1.0-120.0","0","0","18697","","null","","","null","13","NaN","","","","","","","","","","","","","","",""
"","S2","","html-keyboard-response","100","245994","0.0-1.0-121.0","0","0","18697","","null","","","null","13","","NaN","","","","","","","","","","","","","",""
"","response","","html-keyboard-response","101","246492","0.0-1.0-122.0","0","0","18697","","497","","","68","13","","","1","13","training","adjacent","CB","3","2","L.jpg","R.jpg","0","0","1","",""
"","feedback","","html-keyboard-response","102","247493","0.0-1.0-123.0-0.0","0","0","18697","","null","","","null","13","","","","","","","","","","","","","","","",""
"","ITI","","html-keyboard-response","103","248494","0.0-1.0-126.0","0","0","18697","","null","","","null","13","","","","","","","","","","","","","","","NaN",""
"","S1","","html-keyboard-response","104","248746","0.0-1.0-128.0","0","0","18697","","null","","","null","14","","","","","","","","","","","","","","","",""
"","ISI","","html-keyboard-response","105","250748","0.0-1.0-129.0","0","0","18697","","null","","","null","14","NaN","","","","","","","","","","","","","","",""
"","S2","","html-keyboard-response","106","251000","0.0-1.0-130.0","0","0","18697","","null","","","null","14","","NaN","","","","","","","","","","","","","",""
"","response","","html-keyboard-response","107","251156","0.0-1.0-131.0","0","0","18697","","155","","","75","14","","","1","14","training","adjacent","GF","7","6","N.jpg","O.jpg","1","0","0","",""
"","feedback","","html-keyboard-response","108","252157","0.0-1.0-132.0-0.0","0","0","18697","","null","","","null","14","","","","","","","","","","","","","","","",""
"","time_out","","html-keyboard-response","109","254159","0.0-1.0-134.0-0.0","0","0","18697","","null","","","null","14","","","","","","","","","","","","","","","",""
"","ITI","","html-keyboard-response","110","255160","0.0-1.0-135.0","0","0","18697","","null","","","null","14","","","","","","","","","","","","","","","NaN",""
"","S1","","html-keyboard-response","111","255412","0.0-1.0-137.0","0","0","18697","","null","","","null","15","","","","","","","","","","","","","","","",""
"","ISI","","html-keyboard-response","112","257414","0.0-1.0-138.0","0","0","18697","","null","","","null","15","NaN","","","","","","","","","","","","","","",""
"","S2","","html-keyboard-response","113","257666","0.0-1.0-139.0","0","0","18697","","null","","","null","15","","NaN","","","","","","","","","","","","","",""
"","response","","html-keyboard-response","114","257756","0.0-1.0-140.0","0","0","18697","","89","","","68","15","","","1","15","training","adjacent","CD","3","4","L.jpg","M.jpg","0","1","0","",""
"","feedback","","html-keyboard-response","115","258758","0.0-1.0-141.0-0.0","0","0","18697","","null","","","null","15","","","","","","","","","","","","","","","",""
"","time_out","","html-keyboard-response","116","260759","0.0-1.0-143.0-0.0","0","0","18697","","null","","","null","15","","","","","","","","","","","","","","","",""
"","ITI","","html-keyboard-response","117","261761","0.0-1.0-144.0","0","0","18697","","null","","","null","15","","","","","","","","","","","","","","","NaN",""
"","S1","","html-keyboard-response","118","262013","0.0-1.0-146.0","0","0","18697","","null","","","null","16","","","","","","","","","","","","","","","",""
"","ISI","","html-keyboard-response","119","264014","0.0-1.0-147.0","0","0","18697","","null","","","null","16","NaN","","","","","","","","","","","","","","",""
"","S2","","html-keyboard-response","120","264265","0.0-1.0-148.0","0","0","18697","","null","","","null","16","","NaN","","","","","","","","","","","","","",""
"","response","","html-keyboard-response","121","264692","0.0-1.0-149.0","0","0","18697","","425","","","75","16","","","1","16","training","adjacent","ED","5","4","P.jpg","M.jpg","1","0","0","",""
"","feedback","","html-keyboard-response","122","265693","0.0-1.0-150.0-0.0","0","0","18697","","null","","","null","16","","","","","","","","","","","","","","","",""
"","time_out","","html-keyboard-response","123","267695","0.0-1.0-152.0-0.0","0","0","18697","","null","","","null","16","","","","","","","","","","","","","","","",""
"","ITI","","html-keyboard-response","124","268696","0.0-1.0-153.0","0","0","18697","","null","","","null","16","","","","","","","","","","","","","","","NaN",""
"","S1","","html-keyboard-response","125","268949","0.0-1.0-155.0","0","0","18697","","null","","","null","17","","","","","","","","","","","","","","","",""
"","ISI","","html-keyboard-response","126","270950","0.0-1.0-156.0","0","0","18697","","null","","","null","17","NaN","","","","","","","","","","","","","","",""
"","S2","","html-keyboard-response","127","271216","0.0-1.0-157.0","0","0","18697","","null","","","null","17","","NaN","","","","","","","","","","","","","",""
"","response","","html-keyboard-response","128","271252","0.0-1.0-158.0","0","0","18697","","35","","","68","17","","","1","17","training","adjacent","EF","5","6","P.jpg","O.jpg","0","1","0","",""
"","feedback","","html-keyboard-response","129","272254","0.0-1.0-159.0-0.0","0","0","18697","","null","","","null","17","","","","","","","","","","","","","","","",""
"","time_out","","html-keyboard-response","130","274256","0.0-1.0-161.0-0.0","0","0","18697","","null","","","null","17","","","","","","","","","","","","","","","",""
"","ITI","","html-keyboard-response","131","275258","0.0-1.0-162.0","0","0","18697","","null","","","null","17","","","","","","","","","","","","","","","NaN",""
"","S1","","html-keyboard-response","132","275509","0.0-1.0-164.0","0","0","18697","","null","","","null","18","","","","","","","","","","","","","","","",""
"","ISI","","html-keyboard-response","133","277512","0.0-1.0-165.0","0","0","18697","","null","","","null","18","NaN","","","","","","","","","","","","","","",""
"","S2","","html-keyboard-response","134","277763","0.0-1.0-166.0","0","0","18697","","null","","","null","18","","NaN","","","","","","","","","","","","","",""
"","response","","html-keyboard-response","135","278076","0.0-1.0-167.0","0","0","18697","","311","","","75","18","","","1","18","training","adjacent","CB","3","2","L.jpg","R.jpg","1","0","0","",""
"","feedback","","html-keyboard-response","136","279077","0.0-1.0-168.0-0.0","0","0","18697","","null","","","null","18","","","","","","","","","","","","","","","",""
"","time_out","","html-keyboard-response","137","281079","0.0-1.0-170.0-0.0","0","0","18697","","null","","","null","18","","","","","","","","","","","","","","","",""
"","ITI","","html-keyboard-response","138","282081","0.0-1.0-171.0","0","0","18697","","null","","","null","18","","","","","","","","","","","","","","","NaN",""
"","S1","","html-keyboard-response","139","282334","0.0-1.0-173.0","0","0","18697","","null","","","null","19","","","","","","","","","","","","","","","",""
"","ISI","","html-keyboard-response","140","284335","0.0-1.0-174.0","0","0","18697","","null","","","null","19","NaN","","","","","","","","","","","","","","",""
"","S2","","html-keyboard-response","141","284587","0.0-1.0-175.0","0","0","18697","","null","","","null","19","","NaN","","","","","","","","","","","","","",""
"","response","","html-keyboard-response","142","284804","0.0-1.0-176.0","0","0","18697","","216","","","68","19","","","1","19","training","adjacent","BC","2","3","R.jpg","L.jpg","0","1","0","",""
"","feedback","","html-keyboard-response","143","285806","0.0-1.0-177.0-0.0","0","0","18697","","null","","","null","19","","","","","","","","","","","","","","","",""
"","time_out","","html-keyboard-response","144","287807","0.0-1.0-179.0-0.0","0","0","18697","","null","","","null","19","","","","","","","","","","","","","","","",""
"","ITI","","html-keyboard-response","145","288808","0.0-1.0-180.0","0","0","18697","","null","","","null","19","","","","","","","","","","","","","","","NaN",""
"","S1","","html-keyboard-response","146","289074","0.0-1.0-182.0","0","0","18697","","null","","","null","20","","","","","","","","","","","","","","","",""
"","ISI","","html-keyboard-response","147","291075","0.0-1.0-183.0","0","0","18697","","null","","","null","20","NaN","","","","","","","","","","","","","","",""
"","S2","","html-keyboard-response","148","291328","0.0-1.0-184.0","0","0","18697","","null","","","null","20","","NaN","","","","","","","","","","","","","",""
"","response","","html-keyboard-response","149","291868","0.0-1.0-185.0","0","0","18697","","539","","","75","20","","","1","20","training","adjacent","GF","7","6","N.jpg","O.jpg","1","0","0","",""
"","feedback","","html-keyboard-response","150","292869","0.0-1.0-186.0-0.0","0","0","18697","","null","","","null","20","","","","","","","","","","","","","","","",""
"","time_out","","html-keyboard-response","151","294870","0.0-1.0-188.0-0.0","0","0","18697","","null","","","null","20","","","","","","","","","","","","","","","",""
"","ITI","","html-keyboard-response","152","295872","0.0-1.0-189.0","0","0","18697","","null","","","null","20","","","","","","","","","","","","","","","NaN",""
"","S1","","html-keyboard-response","153","296124","0.0-1.0-191.0","0","0","18697","","null","","","null","21","","","","","","","","","","","","","","","",""
"","ISI","","html-keyboard-response","154","298125","0.0-1.0-192.0","0","0","18697","","null","","","null","21","NaN","","","","","","","","","","","","","","",""
"","S2","","html-keyboard-response","155","298377","0.0-1.0-193.0","0","0","18697","","null","","","null","21","","NaN","","","","","","","","","","","","","",""
"","response","","html-keyboard-response","156","299132","0.0-1.0-194.0","0","0","18697","","753","","","68","21","","","1","21","training","adjacent","BA","2","1","R.jpg","Q.jpg","0","0","1","",""
"","feedback","","html-keyboard-response","157","300133","0.0-1.0-195.0-0.0","0","0","18697","","null","","","null","21","","","","","","","","","","","","","","","",""
"","ITI","","html-keyboard-response","158","301135","0.0-1.0-198.0","0","0","18697","","null","","","null","21","","","","","","","","","","","","","","","NaN",""
"","S1","","html-keyboard-response","159","301386","0.0-1.0-200.0","0","0","18697","","null","","","null","22","","","","","","","","","","","","","","","",""
"","ISI","","html-keyboard-response","160","303387","0.0-1.0-201.0","0","0","18697","","null","","","null","22","NaN","","","","","","","","","","","","","","",""
"","S2","","html-keyboard-response","161","303640","0.0-1.0-202.0","0","0","18697","","null","","","null","22","","NaN","","","","","","","","","","","","","",""
"","response","","html-keyboard-response","162","304188","0.0-1.0-203.0","0","0","18697","","547","","","68","22","","","1","22","training","adjacent","BC","2","3","R.jpg","L.jpg","0","1","0","",""
"","feedback","","html-keyboard-response","163","305189","0.0-1.0-204.0-0.0","0","0","18697","","null","","","null","22","","","","","","","","","","","","","","","",""
"","time_out","","html-keyboard-response","164","307192","0.0-1.0-206.0-0.0","0","0","18697","","null","","","null","22","","","","","","","","","","","","","","","",""
"","ITI","","html-keyboard-response","165","308193","0.0-1.0-207.0","0","0","18697","","null","","","null","22","","","","","","","","","","","","","","","NaN",""
"","S1","","html-keyboard-response","166","308445","0.0-1.0-209.0","0","0","18697","","null","","","null","23","","","","","","","","","","","","","","","",""
"","ISI","","html-keyboard-response","167","310447","0.0-1.0-210.0","0","0","18697","","null","","","null","23","NaN","","","","","","","","","","","","","","",""
"","S2","","html-keyboard-response","168","310699","0.0-1.0-211.0","0","0","18697","","null","","","null","23","","NaN","","","","","","","","","","","","","",""
"","response","","html-keyboard-response","169","311204","0.0-1.0-212.0","0","0","18697","","504","","","68","23","","","1","23","training","adjacent","DE","4","5","M.jpg","P.jpg","0","1","0","",""
"","feedback","","html-keyboard-response","170","312205","0.0-1.0-213.0-0.0","0","0","18697","","null","","","null","23","","","","","","","","","","","","","","","",""
"","time_out","","html-keyboard-response","171","314207","0.0-1.0-215.0-0.0","0","0","18697","","null","","","null","23","","","","","","","","","","","","","","","",""
"","ITI","","html-keyboard-response","172","315208","0.0-1.0-216.0","0","0","18697","","null","","","null","23","","","","","","","","","","","","","","","NaN",""
"","S1","","html-keyboard-response","173","315460","0.0-1.0-218.0","0","0","18697","","null","","","null","24","","","","","","","","","","","","","","","",""
"","ISI","","html-keyboard-response","174","317462","0.0-1.0-219.0","0","0","18697","","null","","","null","24","NaN","","","","","","","","","","","","","","",""
"","S2","","html-keyboard-response","175","317713","0.0-1.0-220.0","0","0","18697","","null","","","null","24","","NaN","","","","","","","","","","","","","",""
"","response","","html-keyboard-response","176","318284","0.0-1.0-221.0","0","0","18697","","569","","","68","24","","","1","24","training","adjacent","BC","2","3","R.jpg","L.jpg","0","1","0","",""
"","feedback","","html-keyboard-response","177","319285","0.0-1.0-222.0-0.0","0","0","18697","","null","","","null","24","","","","","","","","","","","","","","","",""
"","time_out","","html-keyboard-response","178","321287","0.0-1.0-224.0-0.0","0","0","18697","","null","","","null","24","","","","","","","","","","","","","","","",""
"","ITI","","html-keyboard-response","179","322289","0.0-1.0-225.0","0","0","18697","","null","","","null","24","","","","","","","","","","","","","","","NaN",""
"","S1","","html-keyboard-response","180","322541","0.0-1.0-227.0","0","0","18697","","null","","","null","25","","","","","","","","","","","","","","","",""
"","ISI","","html-keyboard-response","181","324543","0.0-1.0-228.0","0","0","18697","","null","","","null","25","NaN","","","","","","","","","","","","","","",""
"","S2","","html-keyboard-response","182","324794","0.0-1.0-229.0","0","0","18697","","null","","","null","25","","NaN","","","","","","","","","","","","","",""
"","response","","html-keyboard-response","183","324852","0.0-1.0-230.0","0","0","18697","","57","","","75","25","","","1","25","training","adjacent","FE","6","5","O.jpg","P.jpg","1","0","0","",""
"","feedback","","html-keyboard-response","184","325853","0.0-1.0-231.0-0.0","0","0","18697","","null","","","null","25","","","","","","","","","","","","","","","",""
"","time_out","","html-keyboard-response","185","327854","0.0-1.0-233.0-0.0","0","0","18697","","null","","","null","25","","","","","","","","","","","","","","","",""
"","ITI","","html-keyboard-response","186","328856","0.0-1.0-234.0","0","0","18697","","null","","","null","25","","","","","","","","","","","","","","","NaN",""
"","S1","","html-keyboard-response","187","329107","0.0-1.0-236.0","0","0","18697","","null","","","null","26","","","","","","","","","","","","","","","",""
"","ISI","","html-keyboard-response","188","331109","0.0-1.0-237.0","0","0","18697","","null","","","null","26","NaN","","","","","","","","","","","","","","",""
"","S2","","html-keyboard-response","189","331361","0.0-1.0-238.0","0","0","18697","","null","","","null","26","","NaN","","","","","","","","","","","","","",""
"","response","","html-keyboard-response","190","331900","0.0-1.0-239.0","0","0","18697","","538","","","75","26","","","1","26","training","adjacent","BA","2","1","R.jpg","Q.jpg","1","0","0","",""
"","feedback","","html-keyboard-response","191","332902","0.0-1.0-240.0-0.0","0","0","18697","","null","","","null","26","","","","","","","","","","","","","","","",""
"","time_out","","html-keyboard-response","192","334911","0.0-1.0-242.0-0.0","0","0","18697","","null","","","null","26","","","","","","","","","","","","","","","",""
"","ITI","","html-keyboard-response","193","335912","0.0-1.0-243.0","0","0","18697","","null","","","null","26","","","","","","","","","","","","","","","NaN",""
"","S1","","html-keyboard-response","194","336165","0.0-1.0-245.0","0","0","18697","","null","","","null","27","","","","","","","","","","","","","","","",""
"","ISI","","html-keyboard-response","195","338167","0.0-1.0-246.0","0","0","18697","","null","","","null","27","NaN","","","","","","","","","","","","","","",""
"","S2","","html-keyboard-response","196","338418","0.0-1.0-247.0","0","0","18697","","null","","","null","27","","NaN","","","","","","","","","","","","","",""
"","response","","html-keyboard-response","197","338435","0.0-1.0-248.0","0","0","18697","","17","","","68","27","","","1","27","training","adjacent","FG","6","7","O.jpg","N.jpg","0","1","0","",""
"","feedback","","html-keyboard-response","198","339437","0.0-1.0-249.0-0.0","0","0","18697","","null","","","null","27","","","","","","","","","","","","","","","",""
"","time_out","","html-keyboard-response","199","341439","0.0-1.0-251.0-0.0","0","0","18697","","null","","","null","27","","","","","","","","","","","","","","","",""
"","ITI","","html-keyboard-response","200","342455","0.0-1.0-252.0","0","0","18697","","null","","","null","27","","","","","","","","","","","","","","","NaN",""
"","S1","","html-keyboard-response","201","342707","0.0-1.0-254.0","0","0","18697","","null","","","null","28","","","","","","","","","","","","","","","",""
"","ISI","","html-keyboard-response","202","344708","0.0-1.0-255.0","0","0","18697","","null","","","null","28","NaN","","","","","","","","","","","","","","",""
"","S2","","html-keyboard-response","203","344959","0.0-1.0-256.0","0","0","18697","","null","","","null","28","","NaN","","","","","","","","","","","","","",""
"","response","","html-keyboard-response","204","345251","0.0-1.0-257.0","0","0","18697","","291","","","68","28","","","1","28","training","adjacent","DC","4","3","M.jpg","L.jpg","0","0","1","",""
"","feedback","","html-keyboard-response","205","346253","0.0-1.0-258.0-0.0","0","0","18697","","null","","","null","28","","","","","","","","","","","","","","","",""
"","ITI","","html-keyboard-response","206","347255","0.0-1.0-261.0","0","0","18697","","null","","","null","28","","","","","","","","","","","","","","","NaN",""
"","S1","","html-keyboard-response","207","347507","0.0-1.0-263.0","0","0","18697","","null","","","null","29","","","","","","","","","","","","","","","",""
"","ISI","","html-keyboard-response","208","349509","0.0-1.0-264.0","0","0","18697","","null","","","null","29","NaN","","","","","","","","","","","","","","",""
"","S2","","html-keyboard-response","209","349761","0.0-1.0-265.0","0","0","18697","","null","","","null","29","","NaN","","","","","","","","","","","","","",""
"","response","","html-keyboard-response","210","350388","0.0-1.0-266.0","0","0","18697","","626","","","68","29","","","1","29","training","adjacent","FG","6","7","O.jpg","N.jpg","0","1","0","",""
"","feedback","","html-keyboard-response","211","351389","0.0-1.0-267.0-0.0","0","0","18697","","null","","","null","29","","","","","","","","","","","","","","","",""
"","time_out","","html-keyboard-response","212","353391","0.0-1.0-269.0-0.0","0","0","18697","","null","","","null","29","","","","","","","","","","","","","","","",""
"","ITI","","html-keyboard-response","213","354393","0.0-1.0-270.0","0","0","18697","","null","","","null","29","","","","","","","","","","","","","","","NaN",""
"","S1","","html-keyboard-response","214","354645","0.0-1.0-272.0","0","0","18697","","null","","","null","30","","","","","","","","","","","","","","","",""
"","ISI","","html-keyboard-response","215","356647","0.0-1.0-273.0","0","0","18697","","null","","","null","30","NaN","","","","","","","","","","","","","","",""
"","S2","","html-keyboard-response","216","356898","0.0-1.0-274.0","0","0","18697","","null","","","null","30","","NaN","","","","","","","","","","","","","",""
"","response","","html-keyboard-response","217","357363","0.0-1.0-275.0","0","0","18697","","465","","","75","30","","","1","30","training","adjacent","CB","3","2","L.jpg","R.jpg","1","0","0","",""
"","feedback","","html-keyboard-response","218","358365","0.0-1.0-276.0-0.0","0","0","18697","","null","","","null","30","","","","","","","","","","","","","","","",""
"","time_out","","html-keyboard-response","219","360367","0.0-1.0-278.0-0.0","0","0","18697","","null","","","null","30","","","","","","","","","","","","","","","",""
"","ITI","","html-keyboard-response","220","361369","0.0-1.0-279.0","0","0","18697","","null","","","null","30","","","","","","","","","","","","","","","NaN",""
"","S1","","html-keyboard-response","221","361620","0.0-1.0-281.0","0","0","18697","","null","","","null","31","","","","","","","","","","","","","","","",""
"","ISI","","html-keyboard-response","222","363622","0.0-1.0-282.0","0","0","18697","","null","","","null","31","NaN","","","","","","","","","","","","","","",""
"","S2","","html-keyboard-response","223","363874","0.0-1.0-283.0","0","0","18697","","null","","","null","31","","NaN","","","","","","","","","","","","","",""
"","response","","html-keyboard-response","224","363956","0.0-1.0-284.0","0","0","18697","","81","","","75","31","","","1","31","training","adjacent","AB","1","2","Q.jpg","R.jpg","1","1","1","",""
"","feedback","","html-keyboard-response","225","364958","0.0-1.0-285.0-0.0","0","0","18697","","null","","","null","31","","","","","","","","","","","","","","","",""
"","ITI","","html-keyboard-response","226","365960","0.0-1.0-288.0","0","0","18697","","null","","","null","31","","","","","","","","","","","","","","","NaN",""
"","S1","","html-keyboard-response","227","366225","0.0-1.0-290.0","0","0","18697","","null","","","null","32","","","","","","","","","","","","","","","",""
"","ISI","","html-keyboard-response","228","368228","0.0-1.0-291.0","0","0","18697","","null","","","null","32","NaN","","","","","","","","","","","","","","",""
"","S2","","html-keyboard-response","229","368479","0.0-1.0-292.0","0","0","18697","","null","","","null","32","","NaN","","","","","","","","","","","","","",""
"","response","","html-keyboard-response","230","368763","0.0-1.0-293.0","0","0","18697","","284","","","75","32","","","1","32","training","adjacent","EF","5","6","P.jpg","O.jpg","1","1","1","",""
"","feedback","","html-keyboard-response","231","369766","0.0-1.0-294.0-0.0","0","0","18697","","null","","","null","32","","","","","","","","","","","","","","","",""
"","ITI","","html-keyboard-response","232","370767","0.0-1.0-297.0","0","0","18697","","null","","","null","32","","","","","","","","","","","","","","","NaN",""
"","S1","","html-keyboard-response","233","371018","0.0-1.0-299.0","0","0","18697","","null","","","null","33","","","","","","","","","","","","","","","",""
"","ISI","","html-keyboard-response","234","373020","0.0-1.0-300.0","0","0","18697","","null","","","null","33","NaN","","","","","","","","","","","","","","",""
"","S2","","html-keyboard-response","235","373276","0.0-1.0-301.0","0","0","18697","","null","","","null","33","","NaN","","","","","","","","","","","","","",""
"","response","","html-keyboard-response","236","373307","0.0-1.0-302.0","0","0","18697","","31","","","75","33","","","1","33","training","adjacent","CD","3","4","L.jpg","M.jpg","1","1","1","",""
"","feedback","","html-keyboard-response","237","374310","0.0-1.0-303.0-0.0","0","0","18697","","null","","","null","33","","","","","","","","","","","","","","","",""
"","ITI","","html-keyboard-response","238","375313","0.0-1.0-306.0","0","0","18697","","null","","","null","33","","","","","","","","","","","","","","","NaN",""
"","S1","","html-keyboard-response","239","375565","0.0-1.0-308.0","0","0","18697","","null","","","null","34","","","","","","","","","","","","","","","",""
"","ISI","","html-keyboard-response","240","377568","0.0-1.0-309.0","0","0","18697","","null","","","null","34","NaN","","","","","","","","","","","","","","",""
"","S2","","html-keyboard-response","241","377820","0.0-1.0-310.0","0","0","18697","","null","","","null","34","","NaN","","","","","","","","","","","","","",""
"","response","","html-keyboard-response","242","378116","0.0-1.0-311.0","0","0","18697","","294","","","68","34","","","1","34","training","adjacent","FG","6","7","O.jpg","N.jpg","0","1","0","",""
"","feedback","","html-keyboard-response","243","379118","0.0-1.0-312.0-0.0","0","0","18697","","null","","","null","34","","","","","","","","","","","","","","","",""
"","time_out","","html-keyboard-response","244","381119","0.0-1.0-314.0-0.0","0","0","18697","","null","","","null","34","","","","","","","","","","","","","","","",""
"","ITI","","html-keyboard-response","245","382121","0.0-1.0-315.0","0","0","18697","","null","","","null","34","","","","","","","","","","","","","","","NaN",""
"","S1","","html-keyboard-response","246","382374","0.0-1.0-317.0","0","0","18697","","null","","","null","35","","","","","","","","","","","","","","","",""
"","ISI","","html-keyboard-response","247","384375","0.0-1.0-318.0","0","0","18697","","null","","","null","35","NaN","","","","","","","","","","","","","","",""
"","S2","","html-keyboard-response","248","384627","0.0-1.0-319.0","0","0","18697","","null","","","null","35","","NaN","","","","","","","","","","","","","",""
"","response","","html-keyboard-response","249","384931","0.0-1.0-320.0","0","0","18697","","303","","","68","35","","","1","35","training","adjacent","FE","6","5","O.jpg","P.jpg","0","0","1","",""
"","feedback","","html-keyboard-response","250","385933","0.0-1.0-321.0-0.0","0","0","18697","","null","","","null","35","","","","","","","","","","","","","","","",""
"","ITI","","html-keyboard-response","251","386935","0.0-1.0-324.0","0","0","18697","","null","","","null","35","","","","","","","","","","","","","","","NaN",""
"","S1","","html-keyboard-response","252","387187","0.0-1.0-326.0","0","0","18697","","null","","","null","36","","","","","","","","","","","","","","","",""
"","ISI","","html-keyboard-response","253","389188","0.0-1.0-327.0","0","0","18697","","null","","","null","36","NaN","","","","","","","","","","","","","","",""
"","S2","","html-keyboard-response","254","389441","0.0-1.0-328.0","0","0","18697","","null","","","null","36","","NaN","","","","","","","","","","","","","",""
"","response","","html-keyboard-response","255","389603","0.0-1.0-329.0","0","0","18697","","161","","","68","36","","","1","36","training","adjacent","ED","5","4","P.jpg","M.jpg","0","0","1","",""
"","feedback","","html-keyboard-response","256","390617","0.0-1.0-330.0-0.0","0","0","18697","","null","","","null","36","","","","","","","","","","","","","","","",""
"","ITI","","html-keyboard-response","257","391618","0.0-1.0-333.0","0","0","18697","","null","","","null","36","","","","","","","","","","","","","","","NaN",""
"","S1","","html-keyboard-response","258","391870","0.0-1.0-335.0","0","0","18697","","null","","","null","37","","","","","","","","","","","","","","","",""
"","ISI","","html-keyboard-response","259","393873","0.0-1.0-336.0","0","0","18697","","null","","","null","37","NaN","","","","","","","","","","","","","","",""
"","S2","","html-keyboard-response","260","394124","0.0-1.0-337.0","0","0","18697","","null","","","null","37","","NaN","","","","","","","","","","","","","",""
"","response","","html-keyboard-response","261","394683","0.0-1.0-338.0","0","0","18697","","559","","","75","37","","","1","37","training","adjacent","BC","2","3","R.jpg","L.jpg","1","1","1","",""
"","feedback","","html-keyboard-response","262","395685","0.0-1.0-339.0-0.0","0","0","18697","","null","","","null","37","","","","","","","","","","","","","","","",""
"","ITI","","html-keyboard-response","263","396688","0.0-1.0-342.0","0","0","18697","","null","","","null","37","","","","","","","","","","","","","","","NaN",""
"","S1","","html-keyboard-response","264","396940","0.0-1.0-344.0","0","0","18697","","null","","","null","38","","","","","","","","","","","","","","","",""
"","ISI","","html-keyboard-response","265","398942","0.0-1.0-345.0","0","0","18697","","null","","","null","38","NaN","","","","","","","","","","","","","","",""
"","S2","","html-keyboard-response","266","399195","0.0-1.0-346.0","0","0","18697","","null","","","null","38","","NaN","","","","","","","","","","","","","",""
"","response","","html-keyboard-response","267","399588","0.0-1.0-347.0","0","0","18697","","392","","","68","38","","","1","38","training","adjacent","EF","5","6","P.jpg","O.jpg","0","1","0","",""
"","feedback","","html-keyboard-response","268","400590","0.0-1.0-348.0-0.0","0","0","18697","","null","","","null","38","","","","","","","","","","","","","","","",""
"","time_out","","html-keyboard-response","269","402593","0.0-1.0-350.0-0.0","0","0","18697","","null","","","null","38","","","","","","","","","","","","","","","",""
"","ITI","","html-keyboard-response","270","403595","0.0-1.0-351.0","0","0","18697","","null","","","null","38","","","","","","","","","","","","","","","NaN",""
"","S1","","html-keyboard-response","271","403846","0.0-1.0-353.0","0","0","18697","","null","","","null","39","","","","","","","","","","","","","","","",""
"","ISI","","html-keyboard-response","272","405848","0.0-1.0-354.0","0","0","18697","","null","","","null","39","NaN","","","","","","","","","","","","","","",""
"","S2","","html-keyboard-response","273","406100","0.0-1.0-355.0","0","0","18697","","null","","","null","39","","NaN","","","","","","","","","","","","","",""
"","response","","html-keyboard-response","274","406420","0.0-1.0-356.0","0","0","18697","","319","","","75","39","","","1","39","training","adjacent","FG","6","7","O.jpg","N.jpg","1","1","1","",""
"","feedback","","html-keyboard-response","275","407422","0.0-1.0-357.0-0.0","0","0","18697","","null","","","null","39","","","","","","","","","","","","","","","",""
"","ITI","","html-keyboard-response","276","408424","0.0-1.0-360.0","0","0","18697","","null","","","null","39","","","","","","","","","","","","","","","NaN",""
"","S1","","html-keyboard-response","277","408676","0.0-1.0-362.0","0","0","18697","","null","","","null","40","","","","","","","","","","","","","","","",""
"","ISI","","html-keyboard-response","278","410677","0.0-1.0-363.0","0","0","18697","","null","","","null","40","NaN","","","","","","","","","","","","","","",""
"","S2","","html-keyboard-response","279","410928","0.0-1.0-364.0","0","0","18697","","null","","","null","40","","NaN","","","","","","","","","","","","","",""
"","response","","html-keyboard-response","280","411020","0.0-1.0-365.0","0","0","18697","","90","","","75","40","","","1","40","training","adjacent","GF","7","6","N.jpg","O.jpg","1","0","0","",""
"","feedback","","html-keyboard-response","281","412022","0.0-1.0-366.0-0.0","0","0","18697","","null","","","null","40","","","","","","","","","","","","","","","",""
"","time_out","","html-keyboard-response","282","414024","0.0-1.0-368.0-0.0","0","0","18697","","null","","","null","40","","","","","","","","","","","","","","","",""
"","ITI","","html-keyboard-response","283","415026","0.0-1.0-369.0","0","0","18697","","null","","","null","40","","","","","","","","","","","","","","","NaN",""
"","S1","","html-keyboard-response","284","415278","0.0-1.0-371.0","0","0","18697","","null","","","null","41","","","","","","","","","","","","","","","",""
"","ISI","","html-keyboard-response","285","417280","0.0-1.0-372.0","0","0","18697","","null","","","null","41","NaN","","","","","","","","","","","","","","",""
"","S2","","html-keyboard-response","286","417532","0.0-1.0-373.0","0","0","18697","","null","","","null","41","","NaN","","","","","","","","","","","","","",""
"","response","","html-keyboard-response","287","418244","0.0-1.0-374.0","0","0","18697","","711","","","68","41","","","1","41","training","adjacent","ED","5","4","P.jpg","M.jpg","0","0","1","",""
"","feedback","","html-keyboard-response","288","419245","0.0-1.0-375.0-0.0","0","0","18697","","null","","","null","41","","","","","","","","","","","","","","","",""
"","ITI","","html-keyboard-response","289","420247","0.0-1.0-378.0","0","0","18697","","null","","","null","41","","","","","","","","","","","","","","","NaN",""
"","S1","","html-keyboard-response","290","420499","0.0-1.0-380.0","0","0","18697","","null","","","null","42","","","","","","","","","","","","","","","",""
"","ISI","","html-keyboard-response","291","422500","0.0-1.0-381.0","0","0","18697","","null","","","null","42","NaN","","","","","","","","","","","","","","",""
"","S2","","html-keyboard-response","292","422752","0.0-1.0-382.0","0","0","18697","","null","","","null","42","","NaN","","","","","","","","","","","","","",""
"","response","","html-keyboard-response","293","423436","0.0-1.0-383.0","0","0","18697","","682","","","68","42","","","1","42","training","adjacent","AB","1","2","Q.jpg","R.jpg","0","1","0","",""
"","feedback","","html-keyboard-response","294","424438","0.0-1.0-384.0-0.0","0","0","18697","","null","","","null","42","","","","","","","","","","","","","","","",""
"","time_out","","html-keyboard-response","295","426440","0.0-1.0-386.0-0.0","0","0","18697","","null","","","null","42","","","","","","","","","","","","","","","",""
"","ITI","","html-keyboard-response","296","427445","0.0-1.0-387.0","0","0","18697","","null","","","null","42","","","","","","","","","","","","","","","NaN",""
"","S1","","html-keyboard-response","297","427698","0.0-1.0-389.0","0","0","18697","","null","","","null","43","","","","","","","","","","","","","","","",""
"","ISI","","html-keyboard-response","298","429699","0.0-1.0-390.0","0","0","18697","","null","","","null","43","NaN","","","","","","","","","","","","","","",""
"","S2","","html-keyboard-response","299","429952","0.0-1.0-391.0","0","0","18697","","null","","","null","43","","NaN","","","","","","","","","","","","","",""
"","response","","html-keyboard-response","300","430444","0.0-1.0-392.0","0","0","18697","","490","","","75","43","","","1","43","training","adjacent","DC","4","3","M.jpg","L.jpg","1","0","0","",""
"","feedback","","html-keyboard-response","301","431445","0.0-1.0-393.0-0.0","0","0","18697","","null","","","null","43","","","","","","","","","","","","","","","",""
"","time_out","","html-keyboard-response","302","433447","0.0-1.0-395.0-0.0","0","0","18697","","null","","","null","43","","","","","","","","","","","","","","","",""
"","ITI","","html-keyboard-response","303","434450","0.0-1.0-396.0","0","0","18697","","null","","","null","43","","","","","","","","","","","","","","","NaN",""
"","S1","","html-keyboard-response","304","434711","0.0-1.0-398.0","0","0","18697","","null","","","null","44","","","","","","","","","","","","","","","",""
"","ISI","","html-keyboard-response","305","436713","0.0-1.0-399.0","0","0","18697","","null","","","null","44","NaN","","","","","","","","","","","","","","",""
"","S2","","html-keyboard-response","306","436965","0.0-1.0-400.0","0","0","18697","","null","","","null","44","","NaN","","","","","","","","","","","","","",""
"","response","","html-keyboard-response","307","437460","0.0-1.0-401.0","0","0","18697","","493","","","75","44","","","1","44","training","adjacent","DE","4","5","M.jpg","P.jpg","1","1","1","",""
"","feedback","","html-keyboard-response","308","438461","0.0-1.0-402.0-0.0","0","0","18697","","null","","","null","44","","","","","","","","","","","","","","","",""
"","ITI","","html-keyboard-response","309","439463","0.0-1.0-405.0","0","0","18697","","null","","","null","44","","","","","","","","","","","","","","","NaN",""
"","S1","","html-keyboard-response","310","439715","0.0-1.0-407.0","0","0","18697","","null","","","null","45","","","","","","","","","","","","","","","",""
"","ISI","","html-keyboard-response","311","441728","0.0-1.0-408.0","0","0","18697","","null","","","null","45","NaN","","","","","","","","","","","","","","",""
"","S2","","html-keyboard-response","312","441980","0.0-1.0-409.0","0","0","18697","","null","","","null","45","","NaN","","","","","","","","","","","","","",""
"","response","","html-keyboard-response","313","442484","0.0-1.0-410.0","0","0","18697","","503","","","68","45","","","1","45","training","adjacent","AB","1","2","Q.jpg","R.jpg","0","1","0","",""
"","feedback","","html-keyboard-response","314","443486","0.0-1.0-411.0-0.0","0","0","18697","","null","","","null","45","","","","","","","","","","","","","","","",""
"","time_out","","html-keyboard-response","315","445487","0.0-1.0-413.0-0.0","0","0","18697","","null","","","null","45","","","","","","","","","","","","","","","",""
"","ITI","","html-keyboard-response","316","446489","0.0-1.0-414.0","0","0","18697","","null","","","null","45","","","","","","","","","","","","","","","NaN",""
"","S1","","html-keyboard-response","317","446741","0.0-1.0-416.0","0","0","18697","","null","","","null","46","","","","","","","","","","","","","","","",""
"","ISI","","html-keyboard-response","318","448743","0.0-1.0-417.0","0","0","18697","","null","","","null","46","NaN","","","","","","","","","","","","","","",""
"","S2","","html-keyboard-response","319","448995","0.0-1.0-418.0","0","0","18697","","null","","","null","46","","NaN","","","","","","","","","","","","","",""
"","response","","html-keyboard-response","320","449476","0.0-1.0-419.0","0","0","18697","","480","","","75","46","","","1","46","training","adjacent","GF","7","6","N.jpg","O.jpg","1","0","0","",""
"","feedback","","html-keyboard-response","321","450478","0.0-1.0-420.0-0.0","0","0","18697","","null","","","null","46","","","","","","","","","","","","","","","",""
"","time_out","","html-keyboard-response","322","452479","0.0-1.0-422.0-0.0","0","0","18697","","null","","","null","46","","","","","","","","","","","","","","","",""
"","ITI","","html-keyboard-response","323","453481","0.0-1.0-423.0","0","0","18697","","null","","","null","46","","","","","","","","","","","","","","","NaN",""
"","S1","","html-keyboard-response","324","453733","0.0-1.0-425.0","0","0","18697","","null","","","null","47","","","","","","","","","","","","","","","",""
"","ISI","","html-keyboard-response","325","455734","0.0-1.0-426.0","0","0","18697","","null","","","null","47","NaN","","","","","","","","","","","","","","",""
"","S2","","html-keyboard-response","326","455985","0.0-1.0-427.0","0","0","18697","","null","","","null","47","","NaN","","","","","","","","","","","","","",""
"","response","","html-keyboard-response","327","456404","0.0-1.0-428.0","0","0","18697","","417","","","75","47","","","1","47","training","adjacent","DC","4","3","M.jpg","L.jpg","1","0","0","",""
"","feedback","","html-keyboard-response","328","457405","0.0-1.0-429.0-0.0","0","0","18697","","null","","","null","47","","","","","","","","","","","","","","","",""
"","time_out","","html-keyboard-response","329","459407","0.0-1.0-431.0-0.0","0","0","18697","","null","","","null","47","","","","","","","","","","","","","","","",""
"","ITI","","html-keyboard-response","330","460409","0.0-1.0-432.0","0","0","18697","","null","","","null","47","","","","","","","","","","","","","","","NaN",""
"","block_over","","html-keyboard-response","331","468499","0.0-1.0-433.0-0.0","0","0","18697","","8088","","","32","47","","","","","","","","","","","","","","","",""
"","S1","","html-keyboard-response","332","468752","0.0-1.0-434.0","0","0","18697","","null","","","null","48","","","","","","","","","","","","","","","",""
"","ISI","","html-keyboard-response","333","470754","0.0-1.0-435.0","0","0","18697","","null","","","null","48","NaN","","","","","","","","","","","","","","",""
"","S2","","html-keyboard-response","334","471006","0.0-1.0-436.0","0","0","18697","","null","","","null","48","","NaN","","","","","","","","","","","","","",""
"","response","","html-keyboard-response","335","471691","0.0-1.0-437.0","0","0","18697","","684","","","68","48","","","2","48","training","adjacent","CD","3","4","L.jpg","M.jpg","0","1","0","",""
"","feedback","","html-keyboard-response","336","472693","0.0-1.0-438.0-0.0","0","0","18697","","null","","","null","48","","","","","","","","","","","","","","","",""
"","time_out","","html-keyboard-response","337","474695","0.0-1.0-440.0-0.0","0","0","18697","","null","","","null","48","","","","","","","","","","","","","","","",""
"","ITI","","html-keyboard-response","338","475696","0.0-1.0-441.0","0","0","18697","","null","","","null","48","","","","","","","","","","","","","","","NaN",""
"","S1","","html-keyboard-response","339","475949","0.0-1.0-443.0","0","0","18697","","null","","","null","49","","","","","","","","","","","","","","","",""
"","ISI","","html-keyboard-response","340","477951","0.0-1.0-444.0","0","0","18697","","null","","","null","49","NaN","","","","","","","","","","","","","","",""
"","S2","","html-keyboard-response","341","478203","0.0-1.0-445.0","0","0","18697","","null","","","null","49","","NaN","","","","","","","","","","","","","",""
"","response","","html-keyboard-response","342","478243","0.0-1.0-446.0","0","0","18697","","38","","","75","49","","","2","49","training","adjacent","ED","5","4","P.jpg","M.jpg","1","0","0","",""
"","feedback","","html-keyboard-response","343","479245","0.0-1.0-447.0-0.0","0","0","18697","","null","","","null","49","","","","","","","","","","","","","","","",""
"","time_out","","html-keyboard-response","344","481247","0.0-1.0-449.0-0.0","0","0","18697","","null","","","null","49","","","","","","","","","","","","","","","",""
"","ITI","","html-keyboard-response","345","482249","0.0-1.0-450.0","0","0","18697","","null","","","null","49","","","","","","","","","","","","","","","NaN",""
"","S1","","html-keyboard-response","346","482501","0.0-1.0-452.0","0","0","18697","","null","","","null","50","","","","","","","","","","","","","","","",""
"","ISI","","html-keyboard-response","347","484504","0.0-1.0-453.0","0","0","18697","","null","","","null","50","NaN","","","","","","","","","","","","","","",""
"","S2","","html-keyboard-response","348","484756","0.0-1.0-454.0","0","0","18697","","null","","","null","50","","NaN","","","","","","","","","","","","","",""
"","response","","html-keyboard-response","349","485291","0.0-1.0-455.0","0","0","18697","","534","","","68","50","","","2","50","training","adjacent","BA","2","1","R.jpg","Q.jpg","0","0","1","",""
"","feedback","","html-keyboard-response","350","486293","0.0-1.0-456.0-0.0","0","0","18697","","null","","","null","50","","","","","","","","","","","","","","","",""
"","ITI","","html-keyboard-response","351","487295","0.0-1.0-459.0","0","0","18697","","null","","","null","50","","","","","","","","","","","","","","","NaN",""
"","S1","","html-keyboard-response","352","487547","0.0-1.0-461.0","0","0","18697","","null","","","null","51","","","","","","","","","","","","","","","",""
"","ISI","","html-keyboard-response","353","489549","0.0-1.0-462.0","0","0","18697","","null","","","null","51","NaN","","","","","","","","","","","","","","",""
"","S2","","html-keyboard-response","354","489801","0.0-1.0-463.0","0","0","18697","","null","","","null","51","","NaN","","","","","","","","","","","","","",""
"","response","","html-keyboard-response","355","490267","0.0-1.0-464.0","0","0","18697","","465","","","68","51","","","2","51","training","adjacent","EF","5","6","P.jpg","O.jpg","0","1","0","",""
"","feedback","","html-keyboard-response","356","491269","0.0-1.0-465.0-0.0","0","0","18697","","null","","","null","51","","","","","","","","","","","","","","","",""
"","time_out","","html-keyboard-response","357","493270","0.0-1.0-467.0-0.0","0","0","18697","","null","","","null","51","","","","","","","","","","","","","","","",""
"","ITI","","html-keyboard-response","358","494273","0.0-1.0-468.0","0","0","18697","","null","","","null","51","","","","","","","","","","","","","","","NaN",""
"","S1","","html-keyboard-response","359","494525","0.0-1.0-470.0","0","0","18697","","null","","","null","52","","","","","","","","","","","","","","","",""
"","ISI","","html-keyboard-response","360","496526","0.0-1.0-471.0","0","0","18697","","null","","","null","52","NaN","","","","","","","","","","","","","","",""
"","S2","","html-keyboard-response","361","496778","0.0-1.0-472.0","0","0","18697","","null","","","null","52","","NaN","","","","","","","","","","","","","",""
"","response","","html-keyboard-response","362","497043","0.0-1.0-473.0","0","0","18697","","264","","","75","52","","","2","52","training","adjacent","GF","7","6","N.jpg","O.jpg","1","0","0","",""
"","feedback","","html-keyboard-response","363","498045","0.0-1.0-474.0-0.0","0","0","18697","","null","","","null","52","","","","","","","","","","","","","","","",""
"","time_out","","html-keyboard-response","364","500047","0.0-1.0-476.0-0.0","0","0","18697","","null","","","null","52","","","","","","","","","","","","","","","",""
"","ITI","","html-keyboard-response","365","501049","0.0-1.0-477.0","0","0","18697","","null","","","null","52","","","","","","","","","","","","","","","NaN",""
"","S1","","html-keyboard-response","366","501301","0.0-1.0-479.0","0","0","18697","","null","","","null","53","","","","","","","","","","","","","","","",""
"","ISI","","html-keyboard-response","367","503303","0.0-1.0-480.0","0","0","18697","","null","","","null","53","NaN","","","","","","","","","","","","","","",""
"","S2","","html-keyboard-response","368","503555","0.0-1.0-481.0","0","0","18697","","null","","","null","53","","NaN","","","","","","","","","","","","","",""
"","response","","html-keyboard-response","369","503963","0.0-1.0-482.0","0","0","18697","","407","","","75","53","","","2","53","training","adjacent","CB","3","2","L.jpg","R.jpg","1","0","0","",""
"","feedback","","html-keyboard-response","370","504965","0.0-1.0-483.0-0.0","0","0","18697","","null","","","null","53","","","","","","","","","","","","","","","",""
"","time_out","","html-keyboard-response","371","506966","0.0-1.0-485.0-0.0","0","0","18697","","null","","","null","53","","","","","","","","","","","","","","","",""
"","ITI","","html-keyboard-response","372","507968","0.0-1.0-486.0","0","0","18697","","null","","","null","53","","","","","","","","","","","","","","","NaN",""
"","S1","","html-keyboard-response","373","508220","0.0-1.0-488.0","0","0","18697","","null","","","null","54","","","","","","","","","","","","","","","",""
"","ISI","","html-keyboard-response","374","510223","0.0-1.0-489.0","0","0","18697","","null","","","null","54","NaN","","","","","","","","","","","","","","",""
"","S2","","html-keyboard-response","375","510474","0.0-1.0-490.0","0","0","18697","","null","","","null","54","","NaN","","","","","","","","","","","","","",""
"","response","","html-keyboard-response","376","510587","0.0-1.0-491.0","0","0","18697","","112","","","68","54","","","2","54","training","adjacent","BA","2","1","R.jpg","Q.jpg","0","0","1","",""
"","feedback","","html-keyboard-response","377","511588","0.0-1.0-492.0-0.0","0","0","18697","","null","","","null","54","","","","","","","","","","","","","","","",""
"","ITI","","html-keyboard-response","378","512590","0.0-1.0-495.0","0","0","18697","","null","","","null","54","","","","","","","","","","","","","","","NaN",""
"","S1","","html-keyboard-response","379","512843","0.0-1.0-497.0","0","0","18697","","null","","","null","55","","","","","","","","","","","","","","","",""
"","ISI","","html-keyboard-response","380","514845","0.0-1.0-498.0","0","0","18697","","null","","","null","55","NaN","","","","","","","","","","","","","","",""
"","S2","","html-keyboard-response","381","515097","0.0-1.0-499.0","0","0","18697","","null","","","null","55","","NaN","","","","","","","","","","","","","",""
"","response","","html-keyboard-response","382","515715","0.0-1.0-500.0","0","0","18697","","616","","","75","55","","","2","55","training","adjacent","DC","4","3","M.jpg","L.jpg","1","0","0","",""
"","feedback","","html-keyboard-response","383","516717","0.0-1.0-501.0-0.0","0","0","18697","","null","","","null","55","","","","","","","","","","","","","","","",""
"","time_out","","html-keyboard-response","384","518719","0.0-1.0-503.0-0.0","0","0","18697","","null","","","null","55","","","","","","","","","","","","","","","",""
"","ITI","","html-keyboard-response","385","519721","0.0-1.0-504.0","0","0","18697","","null","","","null","55","","","","","","","","","","","","","","","NaN",""
"","S1","","html-keyboard-response","386","519974","0.0-1.0-506.0","0","0","18697","","null","","","null","56","","","","","","","","","","","","","","","",""
"","ISI","","html-keyboard-response","387","521977","0.0-1.0-507.0","0","0","18697","","null","","","null","56","NaN","","","","","","","","","","","","","","",""
"","S2","","html-keyboard-response","388","522229","0.0-1.0-508.0","0","0","18697","","null","","","null","56","","NaN","","","","","","","","","","","","","",""
"","response","","html-keyboard-response","389","522660","0.0-1.0-509.0","0","0","18697","","429","","","75","56","","","2","56","training","adjacent","ED","5","4","P.jpg","M.jpg","1","0","0","",""
"","feedback","","html-keyboard-response","390","523662","0.0-1.0-510.0-0.0","0","0","18697","","null","","","null","56","","","","","","","","","","","","","","","",""
"","time_out","","html-keyboard-response","391","525664","0.0-1.0-512.0-0.0","0","0","18697","","null","","","null","56","","","","","","","","","","","","","","","",""
"","ITI","","html-keyboard-response","392","526665","0.0-1.0-513.0","0","0","18697","","null","","","null","56","","","","","","","","","","","","","","","NaN",""
"","S1","","html-keyboard-response","393","526917","0.0-1.0-515.0","0","0","18697","","null","","","null","57","","","","","","","","","","","","","","","",""
"","ISI","","html-keyboard-response","394","528919","0.0-1.0-516.0","0","0","18697","","null","","","null","57","NaN","","","","","","","","","","","","","","",""
"","S2","","html-keyboard-response","395","529171","0.0-1.0-517.0","0","0","18697","","null","","","null","57","","NaN","","","","","","","","","","","","","",""
"","response","","html-keyboard-response","396","529716","0.0-1.0-518.0","0","0","18697","","544","","","75","57","","","2","57","training","adjacent","ED","5","4","P.jpg","M.jpg","1","0","0","",""
"","feedback","","html-keyboard-response","397","530718","0.0-1.0-519.0-0.0","0","0","18697","","null","","","null","57","","","","","","","","","","","","","","","",""
"","time_out","","html-keyboard-response","398","532719","0.0-1.0-521.0-0.0","0","0","18697","","null","","","null","57","","","","","","","","","","","","","","","",""
"","ITI","","html-keyboard-response","399","533721","0.0-1.0-522.0","0","0","18697","","null","","","null","57","","","","","","","","","","","","","","","NaN",""
"","S1","","html-keyboard-response","400","533975","0.0-1.0-524.0","0","0","18697","","null","","","null","58","","","","","","","","","","","","","","","",""
"","ISI","","html-keyboard-response","401","535977","0.0-1.0-525.0","0","0","18697","","null","","","null","58","NaN","","","","","","","","","","","","","","",""
"","S2","","html-keyboard-response","402","536229","0.0-1.0-526.0","0","0","18697","","null","","","null","58","","NaN","","","","","","","","","","","","","",""
"","response","","html-keyboard-response","403","536492","0.0-1.0-527.0","0","0","18697","","261","","","68","58","","","2","58","training","adjacent","AB","1","2","Q.jpg","R.jpg","0","1","0","",""
"","feedback","","html-keyboard-response","404","537494","0.0-1.0-528.0-0.0","0","0","18697","","null","","","null","58","","","","","","","","","","","","","","","",""
"","time_out","","html-keyboard-response","405","539496","0.0-1.0-530.0-0.0","0","0","18697","","null","","","null","58","","","","","","","","","","","","","","","",""
"","ITI","","html-keyboard-response","406","540497","0.0-1.0-531.0","0","0","18697","","null","","","null","58","","","","","","","","","","","","","","","NaN",""
"","S1","","html-keyboard-response","407","540749","0.0-1.0-533.0","0","0","18697","","null","","","null","59","","","","","","","","","","","","","","","",""
"","ISI","","html-keyboard-response","408","542750","0.0-1.0-534.0","0","0","18697","","null","","","null","59","NaN","","","","","","","","","","","","","","",""
"","S2","","html-keyboard-response","409","543017","0.0-1.0-535.0","0","0","18697","","null","","","null","59","","NaN","","","","","","","","","","","","","",""
"","response","","html-keyboard-response","410","543652","0.0-1.0-536.0","0","0","18697","","634","","","68","59","","","2","59","training","adjacent","DC","4","3","M.jpg","L.jpg","0","0","1","",""
"","feedback","","html-keyboard-response","411","544661","0.0-1.0-537.0-0.0","0","0","18697","","null","","","null","59","","","","","","","","","","","","","","","",""
"","ITI","","html-keyboard-response","412","545664","0.0-1.0-540.0","0","0","18697","","null","","","null","59","","","","","","","","","","","","","","","NaN",""
"","S1","","html-keyboard-response","413","545915","0.0-1.0-542.0","0","0","18697","","null","","","null","60","","","","","","","","","","","","","","","",""
"","ISI","","html-keyboard-response","414","547917","0.0-1.0-543.0","0","0","18697","","null","","","null","60","NaN","","","","","","","","","","","","","","",""
"","S2","","html-keyboard-response","415","548168","0.0-1.0-544.0","0","0","18697","","null","","","null","60","","NaN","","","","","","","","","","","","","",""
"","response","","html-keyboard-response","416","548540","0.0-1.0-545.0","0","0","18697","","370","","","68","60","","","2","60","training","adjacent","FG","6","7","O.jpg","N.jpg","0","1","0","",""
"","feedback","","html-keyboard-response","417","549543","0.0-1.0-546.0-0.0","0","0","18697","","null","","","null","60","","","","","","","","","","","","","","","",""
"","time_out","","html-keyboard-response","418","551545","0.0-1.0-548.0-0.0","0","0","18697","","null","","","null","60","","","","","","","","","","","","","","","",""
"","ITI","","html-keyboard-response","419","552547","0.0-1.0-549.0","0","0","18697","","null","","","null","60","","","","","","","","","","","","","","","NaN",""
"","S1","","html-keyboard-response","420","552799","0.0-1.0-551.0","0","0","18697","","null","","","null","61","","","","","","","","","","","","","","","",""
"","ISI","","html-keyboard-response","421","554800","0.0-1.0-552.0","0","0","18697","","null","","","null","61","NaN","","","","","","","","","","","","","","",""
"","S2","","html-keyboard-response","422","555052","0.0-1.0-553.0","0","0","18697","","null","","","null","61","","NaN","","","","","","","","","","","","","",""
"","response","","html-keyboard-response","423","555444","0.0-1.0-554.0","0","0","18697","","391","","","75","61","","","2","61","training","adjacent","FG","6","7","O.jpg","N.jpg","1","1","1","",""
"","feedback","","html-keyboard-response","424","556446","0.0-1.0-555.0-0.0","0","0","18697","","null","","","null","61","","","","","","","","","","","","","","","",""
"","ITI","","html-keyboard-response","425","557448","0.0-1.0-558.0","0","0","18697","","null","","","null","61","","","","","","","","","","","","","","","NaN",""
"","S1","","html-keyboard-response","426","557699","0.0-1.0-560.0","0","0","18697","","null","","","null","62","","","","","","","","","","","","","","","",""
"","ISI","","html-keyboard-response","427","559702","0.0-1.0-561.0","0","0","18697","","null","","","null","62","NaN","","","","","","","","","","","","","","",""
"","S2","","html-keyboard-response","428","559954","0.0-1.0-562.0","0","0","18697","","null","","","null","62","","NaN","","","","","","","","","","","","","",""
"","response","","html-keyboard-response","429","560252","0.0-1.0-563.0","0","0","18697","","296","","","68","62","","","2","62","training","adjacent","EF","5","6","P.jpg","O.jpg","0","1","0","",""
"","feedback","","html-keyboard-response","430","561254","0.0-1.0-564.0-0.0","0","0","18697","","null","","","null","62","","","","","","","","","","","","","","","",""
"","time_out","","html-keyboard-response","431","563256","0.0-1.0-566.0-0.0","0","0","18697","","null","","","null","62","","","","","","","","","","","","","","","",""
"","ITI","","html-keyboard-response","432","564258","0.0-1.0-567.0","0","0","18697","","null","","","null","62","","","","","","","","","","","","","","","NaN",""
"","S1","","html-keyboard-response","433","564510","0.0-1.0-569.0","0","0","18697","","null","","","null","63","","","","","","","","","","","","","","","",""
"","ISI","","html-keyboard-response","434","566512","0.0-1.0-570.0","0","0","18697","","null","","","null","63","NaN","","","","","","","","","","","","","","",""
"","S2","","html-keyboard-response","435","566765","0.0-1.0-571.0","0","0","18697","","null","","","null","63","","NaN","","","","","","","","","","","","","",""
"","response","","html-keyboard-response","436","567356","0.0-1.0-572.0","0","0","18697","","590","","","68","63","","","2","63","training","adjacent","GF","7","6","N.jpg","O.jpg","0","0","1","",""
"","feedback","","html-keyboard-response","437","568358","0.0-1.0-573.0-0.0","0","0","18697","","null","","","null","63","","","","","","","","","","","","","","","",""
"","ITI","","html-keyboard-response","438","569359","0.0-1.0-576.0","0","0","18697","","null","","","null","63","","","","","","","","","","","","","","","NaN",""
"","S1","","html-keyboard-response","439","569611","0.0-1.0-578.0","0","0","18697","","null","","","null","64","","","","","","","","","","","","","","","",""
"","ISI","","html-keyboard-response","440","571612","0.0-1.0-579.0","0","0","18697","","null","","","null","64","NaN","","","","","","","","","","","","","","",""
"","S2","","html-keyboard-response","441","571865","0.0-1.0-580.0","0","0","18697","","null","","","null","64","","NaN","","","","","","","","","","","","","",""
"","response","","html-keyboard-response","442","572020","0.0-1.0-581.0","0","0","18697","","154","","","68","64","","","2","64","training","adjacent","BC","2","3","R.jpg","L.jpg","0","1","0","",""
"","feedback","","html-keyboard-response","443","573021","0.0-1.0-582.0-0.0","0","0","18697","","null","","","null","64","","","","","","","","","","","","","","","",""
"","time_out","","html-keyboard-response","444","575023","0.0-1.0-584.0-0.0","0","0","18697","","null","","","null","64","","","","","","","","","","","","","","","",""
"","ITI","","html-keyboard-response","445","576025","0.0-1.0-585.0","0","0","18697","","null","","","null","64","","","","","","","","","","","","","","","NaN",""
"","S1","","html-keyboard-response","446","576277","0.0-1.0-587.0","0","0","18697","","null","","","null","65","","","","","","","","","","","","","","","",""
"","ISI","","html-keyboard-response","447","578279","0.0-1.0-588.0","0","0","18697","","null","","","null","65","NaN","","","","","","","","","","","","","","",""
"","S2","","html-keyboard-response","448","578531","0.0-1.0-589.0","0","0","18697","","null","","","null","65","","NaN","","","","","","","","","","","","","",""
"","response","","html-keyboard-response","449","580364","0.0-1.0-590.0","0","0","18697","","1832","","","68","65","","","2","65","training","adjacent","AB","1","2","Q.jpg","R.jpg","0","1","0","",""
"","feedback","","html-keyboard-response","450","581366","0.0-1.0-591.0-0.0","0","0","18697","","null","","","null","65","","","","","","","","","","","","","","","",""
"","time_out","","html-keyboard-response","451","583368","0.0-1.0-593.0-0.0","0","0","18697","","null","","","null","65","","","","","","","","","","","","","","","",""
"","ITI","","html-keyboard-response","452","584369","0.0-1.0-594.0","0","0","18697","","null","","","null","65","","","","","","","","","","","","","","","NaN",""
"","S1","","html-keyboard-response","453","584623","0.0-1.0-596.0","0","0","18697","","null","","","null","66","","","","","","","","","","","","","","","",""
"","ISI","","html-keyboard-response","454","586625","0.0-1.0-597.0","0","0","18697","","null","","","null","66","NaN","","","","","","","","","","","","","","",""
"","S2","","html-keyboard-response","455","586876","0.0-1.0-598.0","0","0","18697","","null","","","null","66","","NaN","","","","","","","","","","","","","",""
"","response","","html-keyboard-response","456","587491","0.0-1.0-599.0","0","0","18697","","613","","","68","66","","","2","66","training","adjacent","AB","1","2","Q.jpg","R.jpg","0","1","0","",""
"","feedback","","html-keyboard-response","457","588493","0.0-1.0-600.0-0.0","0","0","18697","","null","","","null","66","","","","","","","","","","","","","","","",""
"","time_out","","html-keyboard-response","458","590494","0.0-1.0-602.0-0.0","0","0","18697","","null","","","null","66","","","","","","","","","","","","","","","",""
"","ITI","","html-keyboard-response","459","591496","0.0-1.0-603.0","0","0","18697","","null","","","null","66","","","","","","","","","","","","","","","NaN",""
"","S1","","html-keyboard-response","460","591748","0.0-1.0-605.0","0","0","18697","","null","","","null","67","","","","","","","","","","","","","","","",""
"","ISI","","html-keyboard-response","461","593750","0.0-1.0-606.0","0","0","18697","","null","","","null","67","NaN","","","","","","","","","","","","","","",""
"","S2","","html-keyboard-response","462","594003","0.0-1.0-607.0","0","0","18697","","null","","","null","67","","NaN","","","","","","","","","","","","","",""
"","response","","html-keyboard-response","463","594443","0.0-1.0-608.0","0","0","18697","","439","","","75","67","","","2","67","training","adjacent","DE","4","5","M.jpg","P.jpg","1","1","1","",""
"","feedback","","html-keyboard-response","464","595444","0.0-1.0-609.0-0.0","0","0","18697","","null","","","null","67","","","","","","","","","","","","","","","",""
"","ITI","","html-keyboard-response","465","596446","0.0-1.0-612.0","0","0","18697","","null","","","null","67","","","","","","","","","","","","","","","NaN",""
"","S1","","html-keyboard-response","466","596698","0.0-1.0-614.0","0","0","18697","","null","","","null","68","","","","","","","","","","","","","","","",""
"","ISI","","html-keyboard-response","467","598699","0.0-1.0-615.0","0","0","18697","","null","","","null","68","NaN","","","","","","","","","","","","","","",""
"","S2","","html-keyboard-response","468","598965","0.0-1.0-616.0","0","0","18697","","null","","","null","68","","NaN","","","","","","","","","","","","","",""
"","response","","html-keyboard-response","469","599331","0.0-1.0-617.0","0","0","18697","","364","","","75","68","","","2","68","training","adjacent","CB","3","2","L.jpg","R.jpg","1","0","0","",""
"","feedback","","html-keyboard-response","470","600334","0.0-1.0-618.0-0.0","0","0","18697","","null","","","null","68","","","","","","","","","","","","","","","",""
"","time_out","","html-keyboard-response","471","602336","0.0-1.0-620.0-0.0","0","0","18697","","null","","","null","68","","","","","","","","","","","","","","","",""
"","ITI","","html-keyboard-response","472","603337","0.0-1.0-621.0","0","0","18697","","null","","","null","68","","","","","","","","","","","","","","","NaN",""
"","S1","","html-keyboard-response","473","603589","0.0-1.0-623.0","0","0","18697","","null","","","null","69","","","","","","","","","","","","","","","",""
"","ISI","","html-keyboard-response","474","605591","0.0-1.0-624.0","0","0","18697","","null","","","null","69","NaN","","","","","","","","","","","","","","",""
"","S2","","html-keyboard-response","475","605843","0.0-1.0-625.0","0","0","18697","","null","","","null","69","","NaN","","","","","","","","","","","","","",""
"","response","","html-keyboard-response","476","606083","0.0-1.0-626.0","0","0","18697","","239","","","68","69","","","2","69","training","adjacent","FE","6","5","O.jpg","P.jpg","0","0","1","",""
"","feedback","","html-keyboard-response","477","607085","0.0-1.0-627.0-0.0","0","0","18697","","null","","","null","69","","","","","","","","","","","","","","","",""
"","ITI","","html-keyboard-response","478","608087","0.0-1.0-630.0","0","0","18697","","null","","","null","69","","","","","","","","","","","","","","","NaN",""
"","S1","","html-keyboard-response","479","608339","0.0-1.0-632.0","0","0","18697","","null","","","null","70","","","","","","","","","","","","","","","",""
"","ISI","","html-keyboard-response","480","610341","0.0-1.0-633.0","0","0","18697","","null","","","null","70","NaN","","","","","","","","","","","","","","",""
"","S2","","html-keyboard-response","481","610601","0.0-1.0-634.0","0","0","18697","","null","","","null","70","","NaN","","","","","","","","","","","","","",""
"","response","","html-keyboard-response","482","611235","0.0-1.0-635.0","0","0","18697","","633","","","75","70","","","2","70","training","adjacent","GF","7","6","N.jpg","O.jpg","1","0","0","",""
"","feedback","","html-keyboard-response","483","612236","0.0-1.0-636.0-0.0","0","0","18697","","null","","","null","70","","","","","","","","","","","","","","","",""
"","time_out","","html-keyboard-response","484","614238","0.0-1.0-638.0-0.0","0","0","18697","","null","","","null","70","","","","","","","","","","","","","","","",""
"","ITI","","html-keyboard-response","485","615240","0.0-1.0-639.0","0","0","18697","","null","","","null","70","","","","","","","","","","","","","","","NaN",""
"","S1","","html-keyboard-response","486","615492","0.0-1.0-641.0","0","0","18697","","null","","","null","71","","","","","","","","","","","","","","","",""
"","ISI","","html-keyboard-response","487","617495","0.0-1.0-642.0","0","0","18697","","null","","","null","71","NaN","","","","","","","","","","","","","","",""
"","S2","","html-keyboard-response","488","617747","0.0-1.0-643.0","0","0","18697","","null","","","null","71","","NaN","","","","","","","","","","","","","",""
"","response","","html-keyboard-response","489","617835","0.0-1.0-644.0","0","0","18697","","87","","","68","71","","","2","71","training","adjacent","DE","4","5","M.jpg","P.jpg","0","1","0","",""
"","feedback","","html-keyboard-response","490","618837","0.0-1.0-645.0-0.0","0","0","18697","","null","","","null","71","","","","","","","","","","","","","","","",""
"","time_out","","html-keyboard-response","491","620838","0.0-1.0-647.0-0.0","0","0","18697","","null","","","null","71","","","","","","","","","","","","","","","",""
"","ITI","","html-keyboard-response","492","621840","0.0-1.0-648.0","0","0","18697","","null","","","null","71","","","","","","","","","","","","","","","NaN",""
"","S1","","html-keyboard-response","493","622093","0.0-1.0-650.0","0","0","18697","","null","","","null","72","","","","","","","","","","","","","","","",""
"","ISI","","html-keyboard-response","494","624095","0.0-1.0-651.0","0","0","18697","","null","","","null","72","NaN","","","","","","","","","","","","","","",""
"","S2","","html-keyboard-response","495","624347","0.0-1.0-652.0","0","0","18697","","null","","","null","72","","NaN","","","","","","","","","","","","","",""
"","response","","html-keyboard-response","496","624411","0.0-1.0-653.0","0","0","18697","","63","","","75","72","","","2","72","training","adjacent","CD","3","4","L.jpg","M.jpg","1","1","1","",""
"","feedback","","html-keyboard-response","497","625413","0.0-1.0-654.0-0.0","0","0","18697","","null","","","null","72","","","","","","","","","","","","","","","",""
"","ITI","","html-keyboard-response","498","626416","0.0-1.0-657.0","0","0","18697","","null","","","null","72","","","","","","","","","","","","","","","NaN",""
"","S1","","html-keyboard-response","499","626668","0.0-1.0-659.0","0","0","18697","","null","","","null","73","","","","","","","","","","","","","","","",""
"","ISI","","html-keyboard-response","500","628670","0.0-1.0-660.0","0","0","18697","","null","","","null","73","NaN","","","","","","","","","","","","","","",""
"","S2","","html-keyboard-response","501","628922","0.0-1.0-661.0","0","0","18697","","null","","","null","73","","NaN","","","","","","","","","","","","","",""
"","response","","html-keyboard-response","502","629251","0.0-1.0-662.0","0","0","18697","","328","","","68","73","","","2","73","training","adjacent","EF","5","6","P.jpg","O.jpg","0","1","0","",""
"","feedback","","html-keyboard-response","503","630266","0.0-1.0-663.0-0.0","0","0","18697","","null","","","null","73","","","","","","","","","","","","","","","",""
"","time_out","","html-keyboard-response","504","632268","0.0-1.0-665.0-0.0","0","0","18697","","null","","","null","73","","","","","","","","","","","","","","","",""
"","ITI","","html-keyboard-response","505","633270","0.0-1.0-666.0","0","0","18697","","null","","","null","73","","","","","","","","","","","","","","","NaN",""
"","S1","","html-keyboard-response","506","633536","0.0-1.0-668.0","0","0","18697","","null","","","null","74","","","","","","","","","","","","","","","",""
"","ISI","","html-keyboard-response","507","635538","0.0-1.0-669.0","0","0","18697","","null","","","null","74","NaN","","","","","","","","","","","","","","",""
"","S2","","html-keyboard-response","508","635789","0.0-1.0-670.0","0","0","18697","","null","","","null","74","","NaN","","","","","","","","","","","","","",""
"","response","","html-keyboard-response","509","635979","0.0-1.0-671.0","0","0","18697","","188","","","75","74","","","2","74","training","adjacent","FG","6","7","O.jpg","N.jpg","1","1","1","",""
"","feedback","","html-keyboard-response","510","636980","0.0-1.0-672.0-0.0","0","0","18697","","null","","","null","74","","","","","","","","","","","","","","","",""
"","ITI","","html-keyboard-response","511","637983","0.0-1.0-675.0","0","0","18697","","null","","","null","74","","","","","","","","","","","","","","","NaN",""
"","S1","","html-keyboard-response","512","638235","0.0-1.0-677.0","0","0","18697","","null","","","null","75","","","","","","","","","","","","","","","",""
"","ISI","","html-keyboard-response","513","640236","0.0-1.0-678.0","0","0","18697","","null","","","null","75","NaN","","","","","","","","","","","","","","",""
"","S2","","html-keyboard-response","514","640487","0.0-1.0-679.0","0","0","18697","","null","","","null","75","","NaN","","","","","","","","","","","","","",""
"","response","","html-keyboard-response","515","641115","0.0-1.0-680.0","0","0","18697","","627","","","68","75","","","2","75","training","adjacent","FG","6","7","O.jpg","N.jpg","0","1","0","",""
"","feedback","","html-keyboard-response","516","642116","0.0-1.0-681.0-0.0","0","0","18697","","null","","","null","75","","","","","","","","","","","","","","","",""
"","time_out","","html-keyboard-response","517","644118","0.0-1.0-683.0-0.0","0","0","18697","","null","","","null","75","","","","","","","","","","","","","","","",""
"","ITI","","html-keyboard-response","518","645120","0.0-1.0-684.0","0","0","18697","","null","","","null","75","","","","","","","","","","","","","","","NaN",""
"","S1","","html-keyboard-response","519","645379","0.0-1.0-686.0","0","0","18697","","null","","","null","76","","","","","","","","","","","","","","","",""
"","ISI","","html-keyboard-response","520","647380","0.0-1.0-687.0","0","0","18697","","null","","","null","76","NaN","","","","","","","","","","","","","","",""
"","S2","","html-keyboard-response","521","647639","0.0-1.0-688.0","0","0","18697","","null","","","null","76","","NaN","","","","","","","","","","","","","",""
"","response","","html-keyboard-response","522","648067","0.0-1.0-689.0","0","0","18697","","426","","","68","76","","","2","76","training","adjacent","DE","4","5","M.jpg","P.jpg","0","1","0","",""
"","feedback","","html-keyboard-response","523","649068","0.0-1.0-690.0-0.0","0","0","18697","","null","","","null","76","","","","","","","","","","","","","","","",""
"","time_out","","html-keyboard-response","524","651070","0.0-1.0-692.0-0.0","0","0","18697","","null","","","null","76","","","","","","","","","","","","","","","",""
"","ITI","","html-keyboard-response","525","652072","0.0-1.0-693.0","0","0","18697","","null","","","null","76","","","","","","","","","","","","","","","NaN",""
"","S1","","html-keyboard-response","526","652324","0.0-1.0-695.0","0","0","18697","","null","","","null","77","","","","","","","","","","","","","","","",""
"","ISI","","html-keyboard-response","527","654326","0.0-1.0-696.0","0","0","18697","","null","","","null","77","NaN","","","","","","","","","","","","","","",""
"","S2","","html-keyboard-response","528","654578","0.0-1.0-697.0","0","0","18697","","null","","","null","77","","NaN","","","","","","","","","","","","","",""
"","response","","html-keyboard-response","529","654939","0.0-1.0-698.0","0","0","18697","","360","","","75","77","","","2","77","training","adjacent","BC","2","3","R.jpg","L.jpg","1","1","1","",""
"","feedback","","html-keyboard-response","530","655940","0.0-1.0-699.0-0.0","0","0","18697","","null","","","null","77","","","","","","","","","","","","","","","",""
"","ITI","","html-keyboard-response","531","656942","0.0-1.0-702.0","0","0","18697","","null","","","null","77","","","","","","","","","","","","","","","NaN",""
"","S1","","html-keyboard-response","532","657194","0.0-1.0-704.0","0","0","18697","","null","","","null","78","","","","","","","","","","","","","","","",""
"","ISI","","html-keyboard-response","533","659195","0.0-1.0-705.0","0","0","18697","","null","","","null","78","NaN","","","","","","","","","","","","","","",""
"","S2","","html-keyboard-response","534","659447","0.0-1.0-706.0","0","0","18697","","null","","","null","78","","NaN","","","","","","","","","","","","","",""
"","response","","html-keyboard-response","535","660283","0.0-1.0-707.0","0","0","18697","","835","","","75","78","","","2","78","training","adjacent","EF","5","6","P.jpg","O.jpg","1","1","1","",""
"","feedback","","html-keyboard-response","536","661284","0.0-1.0-708.0-0.0","0","0","18697","","null","","","null","78","","","","","","","","","","","","","","","",""
"","ITI","","html-keyboard-response","537","662285","0.0-1.0-711.0","0","0","18697","","null","","","null","78","","","","","","","","","","","","","","","NaN",""
"","S1","","html-keyboard-response","538","662538","0.0-1.0-713.0","0","0","18697","","null","","","null","79","","","","","","","","","","","","","","","",""
"","ISI","","html-keyboard-response","539","664539","0.0-1.0-714.0","0","0","18697","","null","","","null","79","NaN","","","","","","","","","","","","","","",""
"","S2","","html-keyboard-response","540","664791","0.0-1.0-715.0","0","0","18697","","null","","","null","79","","NaN","","","","","","","","","","","","","",""
"","response","","html-keyboard-response","541","665131","0.0-1.0-716.0","0","0","18697","","339","","","68","79","","","2","79","training","adjacent","DC","4","3","M.jpg","L.jpg","0","0","1","",""
"","feedback","","html-keyboard-response","542","666133","0.0-1.0-717.0-0.0","0","0","18697","","null","","","null","79","","","","","","","","","","","","","","","",""
"","ITI","","html-keyboard-response","543","667134","0.0-1.0-720.0","0","0","18697","","null","","","null","79","","","","","","","","","","","","","","","NaN",""
"","S1","","html-keyboard-response","544","667386","0.0-1.0-722.0","0","0","18697","","null","","","null","80","","","","","","","","","","","","","","","",""
"","ISI","","html-keyboard-response","545","669388","0.0-1.0-723.0","0","0","18697","","null","","","null","80","NaN","","","","","","","","","","","","","","",""
"","S2","","html-keyboard-response","546","669640","0.0-1.0-724.0","0","0","18697","","null","","","null","80","","NaN","","","","","","","","","","","","","",""
"","response","","html-keyboard-response","547","669923","0.0-1.0-725.0","0","0","18697","","282","","","68","80","","","2","80","training","adjacent","AB","1","2","Q.jpg","R.jpg","0","1","0","",""
"","feedback","","html-keyboard-response","548","670924","0.0-1.0-726.0-0.0","0","0","18697","","null","","","null","80","","","","","","","","","","","","","","","",""
"","time_out","","html-keyboard-response","549","672928","0.0-1.0-728.0-0.0","0","0","18697","","null","","","null","80","","","","","","","","","","","","","","","",""
"","ITI","","html-keyboard-response","550","673930","0.0-1.0-729.0","0","0","18697","","null","","","null","80","","","","","","","","","","","","","","","NaN",""
"","S1","","html-keyboard-response","551","674182","0.0-1.0-731.0","0","0","18697","","null","","","null","81","","","","","","","","","","","","","","","",""
"","ISI","","html-keyboard-response","552","676184","0.0-1.0-732.0","0","0","18697","","null","","","null","81","NaN","","","","","","","","","","","","","","",""
"","S2","","html-keyboard-response","553","676436","0.0-1.0-733.0","0","0","18697","","null","","","null","81","","NaN","","","","","","","","","","","","","",""
"","response","","html-keyboard-response","554","676603","0.0-1.0-734.0","0","0","18697","","166","","","68","81","","","2","81","training","adjacent","CB","3","2","L.jpg","R.jpg","0","0","1","",""
"","feedback","","html-keyboard-response","555","677604","0.0-1.0-735.0-0.0","0","0","18697","","null","","","null","81","","","","","","","","","","","","","","","",""
"","ITI","","html-keyboard-response","556","678606","0.0-1.0-738.0","0","0","18697","","null","","","null","81","","","","","","","","","","","","","","","NaN",""
"","S1","","html-keyboard-response","557","678858","0.0-1.0-740.0","0","0","18697","","null","","","null","82","","","","","","","","","","","","","","","",""
"","ISI","","html-keyboard-response","558","680860","0.0-1.0-741.0","0","0","18697","","null","","","null","82","NaN","","","","","","","","","","","","","","",""
"","S2","","html-keyboard-response","559","681111","0.0-1.0-742.0","0","0","18697","","null","","","null","82","","NaN","","","","","","","","","","","","","",""
"","response","","html-keyboard-response","560","681731","0.0-1.0-743.0","0","0","18697","","618","","","75","82","","","2","82","training","adjacent","DE","4","5","M.jpg","P.jpg","1","1","1","",""
"","feedback","","html-keyboard-response","561","682733","0.0-1.0-744.0-0.0","0","0","18697","","null","","","null","82","","","","","","","","","","","","","","","",""
"","ITI","","html-keyboard-response","562","683735","0.0-1.0-747.0","0","0","18697","","null","","","null","82","","","","","","","","","","","","","","","NaN",""
"","S1","","html-keyboard-response","563","683987","0.0-1.0-749.0","0","0","18697","","null","","","null","83","","","","","","","","","","","","","","","",""
"","ISI","","html-keyboard-response","564","685989","0.0-1.0-750.0","0","0","18697","","null","","","null","83","NaN","","","","","","","","","","","","","","",""
"","S2","","html-keyboard-response","565","686241","0.0-1.0-751.0","0","0","18697","","null","","","null","83","","NaN","","","","","","","","","","","","","",""
"","response","","html-keyboard-response","566","686739","0.0-1.0-752.0","0","0","18697","","496","","","75","83","","","2","83","training","adjacent","GF","7","6","N.jpg","O.jpg","1","0","0","",""
"","feedback","","html-keyboard-response","567","687741","0.0-1.0-753.0-0.0","0","0","18697","","null","","","null","83","","","","","","","","","","","","","","","",""
"","time_out","","html-keyboard-response","568","689743","0.0-1.0-755.0-0.0","0","0","18697","","null","","","null","83","","","","","","","","","","","","","","","",""
"","ITI","","html-keyboard-response","569","690745","0.0-1.0-756.0","0","0","18697","","null","","","null","83","","","","","","","","","","","","","","","NaN",""
"","S1","","html-keyboard-response","570","690997","0.0-1.0-758.0","0","0","18697","","null","","","null","84","","","","","","","","","","","","","","","",""
"","ISI","","html-keyboard-response","571","692999","0.0-1.0-759.0","0","0","18697","","null","","","null","84","NaN","","","","","","","","","","","","","","",""
"","S2","","html-keyboard-response","572","693251","0.0-1.0-760.0","0","0","18697","","null","","","null","84","","NaN","","","","","","","","","","","","","",""
"","response","","html-keyboard-response","573","693579","0.0-1.0-761.0","0","0","18697","","327","","","68","84","","","2","84","training","adjacent","FE","6","5","O.jpg","P.jpg","0","0","1","",""
"","feedback","","html-keyboard-response","574","694580","0.0-1.0-762.0-0.0","0","0","18697","","null","","","null","84","","","","","","","","","","","","","","","",""
"","ITI","","html-keyboard-response","575","695583","0.0-1.0-765.0","0","0","18697","","null","","","null","84","","","","","","","","","","","","","","","NaN",""
"","S1","","html-keyboard-response","576","695835","0.0-1.0-767.0","0","0","18697","","null","","","null","85","","","","","","","","","","","","","","","",""
"","ISI","","html-keyboard-response","577","697836","0.0-1.0-768.0","0","0","18697","","null","","","null","85","NaN","","","","","","","","","","","","","","",""
"","S2","","html-keyboard-response","578","698088","0.0-1.0-769.0","0","0","18697","","null","","","null","85","","NaN","","","","","","","","","","","","","",""
