"success","ttype","start_time","trial_type","trial_index","time_elapsed","internal_node_id","warning","missed_checkup","PID","view_history","rt","responses","repeat_instructions","key_press","index","keypress_isi","keypress_S2","block","trial_num","phase","group_type","pair_type","S1_stim","S2_stim","S1_img","S2_img","S1_chosen","S1_higher","accuracy","keypress_iti","total_bonus_tally"
"true","full_screen","d04062023hr1839","fullscreen","0","6460","0.0-0.0","0","0","42493","","","","","","","","","","","","","","","","","","","","","",""
"","instructions","","instructions","1","45154","0.0-1.0-0.0-0.0","0","0","42493","[{""page_index"":0,""viewing_time"":4283},{""page_index"":1,""viewing_time"":23113},{""page_index"":2,""viewing_time"":9487},{""page_index"":3,""viewing_time"":1808}]","38692","","","","","","","","","","","","","","","","","","","",""
"","comprehension_check","","survey-multi-choice","2","74883","0.0-1.0-0.0-1.0","0","0","42493","","29724","{""Q0"":""True"",""Q1"":""K"",""Q2"":""Once the second image appears and while the screen 'MAKE A CHOICE' is shown"",""Q3"":""Green mark"",""Q4"":""either D or K""}","0","","","","","","","","","","","","","","","","","",""
"","start_exp","","html-keyboard-response","3","78239","0.0-1.0-1.0","0","0","42493","","3354","","","32","","","","","","","","","","","","","","","","",""
"","S1","","html-keyboard-response","4","78393","0.0-1.0-2.0","0","0","42493","","null","","","null","0","","","","","","","","","","","","","","","",""
"","ISI","","html-keyboard-response","5","80395","0.0-1.0-3.0","0","0","42493","","null","","","null","0","NaN","","","","","","","","","","","","","","",""
"","S2","","html-keyboard-response","6","80548","0.0-1.0-4.0","0","0","42493","","null","","","null","0","","NaN","","","","","","","","","","","","","",""
"","response","","html-keyboard-response","7","82400","0.0-1.0-5.0-0.0","0","0","42493","","null","","","null","0","","","1","0","training","adjacent","BC","2","3","N.jpg","R.jpg","NaN","1","0","",""
"","too_slow_prompt","","html-keyboard-response","8","83404","0.0-1.0-7.0-0.0","1","0","42493","","null","","","null","","","","","","","","","","","","","","","","",""
"","time_out","","html-keyboard-response","9","85407","0.0-1.0-8.0-0.0","0","0","42493","","null","","","null","0","","","","","","","","","","","","","","","",""
"","ITI","","html-keyboard-response","10","86409","0.0-1.0-9.0","0","0","42493","","null","","","null","0","","","","","","","","","","","","","","","NaN",""
"","S1","","html-keyboard-response","11","86562","0.0-1.0-11.0","0","0","42493","","null","","","null","1","","","","","","","","","","","","","","","",""
"","ISI","","html-keyboard-response","12","88564","0.0-1.0-12.0","0","0","42493","","null","","","null","1","NaN","","","","","","","","","","","","","","",""
"","S2","","html-keyboard-response","13","88717","0.0-1.0-13.0","0","0","42493","","null","","","null","1","","NaN","","","","","","","","","","","","","",""
"","response","","html-keyboard-response","14","89246","0.0-1.0-14.0-0.0","0","0","42493","","528","","","68","1","","","1","1","training","adjacent","CD","3","4","R.jpg","Q.jpg","0","1","0","",""
"","feedback","","html-keyboard-response","15","90248","0.0-1.0-15.0-0.0","0","0","42493","","null","","","null","1","","","","","","","","","","","","","","","",""
"","time_out","","html-keyboard-response","16","92250","0.0-1.0-17.0-0.0","0","0","42493","","null","","","null","1","","","","","","","","","","","","","","","",""
"","ITI","","html-keyboard-response","17","93253","0.0-1.0-18.0","0","0","42493","","null","","","null","1","","","","","","","","","","","","","","","NaN",""
"","S1","","html-keyboard-response","18","93405","0.0-1.0-20.0","0","0","42493","","null","","","null","2","","","","","","","","","","","","","","","",""
"","ISI","","html-keyboard-response","19","95408","0.0-1.0-21.0","0","0","42493","","null","","","null","2","NaN","","","","","","","","","","","","","","",""
"","S2","","html-keyboard-response","20","95563","0.0-1.0-22.0","0","0","42493","","null","","","null","2","","NaN","","","","","","","","","","","","","",""
"","response","","html-keyboard-response","21","96348","0.0-1.0-23.0-0.0","0","0","42493","","785","","","75","2","","","1","2","training","adjacent","DE","4","5","Q.jpg","O.jpg","1","1","1","",""
"","feedback","","html-keyboard-response","22","97353","0.0-1.0-24.0-0.0","0","0","42493","","null","","","null","2","","","","","","","","","","","","","","","",""
"","ITI","","html-keyboard-response","23","98354","0.0-1.0-27.0","0","0","42493","","null","","","null","2","","","","","","","","","","","","","","","NaN",""
"","S1","","html-keyboard-response","24","98506","0.0-1.0-29.0","0","0","42493","","null","","","null","3","","","","","","","","","","","","","","","",""
"","ISI","","html-keyboard-response","25","100508","0.0-1.0-30.0","0","0","42493","","null","","","null","3","NaN","","","","","","","","","","","","","","",""
"","S2","","html-keyboard-response","26","100660","0.0-1.0-31.0","0","0","42493","","null","","","null","3","","NaN","","","","","","","","","","","","","",""
"","response","","html-keyboard-response","27","100921","0.0-1.0-32.0-0.0","0","0","42493","","260","","","75","3","","","1","3","training","adjacent","BC","2","3","N.jpg","R.jpg","1","1","1","",""
"","feedback","","html-keyboard-response","28","101924","0.0-1.0-33.0-0.0","0","0","42493","","null","","","null","3","","","","","","","","","","","","","","","",""
"","ITI","","html-keyboard-response","29","102927","0.0-1.0-36.0","0","0","42493","","null","","","null","3","","","","","","","","","","","","","","","NaN",""
"","S1","","html-keyboard-response","30","103079","0.0-1.0-38.0","0","0","42493","","null","","","null","4","","","","","","","","","","","","","","","",""
"","ISI","","html-keyboard-response","31","105081","0.0-1.0-39.0","0","0","42493","","null","","","null","4","NaN","","","","","","","","","","","","","","",""
"","S2","","html-keyboard-response","32","105233","0.0-1.0-40.0","0","0","42493","","null","","","null","4","","NaN","","","","","","","","","","","","","",""
"","response","","html-keyboard-response","33","105453","0.0-1.0-41.0-0.0","0","0","42493","","218","","","75","4","","","1","4","training","adjacent","CB","3","2","R.jpg","N.jpg","1","0","0","",""
"","feedback","","html-keyboard-response","34","106454","0.0-1.0-42.0-0.0","0","0","42493","","null","","","null","4","","","","","","","","","","","","","","","",""
"","time_out","","html-keyboard-response","35","108457","0.0-1.0-44.0-0.0","0","0","42493","","null","","","null","4","","","","","","","","","","","","","","","",""
"","ITI","","html-keyboard-response","36","109460","0.0-1.0-45.0","0","0","42493","","null","","","null","4","","","","","","","","","","","","","","","NaN",""
"","S1","","html-keyboard-response","37","109612","0.0-1.0-47.0","0","0","42493","","null","","","null","5","","","","","","","","","","","","","","","",""
"","ISI","","html-keyboard-response","38","111614","0.0-1.0-48.0","0","0","42493","","null","","","null","5","NaN","","","","","","","","","","","","","","",""
"","S2","","html-keyboard-response","39","111767","0.0-1.0-49.0","0","0","42493","","null","","","null","5","","NaN","","","","","","","","","","","","","",""
"","response","","html-keyboard-response","40","112593","0.0-1.0-50.0-0.0","0","0","42493","","824","","","68","5","","","1","5","training","adjacent","CD","3","4","R.jpg","Q.jpg","0","1","0","",""
"","feedback","","html-keyboard-response","41","113596","0.0-1.0-51.0-0.0","0","0","42493","","null","","","null","5","","","","","","","","","","","","","","","",""
"","time_out","","html-keyboard-response","42","115597","0.0-1.0-53.0-0.0","0","0","42493","","null","","","null","5","","","","","","","","","","","","","","","",""
"","ITI","","html-keyboard-response","43","116599","0.0-1.0-54.0","0","0","42493","","null","","","null","5","","","","","","","","","","","","","","","NaN",""
"","S1","","html-keyboard-response","44","116752","0.0-1.0-56.0","0","0","42493","","null","","","null","6","","","","","","","","","","","","","","","",""
"","ISI","","html-keyboard-response","45","118754","0.0-1.0-57.0","0","0","42493","","null","","","null","6","NaN","","","","","","","","","","","","","","",""
"","S2","","html-keyboard-response","46","118907","0.0-1.0-58.0","0","0","42493","","null","","","null","6","","NaN","","","","","","","","","","","","","",""
"","response","","html-keyboard-response","47","119506","0.0-1.0-59.0-0.0","0","0","42493","","597","","","75","6","","","1","6","training","adjacent","AB","1","2","L.jpg","N.jpg","1","1","1","",""
"","feedback","","html-keyboard-response","48","120508","0.0-1.0-60.0-0.0","0","0","42493","","null","","","null","6","","","","","","","","","","","","","","","",""
"","ITI","","html-keyboard-response","49","121510","0.0-1.0-63.0","0","0","42493","","null","","","null","6","","","","","","","","","","","","","","","NaN",""
"","S1","","html-keyboard-response","50","121663","0.0-1.0-65.0","0","0","42493","","null","","","null","7","","","","","","","","","","","","","","","",""
"","ISI","","html-keyboard-response","51","123677","0.0-1.0-66.0","0","0","42493","","null","","","null","7","NaN","","","","","","","","","","","","","","",""
"","S2","","html-keyboard-response","52","123828","0.0-1.0-67.0","0","0","42493","","null","","","null","7","","NaN","","","","","","","","","","","","","",""
"","response","","html-keyboard-response","53","124578","0.0-1.0-68.0-0.0","0","0","42493","","748","","","75","7","","","1","7","training","adjacent","GF","7","6","P.jpg","M.jpg","1","0","0","",""
"","feedback","","html-keyboard-response","54","125581","0.0-1.0-69.0-0.0","0","0","42493","","null","","","null","7","","","","","","","","","","","","","","","",""
"","time_out","","html-keyboard-response","55","127584","0.0-1.0-71.0-0.0","0","0","42493","","null","","","null","7","","","","","","","","","","","","","","","",""
"","ITI","","html-keyboard-response","56","128587","0.0-1.0-72.0","0","0","42493","","null","","","null","7","","","","","","","","","","","","","","","NaN",""
"","S1","","html-keyboard-response","57","128747","0.0-1.0-74.0","0","0","42493","","null","","","null","8","","","","","","","","","","","","","","","",""
"","ISI","","html-keyboard-response","58","130749","0.0-1.0-75.0","0","0","42493","","null","","","null","8","NaN","","","","","","","","","","","","","","",""
"","S2","","html-keyboard-response","59","130901","0.0-1.0-76.0","0","0","42493","","null","","","null","8","","NaN","","","","","","","","","","","","","",""
"","response","","html-keyboard-response","60","130957","0.0-1.0-77.0-0.0","0","0","42493","","54","","","75","8","","","1","8","training","adjacent","CD","3","4","R.jpg","Q.jpg","1","1","1","",""
"","feedback","","html-keyboard-response","61","131959","0.0-1.0-78.0-0.0","0","0","42493","","null","","","null","8","","","","","","","","","","","","","","","",""
"","ITI","","html-keyboard-response","62","132962","0.0-1.0-81.0","0","0","42493","","null","","","null","8","","","","","","","","","","","","","","","NaN",""
"","S1","","html-keyboard-response","63","133115","0.0-1.0-83.0","0","0","42493","","null","","","null","9","","","","","","","","","","","","","","","",""
"","ISI","","html-keyboard-response","64","135117","0.0-1.0-84.0","0","0","42493","","null","","","null","9","NaN","","","","","","","","","","","","","","",""
"","S2","","html-keyboard-response","65","135270","0.0-1.0-85.0","0","0","42493","","null","","","null","9","","NaN","","","","","","","","","","","","","",""
"","response","","html-keyboard-response","66","136075","0.0-1.0-86.0-0.0","0","0","42493","","804","","","68","9","","","1","9","training","adjacent","BA","2","1","N.jpg","L.jpg","0","0","1","",""
"","feedback","","html-keyboard-response","67","137078","0.0-1.0-87.0-0.0","0","0","42493","","null","","","null","9","","","","","","","","","","","","","","","",""
"","ITI","","html-keyboard-response","68","138081","0.0-1.0-90.0","0","0","42493","","null","","","null","9","","","","","","","","","","","","","","","NaN",""
"","S1","","html-keyboard-response","69","138234","0.0-1.0-92.0","0","0","42493","","null","","","null","10","","","","","","","","","","","","","","","",""
"","ISI","","html-keyboard-response","70","140237","0.0-1.0-93.0","0","0","42493","","null","","","null","10","NaN","","","","","","","","","","","","","","",""
"","S2","","html-keyboard-response","71","140389","0.0-1.0-94.0","0","0","42493","","null","","","null","10","","NaN","","","","","","","","","","","","","",""
"","response","","html-keyboard-response","72","140700","0.0-1.0-95.0-0.0","0","0","42493","","309","","","75","10","","","1","10","training","adjacent","EF","5","6","O.jpg","M.jpg","1","1","1","",""
"","feedback","","html-keyboard-response","73","141702","0.0-1.0-96.0-0.0","0","0","42493","","null","","","null","10","","","","","","","","","","","","","","","",""
"","ITI","","html-keyboard-response","74","142704","0.0-1.0-99.0","0","0","42493","","null","","","null","10","","","","","","","","","","","","","","","NaN",""
"","S1","","html-keyboard-response","75","142857","0.0-1.0-101.0","0","0","42493","","null","","","null","11","","","","","","","","","","","","","","","",""
"","ISI","","html-keyboard-response","76","144859","0.0-1.0-102.0","0","0","42493","","null","","","null","11","NaN","","","","","","","","","","","","","","",""
"","S2","","html-keyboard-response","77","145011","0.0-1.0-103.0","0","0","42493","","null","","","null","11","","NaN","","","","","","","","","","","","","",""
"","response","","html-keyboard-response","78","145660","0.0-1.0-104.0-0.0","0","0","42493","","647","","","75","11","","","1","11","training","adjacent","FG","6","7","M.jpg","P.jpg","1","1","1","",""
"","feedback","","html-keyboard-response","79","146667","0.0-1.0-105.0-0.0","0","0","42493","","null","","","null","11","","","","","","","","","","","","","","","",""
"","ITI","","html-keyboard-response","80","147669","0.0-1.0-108.0","0","0","42493","","null","","","null","11","","","","","","","","","","","","","","","NaN",""
"","S1","","html-keyboard-response","81","147822","0.0-1.0-110.0","0","0","42493","","null","","","null","12","","","","","","","","","","","","","","","",""
"","ISI","","html-keyboard-response","82","149824","0.0-1.0-111.0","0","0","42493","","null","","","null","12","NaN","","","","","","","","","","","","","","",""
"","S2","","html-keyboard-response","83","149977","0.0-1.0-112.0","0","0","42493","","null","","","null","12","","NaN","","","","","","","","","","","","","",""
"","response","","html-keyboard-response","84","150342","0.0-1.0-113.0-0.0","0","0","42493","","363","","","68","12","","","1","12","training","adjacent","EF","5","6","O.jpg","M.jpg","0","1","0","",""
"","feedback","","html-keyboard-response","85","151344","0.0-1.0-114.0-0.0","0","0","42493","","null","","","null","12","","","","","","","","","","","","","","","",""
"","time_out","","html-keyboard-response","86","153347","0.0-1.0-116.0-0.0","0","0","42493","","null","","","null","12","","","","","","","","","","","","","","","",""
"","ITI","","html-keyboard-response","87","154350","0.0-1.0-117.0","0","0","42493","","null","","","null","12","","","","","","","","","","","","","","","NaN",""
"","S1","","html-keyboard-response","88","154503","0.0-1.0-119.0","0","0","42493","","null","","","null","13","","","","","","","","","","","","","","","",""
"","ISI","","html-keyboard-response","89","156504","0.0-1.0-120.0","0","0","42493","","null","","","null","13","NaN","","","","","","","","","","","","","","",""
"","S2","","html-keyboard-response","90","156657","0.0-1.0-121.0","0","0","42493","","null","","","null","13","","NaN","","","","","","","","","","","","","",""
"","response","","html-keyboard-response","91","157159","0.0-1.0-122.0-0.0","0","0","42493","","500","","","75","13","","","1","13","training","adjacent","DC","4","3","Q.jpg","R.jpg","1","0","0","",""
"","feedback","","html-keyboard-response","92","158162","0.0-1.0-123.0-0.0","0","0","42493","","null","","","null","13","","","","","","","","","","","","","","","",""
"","time_out","","html-keyboard-response","93","160163","0.0-1.0-125.0-0.0","0","0","42493","","null","","","null","13","","","","","","","","","","","","","","","",""
"","ITI","","html-keyboard-response","94","161165","0.0-1.0-126.0","0","0","42493","","null","","","null","13","","","","","","","","","","","","","","","NaN",""
"","S1","","html-keyboard-response","95","161317","0.0-1.0-128.0","0","0","42493","","null","","","null","14","","","","","","","","","","","","","","","",""
"","ISI","","html-keyboard-response","96","163320","0.0-1.0-129.0","0","0","42493","","null","","","null","14","NaN","","","","","","","","","","","","","","",""
"","S2","","html-keyboard-response","97","163472","0.0-1.0-130.0","0","0","42493","","null","","","null","14","","NaN","","","","","","","","","","","","","",""
"","response","","html-keyboard-response","98","164766","0.0-1.0-131.0-0.0","0","0","42493","","1293","","","75","14","","","1","14","training","adjacent","BA","2","1","N.jpg","L.jpg","1","0","0","",""
"","feedback","","html-keyboard-response","99","165768","0.0-1.0-132.0-0.0","0","0","42493","","null","","","null","14","","","","","","","","","","","","","","","",""
"","time_out","","html-keyboard-response","100","167770","0.0-1.0-134.0-0.0","0","0","42493","","null","","","null","14","","","","","","","","","","","","","","","",""
"","ITI","","html-keyboard-response","101","168773","0.0-1.0-135.0","0","0","42493","","null","","","null","14","","","","","","","","","","","","","","","NaN",""
"","S1","","html-keyboard-response","102","168926","0.0-1.0-137.0","0","0","42493","","null","","","null","15","","","","","","","","","","","","","","","",""
"","ISI","","html-keyboard-response","103","170927","0.0-1.0-138.0","0","0","42493","","null","","","null","15","NaN","","","","","","","","","","","","","","",""
"","S2","","html-keyboard-response","104","171080","0.0-1.0-139.0","0","0","42493","","null","","","null","15","","NaN","","","","","","","","","","","","","",""
"","response","","html-keyboard-response","105","171474","0.0-1.0-140.0-0.0","0","0","42493","","393","","","75","15","","","1","15","training","adjacent","FE","6","5","M.jpg","O.jpg","1","0","0","",""
"","feedback","","html-keyboard-response","106","172476","0.0-1.0-141.0-0.0","0","0","42493","","null","","","null","15","","","","","","","","","","","","","","","",""
"","time_out","","html-keyboard-response","107","174478","0.0-1.0-143.0-0.0","0","0","42493","","null","","","null","15","","","","","","","","","","","","","","","",""
"","ITI","","html-keyboard-response","108","175480","0.0-1.0-144.0","0","0","42493","","null","","","null","15","","","","","","","","","","","","","","","NaN",""
"","S1","","html-keyboard-response","109","175633","0.0-1.0-146.0","0","0","42493","","null","","","null","16","","","","","","","","","","","","","","","",""
"","ISI","","html-keyboard-response","110","177635","0.0-1.0-147.0","0","0","42493","","null","","","null","16","NaN","","","","","","","","","","","","","","",""
"","S2","","html-keyboard-response","111","177787","0.0-1.0-148.0","0","0","42493","","null","","","null","16","","NaN","","","","","","","","","","","","","",""
"","response","","html-keyboard-response","112","178357","0.0-1.0-149.0-0.0","0","0","42493","","569","","","68","16","","","1","16","training","adjacent","ED","5","4","O.jpg","Q.jpg","0","0","1","",""
"","feedback","","html-keyboard-response","113","179360","0.0-1.0-150.0-0.0","0","0","42493","","null","","","null","16","","","","","","","","","","","","","","","",""
"","ITI","","html-keyboard-response","114","180362","0.0-1.0-153.0","0","0","42493","","null","","","null","16","","","","","","","","","","","","","","","NaN",""
"","S1","","html-keyboard-response","115","180514","0.0-1.0-155.0","0","0","42493","","null","","","null","17","","","","","","","","","","","","","","","",""
"","ISI","","html-keyboard-response","116","182518","0.0-1.0-156.0","0","0","42493","","null","","","null","17","NaN","","","","","","","","","","","","","","",""
"","S2","","html-keyboard-response","117","182671","0.0-1.0-157.0","0","0","42493","","null","","","null","17","","NaN","","","","","","","","","","","","","",""
"","response","","html-keyboard-response","118","183191","0.0-1.0-158.0-0.0","0","0","42493","","519","","","68","17","","","1","17","training","adjacent","ED","5","4","O.jpg","Q.jpg","0","0","1","",""
"","feedback","","html-keyboard-response","119","184193","0.0-1.0-159.0-0.0","0","0","42493","","null","","","null","17","","","","","","","","","","","","","","","",""
"","ITI","","html-keyboard-response","120","185195","0.0-1.0-162.0","0","0","42493","","null","","","null","17","","","","","","","","","","","","","","","NaN",""
"","S1","","html-keyboard-response","121","185348","0.0-1.0-164.0","0","0","42493","","null","","","null","18","","","","","","","","","","","","","","","",""
"","ISI","","html-keyboard-response","122","187350","0.0-1.0-165.0","0","0","42493","","null","","","null","18","NaN","","","","","","","","","","","","","","",""
"","S2","","html-keyboard-response","123","187503","0.0-1.0-166.0","0","0","42493","","null","","","null","18","","NaN","","","","","","","","","","","","","",""
"","response","","html-keyboard-response","124","187940","0.0-1.0-167.0-0.0","0","0","42493","","436","","","68","18","","","1","18","training","adjacent","FG","6","7","M.jpg","P.jpg","0","1","0","",""
"","feedback","","html-keyboard-response","125","188943","0.0-1.0-168.0-0.0","0","0","42493","","null","","","null","18","","","","","","","","","","","","","","","",""
"","time_out","","html-keyboard-response","126","190944","0.0-1.0-170.0-0.0","0","0","42493","","null","","","null","18","","","","","","","","","","","","","","","",""
"","ITI","","html-keyboard-response","127","191947","0.0-1.0-171.0","0","0","42493","","null","","","null","18","","","","","","","","","","","","","","","NaN",""
"","S1","","html-keyboard-response","128","192099","0.0-1.0-173.0","0","0","42493","","null","","","null","19","","","","","","","","","","","","","","","",""
"","ISI","","html-keyboard-response","129","194101","0.0-1.0-174.0","0","0","42493","","null","","","null","19","NaN","","","","","","","","","","","","","","",""
"","S2","","html-keyboard-response","130","194254","0.0-1.0-175.0","0","0","42493","","null","","","null","19","","NaN","","","","","","","","","","","","","",""
"","response","","html-keyboard-response","131","194879","0.0-1.0-176.0-0.0","0","0","42493","","624","","","75","19","","","1","19","training","adjacent","CB","3","2","R.jpg","N.jpg","1","0","0","",""
"","feedback","","html-keyboard-response","132","195882","0.0-1.0-177.0-0.0","0","0","42493","","null","","","null","19","","","","","","","","","","","","","","","",""
"","time_out","","html-keyboard-response","133","197885","0.0-1.0-179.0-0.0","0","0","42493","","null","","","null","19","","","","","","","","","","","","","","","",""
"","ITI","","html-keyboard-response","134","198887","0.0-1.0-180.0","0","0","42493","","null","","","null","19","","","","","","","","","","","","","","","NaN",""
"","S1","","html-keyboard-response","135","199041","0.0-1.0-182.0","0","0","42493","","null","","","null","20","","","","","","","","","","","","","","","",""
"","ISI","","html-keyboard-response","136","201043","0.0-1.0-183.0","0","0","42493","","null","","","null","20","NaN","","","","","","","","","","","","","","",""
"","S2","","html-keyboard-response","137","201195","0.0-1.0-184.0","0","0","42493","","null","","","null","20","","NaN","","","","","","","","","","","","","",""
"","response","","html-keyboard-response","138","201292","0.0-1.0-185.0-0.0","0","0","42493","","96","","","75","20","","","1","20","training","adjacent","DC","4","3","Q.jpg","R.jpg","1","0","0","",""
"","feedback","","html-keyboard-response","139","202294","0.0-1.0-186.0-0.0","0","0","42493","","null","","","null","20","","","","","","","","","","","","","","","",""
"","time_out","","html-keyboard-response","140","204296","0.0-1.0-188.0-0.0","0","0","42493","","null","","","null","20","","","","","","","","","","","","","","","",""
"","ITI","","html-keyboard-response","141","205298","0.0-1.0-189.0","0","0","42493","","null","","","null","20","","","","","","","","","","","","","","","NaN",""
"","S1","","html-keyboard-response","142","205449","0.0-1.0-191.0","0","0","42493","","null","","","null","21","","","","","","","","","","","","","","","",""
"","ISI","","html-keyboard-response","143","207451","0.0-1.0-192.0","0","0","42493","","532","","","68","21","d","","","","","","","","","","","","","","",""
"","S2","","html-keyboard-response","144","207605","0.0-1.0-193.0","0","0","42493","","null","","","null","21","","NaN","","","","","","","","","","","","","",""
"","response","","html-keyboard-response","145","207917","0.0-1.0-194.0-0.0","0","0","42493","","311","","","68","21","","","1","21","training","adjacent","EF","5","6","O.jpg","M.jpg","0","1","0","",""
"","feedback","","html-keyboard-response","146","208919","0.0-1.0-195.0-0.0","0","0","42493","","null","","","null","21","","","","","","","","","","","","","","","",""
"","time_out","","html-keyboard-response","147","210922","0.0-1.0-197.0-0.0","0","0","42493","","null","","","null","21","","","","","","","","","","","","","","","",""
"","ITI","","html-keyboard-response","148","211924","0.0-1.0-198.0","0","0","42493","","null","","","null","21","","","","","","","","","","","","","","","NaN",""
"","S1","","html-keyboard-response","149","212076","0.0-1.0-200.0","0","0","42493","","null","","","null","22","","","","","","","","","","","","","","","",""
"","ISI","","html-keyboard-response","150","214078","0.0-1.0-201.0","0","0","42493","","null","","","null","22","NaN","","","","","","","","","","","","","","",""
"","S2","","html-keyboard-response","151","214231","0.0-1.0-202.0","0","0","42493","","null","","","null","22","","NaN","","","","","","","","","","","","","",""
"","response","","html-keyboard-response","152","214623","0.0-1.0-203.0-0.0","0","0","42493","","391","","","75","22","","","1","22","training","adjacent","BA","2","1","N.jpg","L.jpg","1","0","0","",""
"","feedback","","html-keyboard-response","153","215636","0.0-1.0-204.0-0.0","0","0","42493","","null","","","null","22","","","","","","","","","","","","","","","",""
"","time_out","","html-keyboard-response","154","217638","0.0-1.0-206.0-0.0","0","0","42493","","null","","","null","22","","","","","","","","","","","","","","","",""
"","ITI","","html-keyboard-response","155","218640","0.0-1.0-207.0","0","0","42493","","null","","","null","22","","","","","","","","","","","","","","","NaN",""
"","S1","","html-keyboard-response","156","218792","0.0-1.0-209.0","0","0","42493","","null","","","null","23","","","","","","","","","","","","","","","",""
"","ISI","","html-keyboard-response","157","220795","0.0-1.0-210.0","0","0","42493","","null","","","null","23","NaN","","","","","","","","","","","","","","",""
"","S2","","html-keyboard-response","158","220947","0.0-1.0-211.0","0","0","42493","","null","","","null","23","","NaN","","","","","","","","","","","","","",""
"","response","","html-keyboard-response","159","221765","0.0-1.0-212.0-0.0","0","0","42493","","816","","","75","23","","","1","23","training","adjacent","CB","3","2","R.jpg","N.jpg","1","0","0","",""
"","feedback","","html-keyboard-response","160","222767","0.0-1.0-213.0-0.0","0","0","42493","","null","","","null","23","","","","","","","","","","","","","","","",""
"","time_out","","html-keyboard-response","161","224769","0.0-1.0-215.0-0.0","0","0","42493","","null","","","null","23","","","","","","","","","","","","","","","",""
"","ITI","","html-keyboard-response","162","225771","0.0-1.0-216.0","0","0","42493","","null","","","null","23","","","","","","","","","","","","","","","NaN",""
"","S1","","html-keyboard-response","163","225924","0.0-1.0-218.0","0","0","42493","","null","","","null","24","","","","","","","","","","","","","","","",""
"","ISI","","html-keyboard-response","164","227925","0.0-1.0-219.0","0","0","42493","","null","","","null","24","NaN","","","","","","","","","","","","","","",""
"","S2","","html-keyboard-response","165","228077","0.0-1.0-220.0","0","0","42493","","null","","","null","24","","NaN","","","","","","","","","","","","","",""
"","response","","html-keyboard-response","166","228794","0.0-1.0-221.0-0.0","0","0","42493","","716","","","68","24","","","1","24","training","adjacent","ED","5","4","O.jpg","Q.jpg","0","0","1","",""
"","feedback","","html-keyboard-response","167","229796","0.0-1.0-222.0-0.0","0","0","42493","","null","","","null","24","","","","","","","","","","","","","","","",""
"","ITI","","html-keyboard-response","168","230798","0.0-1.0-225.0","0","0","42493","","null","","","null","24","","","","","","","","","","","","","","","NaN",""
"","S1","","html-keyboard-response","169","230951","0.0-1.0-227.0","0","0","42493","","null","","","null","25","","","","","","","","","","","","","","","",""
"","ISI","","html-keyboard-response","170","232953","0.0-1.0-228.0","0","0","42493","","null","","","null","25","NaN","","","","","","","","","","","","","","",""
"","S2","","html-keyboard-response","171","233106","0.0-1.0-229.0","0","0","42493","","null","","","null","25","","NaN","","","","","","","","","","","","","",""
"","response","","html-keyboard-response","172","233404","0.0-1.0-230.0-0.0","0","0","42493","","297","","","68","25","","","1","25","training","adjacent","GF","7","6","P.jpg","M.jpg","0","0","1","",""
"","feedback","","html-keyboard-response","173","234406","0.0-1.0-231.0-0.0","0","0","42493","","null","","","null","25","","","","","","","","","","","","","","","",""
"","ITI","","html-keyboard-response","174","235409","0.0-1.0-234.0","0","0","42493","","null","","","null","25","","","","","","","","","","","","","","","NaN",""
"","S1","","html-keyboard-response","175","235562","0.0-1.0-236.0","0","0","42493","","null","","","null","26","","","","","","","","","","","","","","","",""
"","ISI","","html-keyboard-response","176","237564","0.0-1.0-237.0","0","0","42493","","null","","","null","26","NaN","","","","","","","","","","","","","","",""
"","S2","","html-keyboard-response","177","237717","0.0-1.0-238.0","0","0","42493","","null","","","null","26","","NaN","","","","","","","","","","","","","",""
"","response","","html-keyboard-response","178","237994","0.0-1.0-239.0-0.0","0","0","42493","","276","","","68","26","","","1","26","training","adjacent","DE","4","5","Q.jpg","O.jpg","0","1","0","",""
"","feedback","","html-keyboard-response","179","238997","0.0-1.0-240.0-0.0","0","0","42493","","null","","","null","26","","","","","","","","","","","","","","","",""
"","time_out","","html-keyboard-response","180","240999","0.0-1.0-242.0-0.0","0","0","42493","","null","","","null","26","","","","","","","","","","","","","","","",""
"","ITI","","html-keyboard-response","181","242002","0.0-1.0-243.0","0","0","42493","","null","","","null","26","","","","","","","","","","","","","","","NaN",""
"","S1","","html-keyboard-response","182","242154","0.0-1.0-245.0","0","0","42493","","null","","","null","27","","","","","","","","","","","","","","","",""
"","ISI","","html-keyboard-response","183","244157","0.0-1.0-246.0","0","0","42493","","null","","","null","27","NaN","","","","","","","","","","","","","","",""
"","S2","","html-keyboard-response","184","244310","0.0-1.0-247.0","0","0","42493","","null","","","null","27","","NaN","","","","","","","","","","","","","",""
"","response","","html-keyboard-response","185","244476","0.0-1.0-248.0-0.0","0","0","42493","","165","","","75","27","","","1","27","training","adjacent","BA","2","1","N.jpg","L.jpg","1","0","0","",""
"","feedback","","html-keyboard-response","186","245479","0.0-1.0-249.0-0.0","0","0","42493","","null","","","null","27","","","","","","","","","","","","","","","",""
"","time_out","","html-keyboard-response","187","247482","0.0-1.0-251.0-0.0","0","0","42493","","null","","","null","27","","","","","","","","","","","","","","","",""
"","ITI","","html-keyboard-response","188","248484","0.0-1.0-252.0","0","0","42493","","null","","","null","27","","","","","","","","","","","","","","","NaN",""
"","S1","","html-keyboard-response","189","248637","0.0-1.0-254.0","0","0","42493","","null","","","null","28","","","","","","","","","","","","","","","",""
"","ISI","","html-keyboard-response","190","250639","0.0-1.0-255.0","0","0","42493","","null","","","null","28","NaN","","","","","","","","","","","","","","",""
"","S2","","html-keyboard-response","191","250791","0.0-1.0-256.0","0","0","42493","","null","","","null","28","","NaN","","","","","","","","","","","","","",""
"","response","","html-keyboard-response","192","251061","0.0-1.0-257.0-0.0","0","0","42493","","269","","","68","28","","","1","28","training","adjacent","BC","2","3","N.jpg","R.jpg","0","1","0","",""
"","feedback","","html-keyboard-response","193","252064","0.0-1.0-258.0-0.0","0","0","42493","","null","","","null","28","","","","","","","","","","","","","","","",""
"","time_out","","html-keyboard-response","194","254066","0.0-1.0-260.0-0.0","0","0","42493","","null","","","null","28","","","","","","","","","","","","","","","",""
"","ITI","","html-keyboard-response","195","255068","0.0-1.0-261.0","0","0","42493","","null","","","null","28","","","","","","","","","","","","","","","NaN",""
"","S1","","html-keyboard-response","196","255221","0.0-1.0-263.0","0","0","42493","","null","","","null","29","","","","","","","","","","","","","","","",""
"","ISI","","html-keyboard-response","197","257224","0.0-1.0-264.0","0","0","42493","","null","","","null","29","NaN","","","","","","","","","","","","","","",""
"","S2","","html-keyboard-response","198","257377","0.0-1.0-265.0","0","0","42493","","null","","","null","29","","NaN","","","","","","","","","","","","","",""
"","response","","html-keyboard-response","199","257596","0.0-1.0-266.0-0.0","0","0","42493","","218","","","75","29","","","1","29","training","adjacent","DC","4","3","Q.jpg","R.jpg","1","0","0","",""
"","feedback","","html-keyboard-response","200","258599","0.0-1.0-267.0-0.0","0","0","42493","","null","","","null","29","","","","","","","","","","","","","","","",""
"","time_out","","html-keyboard-response","201","260601","0.0-1.0-269.0-0.0","0","0","42493","","null","","","null","29","","","","","","","","","","","","","","","",""
"","ITI","","html-keyboard-response","202","261604","0.0-1.0-270.0","0","0","42493","","null","","","null","29","","","","","","","","","","","","","","","NaN",""
"","S1","","html-keyboard-response","203","261757","0.0-1.0-272.0","0","0","42493","","null","","","null","30","","","","","","","","","","","","","","","",""
"","ISI","","html-keyboard-response","204","263759","0.0-1.0-273.0","0","0","42493","","null","","","null","30","NaN","","","","","","","","","","","","","","",""
"","S2","","html-keyboard-response","205","263912","0.0-1.0-274.0","0","0","42493","","null","","","null","30","","NaN","","","","","","","","","","","","","",""
"","response","","html-keyboard-response","206","264317","0.0-1.0-275.0-0.0","0","0","42493","","403","","","75","30","","","1","30","training","adjacent","GF","7","6","P.jpg","M.jpg","1","0","0","",""
"","feedback","","html-keyboard-response","207","265321","0.0-1.0-276.0-0.0","0","0","42493","","null","","","null","30","","","","","","","","","","","","","","","",""
"","time_out","","html-keyboard-response","208","267323","0.0-1.0-278.0-0.0","0","0","42493","","null","","","null","30","","","","","","","","","","","","","","","",""
"","ITI","","html-keyboard-response","209","268325","0.0-1.0-279.0","0","0","42493","","null","","","null","30","","","","","","","","","","","","","","","NaN",""
"","S1","","html-keyboard-response","210","268478","0.0-1.0-281.0","0","0","42493","","null","","","null","31","","","","","","","","","","","","","","","",""
"","ISI","","html-keyboard-response","211","270480","0.0-1.0-282.0","0","0","42493","","null","","","null","31","NaN","","","","","","","","","","","","","","",""
"","S2","","html-keyboard-response","212","270633","0.0-1.0-283.0","0","0","42493","","null","","","null","31","","NaN","","","","","","","","","","","","","",""
"","response","","html-keyboard-response","213","271995","0.0-1.0-284.0-0.0","0","0","42493","","1361","","","68","31","","","1","31","training","adjacent","EF","5","6","O.jpg","M.jpg","0","1","0","",""
"","feedback","","html-keyboard-response","214","272998","0.0-1.0-285.0-0.0","0","0","42493","","null","","","null","31","","","","","","","","","","","","","","","",""
"","time_out","","html-keyboard-response","215","275000","0.0-1.0-287.0-0.0","0","0","42493","","null","","","null","31","","","","","","","","","","","","","","","",""
"","ITI","","html-keyboard-response","216","276002","0.0-1.0-288.0","0","0","42493","","null","","","null","31","","","","","","","","","","","","","","","NaN",""
"","S1","","html-keyboard-response","217","276154","0.0-1.0-290.0","0","0","42493","","null","","","null","32","","","","","","","","","","","","","","","",""
"","ISI","","html-keyboard-response","218","278158","0.0-1.0-291.0","0","0","42493","","null","","","null","32","NaN","","","","","","","","","","","","","","",""
"","S2","","html-keyboard-response","219","278310","0.0-1.0-292.0","0","0","42493","","null","","","null","32","","NaN","","","","","","","","","","","","","",""
"","response","","html-keyboard-response","220","279227","0.0-1.0-293.0-0.0","0","0","42493","","916","","","75","32","","","1","32","training","adjacent","CD","3","4","R.jpg","Q.jpg","1","1","1","",""
"","feedback","","html-keyboard-response","221","280231","0.0-1.0-294.0-0.0","0","0","42493","","null","","","null","32","","","","","","","","","","","","","","","",""
"","ITI","","html-keyboard-response","222","281234","0.0-1.0-297.0","0","0","42493","","null","","","null","32","","","","","","","","","","","","","","","NaN",""
"","S1","","html-keyboard-response","223","281387","0.0-1.0-299.0","0","0","42493","","null","","","null","33","","","","","","","","","","","","","","","",""
"","ISI","","html-keyboard-response","224","283391","0.0-1.0-300.0","0","0","42493","","null","","","null","33","NaN","","","","","","","","","","","","","","",""
"","S2","","html-keyboard-response","225","283544","0.0-1.0-301.0","0","0","42493","","null","","","null","33","","NaN","","","","","","","","","","","","","",""
"","response","","html-keyboard-response","226","284692","0.0-1.0-302.0-0.0","0","0","42493","","1146","","","68","33","","","1","33","training","adjacent","FE","6","5","M.jpg","O.jpg","0","0","1","",""
"","feedback","","html-keyboard-response","227","285694","0.0-1.0-303.0-0.0","0","0","42493","","null","","","null","33","","","","","","","","","","","","","","","",""
"","ITI","","html-keyboard-response","228","286696","0.0-1.0-306.0","0","0","42493","","null","","","null","33","","","","","","","","","","","","","","","NaN",""
"","S1","","html-keyboard-response","229","286848","0.0-1.0-308.0","0","0","42493","","null","","","null","34","","","","","","","","","","","","","","","",""
"","ISI","","html-keyboard-response","230","288852","0.0-1.0-309.0","0","0","42493","","null","","","null","34","NaN","","","","","","","","","","","","","","",""
"","S2","","html-keyboard-response","231","289005","0.0-1.0-310.0","0","0","42493","","null","","","null","34","","NaN","","","","","","","","","","","","","",""
"","response","","html-keyboard-response","232","289298","0.0-1.0-311.0-0.0","0","0","42493","","292","","","75","34","","","1","34","training","adjacent","GF","7","6","P.jpg","M.jpg","1","0","0","",""
"","feedback","","html-keyboard-response","233","290302","0.0-1.0-312.0-0.0","0","0","42493","","null","","","null","34","","","","","","","","","","","","","","","",""
"","time_out","","html-keyboard-response","234","292305","0.0-1.0-314.0-0.0","0","0","42493","","null","","","null","34","","","","","","","","","","","","","","","",""
"","ITI","","html-keyboard-response","235","293307","0.0-1.0-315.0","0","0","42493","","null","","","null","34","","","","","","","","","","","","","","","NaN",""
"","S1","","html-keyboard-response","236","293459","0.0-1.0-317.0","0","0","42493","","null","","","null","35","","","","","","","","","","","","","","","",""
"","ISI","","html-keyboard-response","237","295462","0.0-1.0-318.0","0","0","42493","","null","","","null","35","NaN","","","","","","","","","","","","","","",""
"","S2","","html-keyboard-response","238","295614","0.0-1.0-319.0","0","0","42493","","null","","","null","35","","NaN","","","","","","","","","","","","","",""
"","response","","html-keyboard-response","239","296021","0.0-1.0-320.0-0.0","0","0","42493","","406","","","68","35","","","1","35","training","adjacent","DC","4","3","Q.jpg","R.jpg","0","0","1","",""
"","feedback","","html-keyboard-response","240","297024","0.0-1.0-321.0-0.0","0","0","42493","","null","","","null","35","","","","","","","","","","","","","","","",""
"","ITI","","html-keyboard-response","241","298029","0.0-1.0-324.0","0","0","42493","","null","","","null","35","","","","","","","","","","","","","","","NaN",""
"","S1","","html-keyboard-response","242","298183","0.0-1.0-326.0","0","0","42493","","null","","","null","36","","","","","","","","","","","","","","","",""
"","ISI","","html-keyboard-response","243","300185","0.0-1.0-327.0","0","0","42493","","null","","","null","36","NaN","","","","","","","","","","","","","","",""
"","S2","","html-keyboard-response","244","300338","0.0-1.0-328.0","0","0","42493","","null","","","null","36","","NaN","","","","","","","","","","","","","",""
"","response","","html-keyboard-response","245","300972","0.0-1.0-329.0-0.0","0","0","42493","","632","","","68","36","","","1","36","training","adjacent","AB","1","2","L.jpg","N.jpg","0","1","0","",""
"","feedback","","html-keyboard-response","246","301974","0.0-1.0-330.0-0.0","0","0","42493","","null","","","null","36","","","","","","","","","","","","","","","",""
"","time_out","","html-keyboard-response","247","303977","0.0-1.0-332.0-0.0","0","0","42493","","null","","","null","36","","","","","","","","","","","","","","","",""
"","ITI","","html-keyboard-response","248","304979","0.0-1.0-333.0","0","0","42493","","null","","","null","36","","","","","","","","","","","","","","","NaN",""
"","S1","","html-keyboard-response","249","305132","0.0-1.0-335.0","0","0","42493","","null","","","null","37","","","","","","","","","","","","","","","",""
"","ISI","","html-keyboard-response","250","307134","0.0-1.0-336.0","0","0","42493","","null","","","null","37","NaN","","","","","","","","","","","","","","",""
"","S2","","html-keyboard-response","251","307286","0.0-1.0-337.0","0","0","42493","","null","","","null","37","","NaN","","","","","","","","","","","","","",""
"","response","","html-keyboard-response","252","307985","0.0-1.0-338.0-0.0","0","0","42493","","698","","","68","37","","","1","37","training","adjacent","FE","6","5","M.jpg","O.jpg","0","0","1","",""
"","feedback","","html-keyboard-response","253","308989","0.0-1.0-339.0-0.0","0","0","42493","","null","","","null","37","","","","","","","","","","","","","","","",""
"","ITI","","html-keyboard-response","254","309991","0.0-1.0-342.0","0","0","42493","","null","","","null","37","","","","","","","","","","","","","","","NaN",""
"","S1","","html-keyboard-response","255","310144","0.0-1.0-344.0","0","0","42493","","null","","","null","38","","","","","","","","","","","","","","","",""
"","ISI","","html-keyboard-response","256","312147","0.0-1.0-345.0","0","0","42493","","null","","","null","38","NaN","","","","","","","","","","","","","","",""
"","S2","","html-keyboard-response","257","312302","0.0-1.0-346.0","0","0","42493","","null","","","null","38","","NaN","","","","","","","","","","","","","",""
"","response","","html-keyboard-response","258","313653","0.0-1.0-347.0-0.0","0","0","42493","","1349","","","68","38","","","1","38","training","adjacent","FG","6","7","M.jpg","P.jpg","0","1","0","",""
"","feedback","","html-keyboard-response","259","314655","0.0-1.0-348.0-0.0","0","0","42493","","null","","","null","38","","","","","","","","","","","","","","","",""
"","time_out","","html-keyboard-response","260","316657","0.0-1.0-350.0-0.0","0","0","42493","","null","","","null","38","","","","","","","","","","","","","","","",""
"","ITI","","html-keyboard-response","261","317659","0.0-1.0-351.0","0","0","42493","","null","","","null","38","","","","","","","","","","","","","","","NaN",""
"","S1","","html-keyboard-response","262","317811","0.0-1.0-353.0","0","0","42493","","null","","","null","39","","","","","","","","","","","","","","","",""
"","ISI","","html-keyboard-response","263","319814","0.0-1.0-354.0","0","0","42493","","null","","","null","39","NaN","","","","","","","","","","","","","","",""
"","S2","","html-keyboard-response","264","319966","0.0-1.0-355.0","0","0","42493","","null","","","null","39","","NaN","","","","","","","","","","","","","",""
"","response","","html-keyboard-response","265","320230","0.0-1.0-356.0-0.0","0","0","42493","","262","","","68","39","","","1","39","training","adjacent","DE","4","5","Q.jpg","O.jpg","0","1","0","",""
"","feedback","","html-keyboard-response","266","321232","0.0-1.0-357.0-0.0","0","0","42493","","null","","","null","39","","","","","","","","","","","","","","","",""
"","time_out","","html-keyboard-response","267","323235","0.0-1.0-359.0-0.0","0","0","42493","","null","","","null","39","","","","","","","","","","","","","","","",""
"","ITI","","html-keyboard-response","268","324237","0.0-1.0-360.0","0","0","42493","","null","","","null","39","","","","","","","","","","","","","","","NaN",""
"","S1","","html-keyboard-response","269","324389","0.0-1.0-362.0","0","0","42493","","null","","","null","40","","","","","","","","","","","","","","","",""
"","ISI","","html-keyboard-response","270","326401","0.0-1.0-363.0","0","0","42493","","null","","","null","40","NaN","","","","","","","","","","","","","","",""
"","S2","","html-keyboard-response","271","326554","0.0-1.0-364.0","0","0","42493","","null","","","null","40","","NaN","","","","","","","","","","","","","",""
"","response","","html-keyboard-response","272","327274","0.0-1.0-365.0-0.0","0","0","42493","","718","","","68","40","","","1","40","training","adjacent","FG","6","7","M.jpg","P.jpg","0","1","0","",""
"","feedback","","html-keyboard-response","273","328277","0.0-1.0-366.0-0.0","0","0","42493","","null","","","null","40","","","","","","","","","","","","","","","",""
"","time_out","","html-keyboard-response","274","330279","0.0-1.0-368.0-0.0","0","0","42493","","null","","","null","40","","","","","","","","","","","","","","","",""
"","ITI","","html-keyboard-response","275","331282","0.0-1.0-369.0","0","0","42493","","null","","","null","40","","","","","","","","","","","","","","","NaN",""
"","S1","","html-keyboard-response","276","331434","0.0-1.0-371.0","0","0","42493","","null","","","null","41","","","","","","","","","","","","","","","",""
"","ISI","","html-keyboard-response","277","333436","0.0-1.0-372.0","0","0","42493","","null","","","null","41","NaN","","","","","","","","","","","","","","",""
"","S2","","html-keyboard-response","278","333588","0.0-1.0-373.0","0","0","42493","","null","","","null","41","","NaN","","","","","","","","","","","","","",""
"","response","","html-keyboard-response","279","334480","0.0-1.0-374.0-0.0","0","0","42493","","890","","","68","41","","","1","41","training","adjacent","AB","1","2","L.jpg","N.jpg","0","1","0","",""
"","feedback","","html-keyboard-response","280","335482","0.0-1.0-375.0-0.0","0","0","42493","","null","","","null","41","","","","","","","","","","","","","","","",""
"","time_out","","html-keyboard-response","281","337485","0.0-1.0-377.0-0.0","0","0","42493","","null","","","null","41","","","","","","","","","","","","","","","",""
"","ITI","","html-keyboard-response","282","338487","0.0-1.0-378.0","0","0","42493","","null","","","null","41","","","","","","","","","","","","","","","NaN",""
"","S1","","html-keyboard-response","283","338639","0.0-1.0-380.0","0","0","42493","","null","","","null","42","","","","","","","","","","","","","","","",""
"","ISI","","html-keyboard-response","284","340651","0.0-1.0-381.0","0","0","42493","","null","","","null","42","NaN","","","","","","","","","","","","","","",""
"","S2","","html-keyboard-response","285","340804","0.0-1.0-382.0","0","0","42493","","null","","","null","42","","NaN","","","","","","","","","","","","","",""
"","response","","html-keyboard-response","286","342356","0.0-1.0-383.0-0.0","0","0","42493","","1551","","","68","42","","","1","42","training","adjacent","CB","3","2","R.jpg","N.jpg","0","0","1","",""
"","feedback","","html-keyboard-response","287","343359","0.0-1.0-384.0-0.0","0","0","42493","","null","","","null","42","","","","","","","","","","","","","","","",""
"","ITI","","html-keyboard-response","288","344362","0.0-1.0-387.0","0","0","42493","","null","","","null","42","","","","","","","","","","","","","","","NaN",""
"","S1","","html-keyboard-response","289","344514","0.0-1.0-389.0","0","0","42493","","null","","","null","43","","","","","","","","","","","","","","","",""
"","ISI","","html-keyboard-response","290","346517","0.0-1.0-390.0","0","0","42493","","null","","","null","43","NaN","","","","","","","","","","","","","","",""
"","S2","","html-keyboard-response","291","346670","0.0-1.0-391.0","0","0","42493","","null","","","null","43","","NaN","","","","","","","","","","","","","",""
"","response","","html-keyboard-response","292","347121","0.0-1.0-392.0-0.0","0","0","42493","","451","","","68","43","","","1","43","training","adjacent","ED","5","4","O.jpg","Q.jpg","0","0","1","",""
"","feedback","","html-keyboard-response","293","348123","0.0-1.0-393.0-0.0","0","0","42493","","null","","","null","43","","","","","","","","","","","","","","","",""
"","ITI","","html-keyboard-response","294","349125","0.0-1.0-396.0","0","0","42493","","null","","","null","43","","","","","","","","","","","","","","","NaN",""
"","S1","","html-keyboard-response","295","349278","0.0-1.0-398.0","0","0","42493","","null","","","null","44","","","","","","","","","","","","","","","",""
"","ISI","","html-keyboard-response","296","351281","0.0-1.0-399.0","0","0","42493","","null","","","null","44","NaN","","","","","","","","","","","","","","",""
"","S2","","html-keyboard-response","297","351434","0.0-1.0-400.0","0","0","42493","","null","","","null","44","","NaN","","","","","","","","","","","","","",""
"","response","","html-keyboard-response","298","352348","0.0-1.0-401.0-0.0","0","0","42493","","912","","","68","44","","","1","44","training","adjacent","BC","2","3","N.jpg","R.jpg","0","1","0","",""
"","feedback","","html-keyboard-response","299","353351","0.0-1.0-402.0-0.0","0","0","42493","","null","","","null","44","","","","","","","","","","","","","","","",""
"","time_out","","html-keyboard-response","300","355354","0.0-1.0-404.0-0.0","0","0","42493","","null","","","null","44","","","","","","","","","","","","","","","",""
"","ITI","","html-keyboard-response","301","356356","0.0-1.0-405.0","0","0","42493","","null","","","null","44","","","","","","","","","","","","","","","NaN",""
"","S1","","html-keyboard-response","302","356508","0.0-1.0-407.0","0","0","42493","","null","","","null","45","","","","","","","","","","","","","","","",""
"","ISI","","html-keyboard-response","303","358511","0.0-1.0-408.0","0","0","42493","","null","","","null","45","NaN","","","","","","","","","","","","","","",""
"","S2","","html-keyboard-response","304","358663","0.0-1.0-409.0","0","0","42493","","null","","","null","45","","NaN","","","","","","","","","","","","","",""
"","response","","html-keyboard-response","305","359110","0.0-1.0-410.0-0.0","0","0","42493","","446","","","75","45","","","1","45","training","adjacent","AB","1","2","L.jpg","N.jpg","1","1","1","",""
"","feedback","","html-keyboard-response","306","360113","0.0-1.0-411.0-0.0","0","0","42493","","null","","","null","45","","","","","","","","","","","","","","","",""
"","ITI","","html-keyboard-response","307","361115","0.0-1.0-414.0","0","0","42493","","null","","","null","45","","","","","","","","","","","","","","","NaN",""
"","S1","","html-keyboard-response","308","361267","0.0-1.0-416.0","0","0","42493","","null","","","null","46","","","","","","","","","","","","","","","",""
"","ISI","","html-keyboard-response","309","363269","0.0-1.0-417.0","0","0","42493","","null","","","null","46","NaN","","","","","","","","","","","","","","",""
"","S2","","html-keyboard-response","310","363421","0.0-1.0-418.0","0","0","42493","","null","","","null","46","","NaN","","","","","","","","","","","","","",""
"","response","","html-keyboard-response","311","364259","0.0-1.0-419.0-0.0","0","0","42493","","836","","","75","46","","","1","46","training","adjacent","DE","4","5","Q.jpg","O.jpg","1","1","1","",""
"","feedback","","html-keyboard-response","312","365262","0.0-1.0-420.0-0.0","0","0","42493","","null","","","null","46","","","","","","","","","","","","","","","",""
"","ITI","","html-keyboard-response","313","366264","0.0-1.0-423.0","0","0","42493","","null","","","null","46","","","","","","","","","","","","","","","NaN",""
"","S1","","html-keyboard-response","314","366418","0.0-1.0-425.0","0","0","42493","","null","","","null","47","","","","","","","","","","","","","","","",""
"","ISI","","html-keyboard-response","315","368420","0.0-1.0-426.0","0","0","42493","","null","","","null","47","NaN","","","","","","","","","","","","","","",""
"","S2","","html-keyboard-response","316","368574","0.0-1.0-427.0","0","0","42493","","null","","","null","47","","NaN","","","","","","","","","","","","","",""
"","response","","html-keyboard-response","317","369836","0.0-1.0-428.0-0.0","0","0","42493","","1260","","","75","47","","","1","47","training","adjacent","FE","6","5","M.jpg","O.jpg","1","0","0","",""
"","feedback","","html-keyboard-response","318","370839","0.0-1.0-429.0-0.0","0","0","42493","","null","","","null","47","","","","","","","","","","","","","","","",""
"","time_out","","html-keyboard-response","319","372842","0.0-1.0-431.0-0.0","0","0","42493","","null","","","null","47","","","","","","","","","","","","","","","",""
"","ITI","","html-keyboard-response","320","373844","0.0-1.0-432.0","0","0","42493","","null","","","null","47","","","","","","","","","","","","","","","NaN",""
"","block_over","","html-keyboard-response","321","377412","0.0-1.0-433.0-0.0","0","0","42493","","3566","","","32","47","","","","","","","","","","","","","","","",""
"","S1","","html-keyboard-response","322","377565","0.0-1.0-434.0","0","0","42493","","null","","","null","48","","","","","","","","","","","","","","","",""
"","ISI","","html-keyboard-response","323","379567","0.0-1.0-435.0","0","0","42493","","1006","","","68","48","d","","","","","","","","","","","","","","",""
"","S2","","html-keyboard-response","324","379721","0.0-1.0-436.0","0","0","42493","","null","","","null","48","","NaN","","","","","","","","","","","","","",""
"","response","","html-keyboard-response","325","381146","0.0-1.0-437.0-0.0","0","0","42493","","1424","","","75","48","","","2","48","training","adjacent","DE","4","5","Q.jpg","O.jpg","1","1","1","",""
"","feedback","","html-keyboard-response","326","382148","0.0-1.0-438.0-0.0","0","0","42493","","null","","","null","48","","","","","","","","","","","","","","","",""
"","ITI","","html-keyboard-response","327","383151","0.0-1.0-441.0","0","0","42493","","null","","","null","48","","","","","","","","","","","","","","","NaN",""
"","S1","","html-keyboard-response","328","383304","0.0-1.0-443.0","0","0","42493","","null","","","null","49","","","","","","","","","","","","","","","",""
"","ISI","","html-keyboard-response","329","385306","0.0-1.0-444.0","0","0","42493","","518","","","68","49","d","","","","","","","","","","","","","","",""
"","S2","","html-keyboard-response","330","385459","0.0-1.0-445.0","0","0","42493","","null","","","null","49","","NaN","","","","","","","","","","","","","",""
"","response","","html-keyboard-response","331","385792","0.0-1.0-446.0-0.0","0","0","42493","","332","","","75","49","","","2","49","training","adjacent","FE","6","5","M.jpg","O.jpg","1","0","0","",""
"","feedback","","html-keyboard-response","332","386794","0.0-1.0-447.0-0.0","0","0","42493","","null","","","null","49","","","","","","","","","","","","","","","",""
"","time_out","","html-keyboard-response","333","388796","0.0-1.0-449.0-0.0","0","0","42493","","null","","","null","49","","","","","","","","","","","","","","","",""
"","ITI","","html-keyboard-response","334","389799","0.0-1.0-450.0","0","0","42493","","null","","","null","49","","","","","","","","","","","","","","","NaN",""
"","S1","","html-keyboard-response","335","389963","0.0-1.0-452.0","0","0","42493","","null","","","null","50","","","","","","","","","","","","","","","",""
"","ISI","","html-keyboard-response","336","391966","0.0-1.0-453.0","0","0","42493","","147","","","75","50","k","","","","","","","","","","","","","","",""
"","S2","","html-keyboard-response","337","392119","0.0-1.0-454.0","0","0","42493","","null","","","null","50","","NaN","","","","","","","","","","","","","",""
"","response","","html-keyboard-response","338","392226","0.0-1.0-455.0-0.0","0","0","42493","","106","","","75","50","","","2","50","training","adjacent","BC","2","3","N.jpg","R.jpg","1","1","1","",""
"","feedback","","html-keyboard-response","339","393228","0.0-1.0-456.0-0.0","0","0","42493","","null","","","null","50","","","","","","","","","","","","","","","",""
"","ITI","","html-keyboard-response","340","394230","0.0-1.0-459.0","0","0","42493","","null","","","null","50","","","","","","","","","","","","","","","NaN",""
"","S1","","html-keyboard-response","341","394383","0.0-1.0-461.0","0","0","42493","","null","","","null","51","","","","","","","","","","","","","","","",""
"","ISI","","html-keyboard-response","342","396386","0.0-1.0-462.0","0","0","42493","","null","","","null","51","NaN","","","","","","","","","","","","","","",""
"","S2","","html-keyboard-response","343","396538","0.0-1.0-463.0","0","0","42493","","null","","","null","51","","NaN","","","","","","","","","","","","","",""
"","response","","html-keyboard-response","344","396921","0.0-1.0-464.0-0.0","0","0","42493","","382","","","68","51","","","2","51","training","adjacent","CB","3","2","R.jpg","N.jpg","0","0","1","",""
"","feedback","","html-keyboard-response","345","397924","0.0-1.0-465.0-0.0","0","0","42493","","null","","","null","51","","","","","","","","","","","","","","","",""
"","ITI","","html-keyboard-response","346","398926","0.0-1.0-468.0","0","0","42493","","null","","","null","51","","","","","","","","","","","","","","","NaN",""
"","S1","","html-keyboard-response","347","399078","0.0-1.0-470.0","0","0","42493","","null","","","null","52","","","","","","","","","","","","","","","",""
"","ISI","","html-keyboard-response","348","401081","0.0-1.0-471.0","0","0","42493","","null","","","null","52","NaN","","","","","","","","","","","","","","",""
"","S2","","html-keyboard-response","349","401233","0.0-1.0-472.0","0","0","42493","","null","","","null","52","","NaN","","","","","","","","","","","","","",""
"","response","","html-keyboard-response","350","401477","0.0-1.0-473.0-0.0","0","0","42493","","242","","","68","52","","","2","52","training","adjacent","CB","3","2","R.jpg","N.jpg","0","0","1","",""
"","feedback","","html-keyboard-response","351","402480","0.0-1.0-474.0-0.0","0","0","42493","","null","","","null","52","","","","","","","","","","","","","","","",""
"","ITI","","html-keyboard-response","352","403483","0.0-1.0-477.0","0","0","42493","","null","","","null","52","","","","","","","","","","","","","","","NaN",""
"","S1","","html-keyboard-response","353","403637","0.0-1.0-479.0","0","0","42493","","null","","","null","53","","","","","","","","","","","","","","","",""
"","ISI","","html-keyboard-response","354","405639","0.0-1.0-480.0","0","0","42493","","null","","","null","53","NaN","","","","","","","","","","","","","","",""
"","S2","","html-keyboard-response","355","405792","0.0-1.0-481.0","0","0","42493","","null","","","null","53","","NaN","","","","","","","","","","","","","",""
"","response","","html-keyboard-response","356","406109","0.0-1.0-482.0-0.0","0","0","42493","","316","","","68","53","","","2","53","training","adjacent","CD","3","4","R.jpg","Q.jpg","0","1","0","",""
"","feedback","","html-keyboard-response","357","407111","0.0-1.0-483.0-0.0","0","0","42493","","null","","","null","53","","","","","","","","","","","","","","","",""
"","time_out","","html-keyboard-response","358","409114","0.0-1.0-485.0-0.0","0","0","42493","","null","","","null","53","","","","","","","","","","","","","","","",""
"","ITI","","html-keyboard-response","359","410116","0.0-1.0-486.0","0","0","42493","","null","","","null","53","","","","","","","","","","","","","","","NaN",""
"","S1","","html-keyboard-response","360","410268","0.0-1.0-488.0","0","0","42493","","null","","","null","54","","","","","","","","","","","","","","","",""
"","ISI","","html-keyboard-response","361","412270","0.0-1.0-489.0","0","0","42493","","null","","","null","54","NaN","","","","","","","","","","","","","","",""
"","S2","","html-keyboard-response","362","412422","0.0-1.0-490.0","0","0","42493","","null","","","null","54","","NaN","","","","","","","","","","","","","",""
"","response","","html-keyboard-response","363","413543","0.0-1.0-491.0-0.0","0","0","42493","","1121","","","75","54","","","2","54","training","adjacent","FG","6","7","M.jpg","P.jpg","1","1","1","",""
"","feedback","","html-keyboard-response","364","414545","0.0-1.0-492.0-0.0","0","0","42493","","null","","","null","54","","","","","","","","","","","","","","","",""
"","ITI","","html-keyboard-response","365","415548","0.0-1.0-495.0","0","0","42493","","null","","","null","54","","","","","","","","","","","","","","","NaN",""
"","S1","","html-keyboard-response","366","415702","0.0-1.0-497.0","0","0","42493","","null","","","null","55","","","","","","","","","","","","","","","",""
"","ISI","","html-keyboard-response","367","417705","0.0-1.0-498.0","0","0","42493","","null","","","null","55","NaN","","","","","","","","","","","","","","",""
"","S2","","html-keyboard-response","368","417858","0.0-1.0-499.0","0","0","42493","","null","","","null","55","","NaN","","","","","","","","","","","","","",""
"","response","","html-keyboard-response","369","418744","0.0-1.0-500.0-0.0","0","0","42493","","885","","","68","55","","","2","55","training","adjacent","CD","3","4","R.jpg","Q.jpg","0","1","0","",""
"","feedback","","html-keyboard-response","370","419746","0.0-1.0-501.0-0.0","0","0","42493","","null","","","null","55","","","","","","","","","","","","","","","",""
"","time_out","","html-keyboard-response","371","421748","0.0-1.0-503.0-0.0","0","0","42493","","null","","","null","55","","","","","","","","","","","","","","","",""
"","ITI","","html-keyboard-response","372","422750","0.0-1.0-504.0","0","0","42493","","null","","","null","55","","","","","","","","","","","","","","","NaN",""
"","S1","","html-keyboard-response","373","422902","0.0-1.0-506.0","0","0","42493","","null","","","null","56","","","","","","","","","","","","","","","",""
"","ISI","","html-keyboard-response","374","424904","0.0-1.0-507.0","0","0","42493","","1422","","","75","56","k","","","","","","","","","","","","","","",""
"","S2","","html-keyboard-response","375","425057","0.0-1.0-508.0","0","0","42493","","null","","","null","56","","NaN","","","","","","","","","","","","","",""
"","response","","html-keyboard-response","376","425508","0.0-1.0-509.0-0.0","0","0","42493","","449","","","75","56","","","2","56","training","adjacent","GF","7","6","P.jpg","M.jpg","1","0","0","",""
"","feedback","","html-keyboard-response","377","426510","0.0-1.0-510.0-0.0","0","0","42493","","null","","","null","56","","","","","","","","","","","","","","","",""
"","time_out","","html-keyboard-response","378","428519","0.0-1.0-512.0-0.0","0","0","42493","","null","","","null","56","","","","","","","","","","","","","","","",""
"","ITI","","html-keyboard-response","379","429522","0.0-1.0-513.0","0","0","42493","","null","","","null","56","","","","","","","","","","","","","","","NaN",""
"","S1","","html-keyboard-response","380","429674","0.0-1.0-515.0","0","0","42493","","null","","","null","57","","","","","","","","","","","","","","","",""
"","ISI","","html-keyboard-response","381","431677","0.0-1.0-516.0","0","0","42493","","178","","","68","57","d","","","","","","","","","","","","","","",""
"","S2","","html-keyboard-response","382","431829","0.0-1.0-517.0","0","0","42493","","null","","","null","57","","NaN","","","","","","","","","","","","","",""
"","response","","html-keyboard-response","383","432742","0.0-1.0-518.0-0.0","0","0","42493","","911","","","68","57","","","2","57","training","adjacent","FE","6","5","M.jpg","O.jpg","0","0","1","",""
"","feedback","","html-keyboard-response","384","433745","0.0-1.0-519.0-0.0","0","0","42493","","null","","","null","57","","","","","","","","","","","","","","","",""
"","ITI","","html-keyboard-response","385","434748","0.0-1.0-522.0","0","0","42493","","null","","","null","57","","","","","","","","","","","","","","","NaN",""
"","S1","","html-keyboard-response","386","434900","0.0-1.0-524.0","0","0","42493","","null","","","null","58","","","","","","","","","","","","","","","",""
"","ISI","","html-keyboard-response","387","436902","0.0-1.0-525.0","0","0","42493","","null","","","null","58","NaN","","","","","","","","","","","","","","",""
"","S2","","html-keyboard-response","388","437054","0.0-1.0-526.0","0","0","42493","","null","","","null","58","","NaN","","","","","","","","","","","","","",""
"","response","","html-keyboard-response","389","437451","0.0-1.0-527.0-0.0","0","0","42493","","396","","","68","58","","","2","58","training","adjacent","EF","5","6","O.jpg","M.jpg","0","1","0","",""
"","feedback","","html-keyboard-response","390","438453","0.0-1.0-528.0-0.0","0","0","42493","","null","","","null","58","","","","","","","","","","","","","","","",""
"","time_out","","html-keyboard-response","391","440456","0.0-1.0-530.0-0.0","0","0","42493","","null","","","null","58","","","","","","","","","","","","","","","",""
"","ITI","","html-keyboard-response","392","441458","0.0-1.0-531.0","0","0","42493","","null","","","null","58","","","","","","","","","","","","","","","NaN",""
"","S1","","html-keyboard-response","393","441611","0.0-1.0-533.0","0","0","42493","","null","","","null","59","","","","","","","","","","","","","","","",""
"","ISI","","html-keyboard-response","394","443613","0.0-1.0-534.0","0","0","42493","","null","","","null","59","NaN","","","","","","","","","","","","","","",""
"","S2","","html-keyboard-response","395","443766","0.0-1.0-535.0","0","0","42493","","null","","","null","59","","NaN","","","","","","","","","","","","","",""
"","response","","html-keyboard-response","396","444147","0.0-1.0-536.0-0.0","0","0","42493","","380","","","68","59","","","2","59","training","adjacent","DC","4","3","Q.jpg","R.jpg","0","0","1","",""
"","feedback","","html-keyboard-response","397","445149","0.0-1.0-537.0-0.0","0","0","42493","","null","","","null","59","","","","","","","","","","","","","","","",""
"","ITI","","html-keyboard-response","398","446151","0.0-1.0-540.0","0","0","42493","","null","","","null","59","","","","","","","","","","","","","","","NaN",""
"","S1","","html-keyboard-response","399","446304","0.0-1.0-542.0","0","0","42493","","null","","","null","60","","","","","","","","","","","","","","","",""
"","ISI","","html-keyboard-response","400","448306","0.0-1.0-543.0","0","0","42493","","null","","","null","60","NaN","","","","","","","","","","","","","","",""
"","S2","","html-keyboard-response","401","448459","0.0-1.0-544.0","0","0","42493","","null","","","null","60","","NaN","","","","","","","","","","","","","",""
"","response","","html-keyboard-response","402","448870","0.0-1.0-545.0-0.0","0","0","42493","","410","","","68","60","","","2","60","training","adjacent","EF","5","6","O.jpg","M.jpg","0","1","0","",""
"","feedback","","html-keyboard-response","403","449872","0.0-1.0-546.0-0.0","0","0","42493","","null","","","null","60","","","","","","","","","","","","","","","",""
"","time_out","","html-keyboard-response","404","451875","0.0-1.0-548.0-0.0","0","0","42493","","null","","","null","60","","","","","","","","","","","","","","","",""
"","ITI","","html-keyboard-response","405","452876","0.0-1.0-549.0","0","0","42493","","null","","","null","60","","","","","","","","","","","","","","","NaN",""
"","S1","","html-keyboard-response","406","453029","0.0-1.0-551.0","0","0","42493","","null","","","null","61","","","","","","","","","","","","","","","",""
"","ISI","","html-keyboard-response","407","455032","0.0-1.0-552.0","0","0","42493","","null","","","null","61","NaN","","","","","","","","","","","","","","",""
"","S2","","html-keyboard-response","408","455184","0.0-1.0-553.0","0","0","42493","","null","","","null","61","","NaN","","","","","","","","","","","","","",""
"","response","","html-keyboard-response","409","456149","0.0-1.0-554.0-0.0","0","0","42493","","963","","","75","61","","","2","61","training","adjacent","DC","4","3","Q.jpg","R.jpg","1","0","0","",""
"","feedback","","html-keyboard-response","410","457152","0.0-1.0-555.0-0.0","0","0","42493","","null","","","null","61","","","","","","","","","","","","","","","",""
"","time_out","","html-keyboard-response","411","459154","0.0-1.0-557.0-0.0","0","0","42493","","null","","","null","61","","","","","","","","","","","","","","","",""
"","ITI","","html-keyboard-response","412","460157","0.0-1.0-558.0","0","0","42493","","null","","","null","61","","","","","","","","","","","","","","","NaN",""
"","S1","","html-keyboard-response","413","460309","0.0-1.0-560.0","0","0","42493","","null","","","null","62","","","","","","","","","","","","","","","",""
"","ISI","","html-keyboard-response","414","462313","0.0-1.0-561.0","0","0","42493","","null","","","null","62","NaN","","","","","","","","","","","","","","",""
"","S2","","html-keyboard-response","415","462466","0.0-1.0-562.0","0","0","42493","","null","","","null","62","","NaN","","","","","","","","","","","","","",""
"","response","","html-keyboard-response","416","464319","0.0-1.0-563.0-0.0","0","0","42493","","null","","","null","62","","","2","62","training","adjacent","CB","3","2","R.jpg","N.jpg","NaN","0","0","",""
"","too_slow_prompt","","html-keyboard-response","417","465322","0.0-1.0-565.0-0.0","1","0","42493","","null","","","null","","","","","","","","","","","","","","","","",""
"","time_out","","html-keyboard-response","418","467325","0.0-1.0-566.0-0.0","0","0","42493","","null","","","null","62","","","","","","","","","","","","","","","",""
"","ITI","","html-keyboard-response","419","468327","0.0-1.0-567.0","0","0","42493","","null","","","null","62","","","","","","","","","","","","","","","NaN",""
"","S1","","html-keyboard-response","420","468479","0.0-1.0-569.0","0","0","42493","","null","","","null","63","","","","","","","","","","","","","","","",""
"","ISI","","html-keyboard-response","421","470482","0.0-1.0-570.0","0","0","42493","","null","","","null","63","NaN","","","","","","","","","","","","","","",""
"","S2","","html-keyboard-response","422","470634","0.0-1.0-571.0","0","0","42493","","null","","","null","63","","NaN","","","","","","","","","","","","","",""
"","response","","html-keyboard-response","423","471791","0.0-1.0-572.0-0.0","0","0","42493","","1155","","","68","63","","","2","63","training","adjacent","DE","4","5","Q.jpg","O.jpg","0","1","0","",""
"","feedback","","html-keyboard-response","424","472794","0.0-1.0-573.0-0.0","0","0","42493","","null","","","null","63","","","","","","","","","","","","","","","",""
"","time_out","","html-keyboard-response","425","474796","0.0-1.0-575.0-0.0","0","0","42493","","null","","","null","63","","","","","","","","","","","","","","","",""
"","ITI","","html-keyboard-response","426","475798","0.0-1.0-576.0","0","0","42493","","null","","","null","63","","","","","","","","","","","","","","","NaN",""
"","S1","","html-keyboard-response","427","475951","0.0-1.0-578.0","0","0","42493","","null","","","null","64","","","","","","","","","","","","","","","",""
"","ISI","","html-keyboard-response","428","477953","0.0-1.0-579.0","0","0","42493","","null","","","null","64","NaN","","","","","","","","","","","","","","",""
"","S2","","html-keyboard-response","429","478106","0.0-1.0-580.0","0","0","42493","","null","","","null","64","","NaN","","","","","","","","","","","","","",""
"","response","","html-keyboard-response","430","478286","0.0-1.0-581.0-0.0","0","0","42493","","178","","","75","64","","","2","64","training","adjacent","DC","4","3","Q.jpg","R.jpg","1","0","0","",""
"","feedback","","html-keyboard-response","431","479288","0.0-1.0-582.0-0.0","0","0","42493","","null","","","null","64","","","","","","","","","","","","","","","",""
"","time_out","","html-keyboard-response","432","481292","0.0-1.0-584.0-0.0","0","0","42493","","null","","","null","64","","","","","","","","","","","","","","","",""
"","ITI","","html-keyboard-response","433","482294","0.0-1.0-585.0","0","0","42493","","null","","","null","64","","","","","","","","","","","","","","","NaN",""
"","S1","","html-keyboard-response","434","482448","0.0-1.0-587.0","0","0","42493","","null","","","null","65","","","","","","","","","","","","","","","",""
"","ISI","","html-keyboard-response","435","484450","0.0-1.0-588.0","0","0","42493","","null","","","null","65","NaN","","","","","","","","","","","","","","",""
"","S2","","html-keyboard-response","436","484603","0.0-1.0-589.0","0","0","42493","","null","","","null","65","","NaN","","","","","","","","","","","","","",""
"","response","","html-keyboard-response","437","485749","0.0-1.0-590.0-0.0","0","0","42493","","1145","","","75","65","","","2","65","training","adjacent","AB","1","2","L.jpg","N.jpg","1","1","1","",""
"","feedback","","html-keyboard-response","438","486753","0.0-1.0-591.0-0.0","0","0","42493","","null","","","null","65","","","","","","","","","","","","","","","",""
"","ITI","","html-keyboard-response","439","487755","0.0-1.0-594.0","0","0","42493","","null","","","null","65","","","","","","","","","","","","","","","NaN",""
"","S1","","html-keyboard-response","440","487908","0.0-1.0-596.0","0","0","42493","","null","","","null","66","","","","","","","","","","","","","","","",""
"","ISI","","html-keyboard-response","441","489910","0.0-1.0-597.0","0","0","42493","","null","","","null","66","NaN","","","","","","","","","","","","","","",""
"","S2","","html-keyboard-response","442","490062","0.0-1.0-598.0","0","0","42493","","null","","","null","66","","NaN","","","","","","","","","","","","","",""
"","response","","html-keyboard-response","443","490736","0.0-1.0-599.0-0.0","0","0","42493","","672","","","68","66","","","2","66","training","adjacent","FG","6","7","M.jpg","P.jpg","0","1","0","",""
"","feedback","","html-keyboard-response","444","491738","0.0-1.0-600.0-0.0","0","0","42493","","null","","","null","66","","","","","","","","","","","","","","","",""
"","time_out","","html-keyboard-response","445","493741","0.0-1.0-602.0-0.0","0","0","42493","","null","","","null","66","","","","","","","","","","","","","","","",""
"","ITI","","html-keyboard-response","446","494743","0.0-1.0-603.0","0","0","42493","","null","","","null","66","","","","","","","","","","","","","","","NaN",""
"","S1","","html-keyboard-response","447","494895","0.0-1.0-605.0","0","0","42493","","null","","","null","67","","","","","","","","","","","","","","","",""
"","ISI","","html-keyboard-response","448","496897","0.0-1.0-606.0","0","0","42493","","null","","","null","67","NaN","","","","","","","","","","","","","","",""
"","S2","","html-keyboard-response","449","497050","0.0-1.0-607.0","0","0","42493","","null","","","null","67","","NaN","","","","","","","","","","","","","",""
"","response","","html-keyboard-response","450","498694","0.0-1.0-608.0-0.0","0","0","42493","","1642","","","68","67","","","2","67","training","adjacent","FG","6","7","M.jpg","P.jpg","0","1","0","",""
"","feedback","","html-keyboard-response","451","499697","0.0-1.0-609.0-0.0","0","0","42493","","null","","","null","67","","","","","","","","","","","","","","","",""
"","time_out","","html-keyboard-response","452","501705","0.0-1.0-611.0-0.0","0","0","42493","","null","","","null","67","","","","","","","","","","","","","","","",""
"","ITI","","html-keyboard-response","453","502707","0.0-1.0-612.0","0","0","42493","","null","","","null","67","","","","","","","","","","","","","","","NaN",""
"","S1","","html-keyboard-response","454","502859","0.0-1.0-614.0","0","0","42493","","null","","","null","68","","","","","","","","","","","","","","","",""
"","ISI","","html-keyboard-response","455","504862","0.0-1.0-615.0","0","0","42493","","null","","","null","68","NaN","","","","","","","","","","","","","","",""
"","S2","","html-keyboard-response","456","505015","0.0-1.0-616.0","0","0","42493","","null","","","null","68","","NaN","","","","","","","","","","","","","",""
"","response","","html-keyboard-response","457","505492","0.0-1.0-617.0-0.0","0","0","42493","","476","","","68","68","","","2","68","training","adjacent","ED","5","4","O.jpg","Q.jpg","0","0","1","",""
"","feedback","","html-keyboard-response","458","506495","0.0-1.0-618.0-0.0","0","0","42493","","null","","","null","68","","","","","","","","","","","","","","","",""
"","ITI","","html-keyboard-response","459","507498","0.0-1.0-621.0","0","0","42493","","null","","","null","68","","","","","","","","","","","","","","","NaN",""
"","S1","","html-keyboard-response","460","507661","0.0-1.0-623.0","0","0","42493","","null","","","null","69","","","","","","","","","","","","","","","",""
"","ISI","","html-keyboard-response","461","509663","0.0-1.0-624.0","0","0","42493","","647","","","75","69","k","","","","","","","","","","","","","","",""
"","S2","","html-keyboard-response","462","509815","0.0-1.0-625.0","0","0","42493","","null","","","null","69","","NaN","","","","","","","","","","","","","",""
"","response","","html-keyboard-response","463","510036","0.0-1.0-626.0-0.0","0","0","42493","","219","","","75","69","","","2","69","training","adjacent","DE","4","5","Q.jpg","O.jpg","1","1","1","",""
"","feedback","","html-keyboard-response","464","511038","0.0-1.0-627.0-0.0","0","0","42493","","null","","","null","69","","","","","","","","","","","","","","","",""
"","ITI","","html-keyboard-response","465","512041","0.0-1.0-630.0","0","0","42493","","null","","","null","69","","","","","","","","","","","","","","","NaN",""
"","S1","","html-keyboard-response","466","512192","0.0-1.0-632.0","0","0","42493","","null","","","null","70","","","","","","","","","","","","","","","",""
"","ISI","","html-keyboard-response","467","514196","0.0-1.0-633.0","0","0","42493","","null","","","null","70","NaN","","","","","","","","","","","","","","",""
"","S2","","html-keyboard-response","468","514348","0.0-1.0-634.0","0","0","42493","","null","","","null","70","","NaN","","","","","","","","","","","","","",""
"","response","","html-keyboard-response","469","515591","0.0-1.0-635.0-0.0","0","0","42493","","1241","","","75","70","","","2","70","training","adjacent","FG","6","7","M.jpg","P.jpg","1","1","1","",""
"","feedback","","html-keyboard-response","470","516594","0.0-1.0-636.0-0.0","0","0","42493","","null","","","null","70","","","","","","","","","","","","","","","",""
"","ITI","","html-keyboard-response","471","517597","0.0-1.0-639.0","0","0","42493","","null","","","null","70","","","","","","","","","","","","","","","NaN",""
"","S1","","html-keyboard-response","472","517764","0.0-1.0-641.0","0","0","42493","","null","","","null","71","","","","","","","","","","","","","","","",""
"","ISI","","html-keyboard-response","473","519766","0.0-1.0-642.0","0","0","42493","","598","","","75","71","k","","","","","","","","","","","","","","",""
"","S2","","html-keyboard-response","474","519919","0.0-1.0-643.0","0","0","42493","","null","","","null","71","","NaN","","","","","","","","","","","","","",""
"","response","","html-keyboard-response","475","521205","0.0-1.0-644.0-0.0","0","0","42493","","1285","","","68","71","","","2","71","training","adjacent","DC","4","3","Q.jpg","R.jpg","0","0","1","",""
"","feedback","","html-keyboard-response","476","522208","0.0-1.0-645.0-0.0","0","0","42493","","null","","","null","71","","","","","","","","","","","","","","","",""
"","ITI","","html-keyboard-response","477","523210","0.0-1.0-648.0","0","0","42493","","null","","","null","71","","","","","","","","","","","","","","","NaN",""
"","S1","","html-keyboard-response","478","523364","0.0-1.0-650.0","0","0","42493","","null","","","null","72","","","","","","","","","","","","","","","",""
"","ISI","","html-keyboard-response","479","525368","0.0-1.0-651.0","0","0","42493","","339","","","75","72","k","","","","","","","","","","","","","","",""
"","S2","","html-keyboard-response","480","525521","0.0-1.0-652.0","0","0","42493","","null","","","null","72","","NaN","","","","","","","","","","","","","",""
"","response","","html-keyboard-response","481","526683","0.0-1.0-653.0-0.0","0","0","42493","","1160","","","68","72","","","2","72","training","adjacent","BC","2","3","N.jpg","R.jpg","0","1","0","",""
"","feedback","","html-keyboard-response","482","527684","0.0-1.0-654.0-0.0","0","0","42493","","null","","","null","72","","","","","","","","","","","","","","","",""
"","time_out","","html-keyboard-response","483","529687","0.0-1.0-656.0-0.0","0","0","42493","","null","","","null","72","","","","","","","","","","","","","","","",""
"","ITI","","html-keyboard-response","484","530689","0.0-1.0-657.0","0","0","42493","","null","","","null","72","","","","","","","","","","","","","","","NaN",""
"","S1","","html-keyboard-response","485","530843","0.0-1.0-659.0","0","0","42493","","null","","","null","73","","","","","","","","","","","","","","","",""
"","ISI","","html-keyboard-response","486","532845","0.0-1.0-660.0","0","0","42493","","null","","","null","73","NaN","","","","","","","","","","","","","","",""
"","S2","","html-keyboard-response","487","532998","0.0-1.0-661.0","0","0","42493","","null","","","null","73","","NaN","","","","","","","","","","","","","",""
"","response","","html-keyboard-response","488","533686","0.0-1.0-662.0-0.0","0","0","42493","","686","","","75","73","","","2","73","training","adjacent","BC","2","3","N.jpg","R.jpg","1","1","1","",""
"","feedback","","html-keyboard-response","489","534688","0.0-1.0-663.0-0.0","0","0","42493","","null","","","null","73","","","","","","","","","","","","","","","",""
"","ITI","","html-keyboard-response","490","535690","0.0-1.0-666.0","0","0","42493","","null","","","null","73","","","","","","","","","","","","","","","NaN",""
"","S1","","html-keyboard-response","491","535842","0.0-1.0-668.0","0","0","42493","","null","","","null","74","","","","","","","","","","","","","","","",""
"","ISI","","html-keyboard-response","492","537845","0.0-1.0-669.0","0","0","42493","","null","","","null","74","NaN","","","","","","","","","","","","","","",""
"","S2","","html-keyboard-response","493","537998","0.0-1.0-670.0","0","0","42493","","null","","","null","74","","NaN","","","","","","","","","","","","","",""
"","response","","html-keyboard-response","494","538399","0.0-1.0-671.0-0.0","0","0","42493","","400","","","75","74","","","2","74","training","adjacent","AB","1","2","L.jpg","N.jpg","1","1","1","",""
"","feedback","","html-keyboard-response","495","539402","0.0-1.0-672.0-0.0","0","0","42493","","null","","","null","74","","","","","","","","","","","","","","","",""
"","ITI","","html-keyboard-response","496","540404","0.0-1.0-675.0","0","0","42493","","null","","","null","74","","","","","","","","","","","","","","","NaN",""
"","S1","","html-keyboard-response","497","540557","0.0-1.0-677.0","0","0","42493","","null","","","null","75","","","","","","","","","","","","","","","",""
"","ISI","","html-keyboard-response","498","542559","0.0-1.0-678.0","0","0","42493","","null","","","null","75","NaN","","","","","","","","","","","","","","",""
"","S2","","html-keyboard-response","499","542713","0.0-1.0-679.0","0","0","42493","","null","","","null","75","","NaN","","","","","","","","","","","","","",""
"","response","","html-keyboard-response","500","543337","0.0-1.0-680.0-0.0","0","0","42493","","623","","","75","75","","","2","75","training","adjacent","BA","2","1","N.jpg","L.jpg","1","0","0","",""
"","feedback","","html-keyboard-response","501","544340","0.0-1.0-681.0-0.0","0","0","42493","","null","","","null","75","","","","","","","","","","","","","","","",""
"","time_out","","html-keyboard-response","502","546342","0.0-1.0-683.0-0.0","0","0","42493","","null","","","null","75","","","","","","","","","","","","","","","",""
"","ITI","","html-keyboard-response","503","547344","0.0-1.0-684.0","0","0","42493","","null","","","null","75","","","","","","","","","","","","","","","NaN",""
"","S1","","html-keyboard-response","504","547497","0.0-1.0-686.0","0","0","42493","","null","","","null","76","","","","","","","","","","","","","","","",""
"","ISI","","html-keyboard-response","505","549503","0.0-1.0-687.0","0","0","42493","","null","","","null","76","NaN","","","","","","","","","","","","","","",""
"","S2","","html-keyboard-response","506","549657","0.0-1.0-688.0","0","0","42493","","null","","","null","76","","NaN","","","","","","","","","","","","","",""
"","response","","html-keyboard-response","507","549929","0.0-1.0-689.0-0.0","0","0","42493","","270","","","68","76","","","2","76","training","adjacent","BC","2","3","N.jpg","R.jpg","0","1","0","",""
"","feedback","","html-keyboard-response","508","550932","0.0-1.0-690.0-0.0","0","0","42493","","null","","","null","76","","","","","","","","","","","","","","","",""
"","time_out","","html-keyboard-response","509","552934","0.0-1.0-692.0-0.0","0","0","42493","","null","","","null","76","","","","","","","","","","","","","","","",""
"","ITI","","html-keyboard-response","510","553937","0.0-1.0-693.0","0","0","42493","","null","","","null","76","","","","","","","","","","","","","","","NaN",""
"","S1","","html-keyboard-response","511","554090","0.0-1.0-695.0","0","0","42493","","null","","","null","77","","","","","","","","","","","","","","","",""
"","ISI","","html-keyboard-response","512","556092","0.0-1.0-696.0","0","0","42493","","1101","","","68","77","d","","","","","","","","","","","","","","",""
"","S2","","html-keyboard-response","513","556245","0.0-1.0-697.0","0","0","42493","","null","","","null","77","","NaN","","","","","","","","","","","","","",""
"","response","","html-keyboard-response","514","556519","0.0-1.0-698.0-0.0","0","0","42493","","273","","","68","77","","","2","77","training","adjacent","EF","5","6","O.jpg","M.jpg","0","1","0","",""
"","feedback","","html-keyboard-response","515","557522","0.0-1.0-699.0-0.0","0","0","42493","","null","","","null","77","","","","","","","","","","","","","","","",""
"","time_out","","html-keyboard-response","516","559525","0.0-1.0-701.0-0.0","0","0","42493","","null","","","null","77","","","","","","","","","","","","","","","",""
"","ITI","","html-keyboard-response","517","560528","0.0-1.0-702.0","0","0","42493","","null","","","null","77","","","","","","","","","","","","","","","NaN",""
"","S1","","html-keyboard-response","518","560680","0.0-1.0-704.0","0","0","42493","","null","","","null","78","","","","","","","","","","","","","","","",""
"","ISI","","html-keyboard-response","519","562682","0.0-1.0-705.0","0","0","42493","","null","","","null","78","NaN","","","","","","","","","","","","","","",""
"","S2","","html-keyboard-response","520","562834","0.0-1.0-706.0","0","0","42493","","null","","","null","78","","NaN","","","","","","","","","","","","","",""
"","response","","html-keyboard-response","521","563455","0.0-1.0-707.0-0.0","0","0","42493","","619","","","68","78","","","2","78","training","adjacent","BA","2","1","N.jpg","L.jpg","0","0","1","",""
"","feedback","","html-keyboard-response","522","564458","0.0-1.0-708.0-0.0","0","0","42493","","null","","","null","78","","","","","","","","","","","","","","","",""
"","ITI","","html-keyboard-response","523","565467","0.0-1.0-711.0","0","0","42493","","null","","","null","78","","","","","","","","","","","","","","","NaN",""
"","S1","","html-keyboard-response","524","565620","0.0-1.0-713.0","0","0","42493","","null","","","null","79","","","","","","","","","","","","","","","",""
"","ISI","","html-keyboard-response","525","567622","0.0-1.0-714.0","0","0","42493","","null","","","null","79","NaN","","","","","","","","","","","","","","",""
"","S2","","html-keyboard-response","526","567775","0.0-1.0-715.0","0","0","42493","","null","","","null","79","","NaN","","","","","","","","","","","","","",""
"","response","","html-keyboard-response","527","569626","0.0-1.0-716.0-0.0","0","0","42493","","null","","","null","79","","","2","79","training","adjacent","AB","1","2","L.jpg","N.jpg","NaN","1","0","",""
"","too_slow_prompt","","html-keyboard-response","528","570630","0.0-1.0-718.0-0.0","1","0","42493","","null","","","null","","","","","","","","","","","","","","","","",""
"","time_out","","html-keyboard-response","529","572632","0.0-1.0-719.0-0.0","0","0","42493","","null","","","null","79","","","","","","","","","","","","","","","",""
"","ITI","","html-keyboard-response","530","573633","0.0-1.0-720.0","0","0","42493","","null","","","null","79","","","","","","","","","","","","","","","NaN",""
"","S1","","html-keyboard-response","531","573785","0.0-1.0-722.0","0","0","42493","","null","","","null","80","","","","","","","","","","","","","","","",""
"","ISI","","html-keyboard-response","532","575788","0.0-1.0-723.0","0","0","42493","","null","","","null","80","NaN","","","","","","","","","","","","","","",""
"","S2","","html-keyboard-response","533","575941","0.0-1.0-724.0","0","0","42493","","null","","","null","80","","NaN","","","","","","","","","","","","","",""
"","response","","html-keyboard-response","534","576288","0.0-1.0-725.0-0.0","0","0","42493","","346","","","75","80","","","2","80","training","adjacent","CB","3","2","R.jpg","N.jpg","1","0","0","",""
"","feedback","","html-keyboard-response","535","577290","0.0-1.0-726.0-0.0","0","0","42493","","null","","","null","80","","","","","","","","","","","","","","","",""
"","time_out","","html-keyboard-response","536","579294","0.0-1.0-728.0-0.0","0","0","42493","","null","","","null","80","","","","","","","","","","","","","","","",""
"","ITI","","html-keyboard-response","537","580296","0.0-1.0-729.0","0","0","42493","","null","","","null","80","","","","","","","","","","","","","","","NaN",""
"","S1","","html-keyboard-response","538","580450","0.0-1.0-731.0","0","0","42493","","null","","","null","81","","","","","","","","","","","","","","","",""
"","ISI","","html-keyboard-response","539","582452","0.0-1.0-732.0","0","0","42493","","null","","","null","81","NaN","","","","","","","","","","","","","","",""
"","S2","","html-keyboard-response","540","582604","0.0-1.0-733.0","0","0","42493","","null","","","null","81","","NaN","","","","","","","","","","","","","",""
"","response","","html-keyboard-response","541","583384","0.0-1.0-734.0-0.0","0","0","42493","","778","","","75","81","","","2","81","training","adjacent","CD","3","4","R.jpg","Q.jpg","1","1","1","",""
"","feedback","","html-keyboard-response","542","584387","0.0-1.0-735.0-0.0","0","0","42493","","null","","","null","81","","","","","","","","","","","","","","","",""
"","ITI","","html-keyboard-response","543","585390","0.0-1.0-738.0","0","0","42493","","null","","","null","81","","","","","","","","","","","","","","","NaN",""
"","S1","","html-keyboard-response","544","585542","0.0-1.0-740.0","0","0","42493","","null","","","null","82","","","","","","","","","","","","","","","",""
"","ISI","","html-keyboard-response","545","587545","0.0-1.0-741.0","0","0","42493","","null","","","null","82","NaN","","","","","","","","","","","","","","",""
"","S2","","html-keyboard-response","546","587697","0.0-1.0-742.0","0","0","42493","","null","","","null","82","","NaN","","","","","","","","","","","","","",""
"","response","","html-keyboard-response","547","589136","0.0-1.0-743.0-0.0","0","0","42493","","1437","","","68","82","","","2","82","training","adjacent","GF","7","6","P.jpg","M.jpg","0","0","1","",""
"","feedback","","html-keyboard-response","548","590138","0.0-1.0-744.0-0.0","0","0","42493","","null","","","null","82","","","","","","","","","","","","","","","",""
"","ITI","","html-keyboard-response","549","591141","0.0-1.0-747.0","0","0","42493","","null","","","null","82","","","","","","","","","","","","","","","NaN",""
"","S1","","html-keyboard-response","550","591293","0.0-1.0-749.0","0","0","42493","","null","","","null","83","","","","","","","","","","","","","","","",""
"","ISI","","html-keyboard-response","551","593296","0.0-1.0-750.0","0","0","42493","","null","","","null","83","NaN","","","","","","","","","","","","","","",""
"","S2","","html-keyboard-response","552","593449","0.0-1.0-751.0","0","0","42493","","null","","","null","83","","NaN","","","","","","","","","","","","","",""
"","response","","html-keyboard-response","553","595240","0.0-1.0-752.0-0.0","0","0","42493","","1790","","","75","83","","","2","83","training","adjacent","ED","5","4","O.jpg","Q.jpg","1","0","0","",""
"","feedback","","html-keyboard-response","554","596244","0.0-1.0-753.0-0.0","0","0","42493","","null","","","null","83","","","","","","","","","","","","","","","",""
"","time_out","","html-keyboard-response","555","598246","0.0-1.0-755.0-0.0","0","0","42493","","null","","","null","83","","","","","","","","","","","","","","","",""
"","ITI","","html-keyboard-response","556","599248","0.0-1.0-756.0","0","0","42493","","null","","","null","83","","","","","","","","","","","","","","","NaN",""
"","S1","","html-keyboard-response","557","599401","0.0-1.0-758.0","0","0","42493","","null","","","null","84","","","","","","","","","","","","","","","",""
"","ISI","","html-keyboard-response","558","601403","0.0-1.0-759.0","0","0","42493","","null","","","null","84","NaN","","","","","","","","","","","","","","",""
"","S2","","html-keyboard-response","559","601556","0.0-1.0-760.0","0","0","42493","","null","","","null","84","","NaN","","","","","","","","","","","","","",""
"","response","","html-keyboard-response","560","602727","0.0-1.0-761.0-0.0","0","0","42493","","1169","","","68","84","","","2","84","training","adjacent","FE","6","5","M.jpg","O.jpg","0","0","1","",""
"","feedback","","html-keyboard-response","561","603730","0.0-1.0-762.0-0.0","0","0","42493","","null","","","null","84","","","","","","","","","","","","","","","",""
"","ITI","","html-keyboard-response","562","604732","0.0-1.0-765.0","0","0","42493","","null","","","null","84","","","","","","","","","","","","","","","NaN",""
"","S1","","html-keyboard-response","563","604886","0.0-1.0-767.0","0","0","42493","","null","","","null","85","","","","","","","","","","","","","","","",""
"","ISI","","html-keyboard-response","564","606887","0.0-1.0-768.0","0","0","42493","","null","","","null","85","NaN","","","","","","","","","","","","","","",""
"","S2","","html-keyboard-response","565","607040","0.0-1.0-769.0","0","0","42493","","null","","","null","85","","NaN","","","","","","","","","","","","","",""
"","response","","html-keyboard-response","566","608490","0.0-1.0-770.0-0.0","0","0","42493","","1448","","","75","85","","","2","85","training","adjacent","CD","3","4","R.jpg","Q.jpg","1","1","1","",""
"","feedback","","html-keyboard-response","567","609493","0.0-1.0-771.0-0.0","0","0","42493","","null","","","null","85","","","","","","","","","","","","","","","",""
"","ITI","","html-keyboard-response","568","610496","0.0-1.0-774.0","0","0","42493","","null","","","null","85","","","","","","","","","","","","","","","NaN",""
"","S1","","html-keyboard-response","569","610648","0.0-1.0-776.0","0","0","42493","","null","","","null","86","","","","","","","","","","","","","","","",""
"","ISI","","html-keyboard-response","570","612650","0.0-1.0-777.0","0","0","42493","","null","","","null","86","NaN","","","","","","","","","","","","","","",""
"","S2","","html-keyboard-response","571","612805","0.0-1.0-778.0","0","0","42493","","null","","","null","86","","NaN","","","","","","","","","","","","","",""
"","response","","html-keyboard-response","572","613393","0.0-1.0-779.0-0.0","0","0","42493","","586","","","75","86","","","2","86","training","adjacent","GF","7","6","P.jpg","M.jpg","1","0","0","",""
"","feedback","","html-keyboard-response","573","614395","0.0-1.0-780.0-0.0","0","0","42493","","null","","","null","86","","","","","","","","","","","","","","","",""
"","time_out","","html-keyboard-response","574","616398","0.0-1.0-782.0-0.0","0","0","42493","","null","","","null","86","","","","","","","","","","","","","","","",""
"","ITI","","html-keyboard-response","575","617402","0.0-1.0-783.0","0","0","42493","","null","","","null","86","","","","","","","","","","","","","","","NaN",""
"","S1","","html-keyboard-response","576","617554","0.0-1.0-785.0","0","0","42493","","null","","","null","87","","","","","","","","","","","","","","","",""
"","ISI","","html-keyboard-response","577","619556","0.0-1.0-786.0","0","0","42493","","null","","","null","87","NaN","","","","","","","","","","","","","","",""
"","S2","","html-keyboard-response","578","619711","0.0-1.0-787.0","0","0","42493","","null","","","null","87","","NaN","","","","","","","","","","","","","",""
"","response","","html-keyboard-response","579","620953","0.0-1.0-788.0-0.0","0","0","42493","","1240","","","75","87","","","2","87","training","adjacent","AB","1","2","L.jpg","N.jpg","1","1","1","",""
"","feedback","","html-keyboard-response","580","621956","0.0-1.0-789.0-0.0","0","0","42493","","null","","","null","87","","","","","","","","","","","","","","","",""
"","ITI","","html-keyboard-response","581","622958","0.0-1.0-792.0","0","0","42493","","null","","","null","87","","","","","","","","","","","","","","","NaN",""
"","S1","","html-keyboard-response","582","623110","0.0-1.0-794.0","0","0","42493","","null","","","null","88","","","","","","","","","","","","","","","",""
