"success","ttype","start_time","trial_type","trial_index","time_elapsed","internal_node_id","warning","missed_checkup","PID","view_history","rt","responses","repeat_instructions","key_press","index","keypress_isi","keypress_S2","block","trial_num","phase","group_type","pair_type","S1_stim","S2_stim","S1_img","S2_img","S1_chosen","S1_higher","accuracy","keypress_iti","total_bonus_tally"
"true","full_screen","d04062023hr1915","fullscreen","0","9263","0.0-0.0","0","0","68979","","","","","","","","","","","","","","","","","","","","","",""
"","instructions","","instructions","1","36997","0.0-1.0-0.0-0.0","0","0","68979","[{""page_index"":0,""viewing_time"":6119},{""page_index"":1,""viewing_time"":13976},{""page_index"":2,""viewing_time"":6119},{""page_index"":3,""viewing_time"":1511}]","27726","","","","","","","","","","","","","","","","","","","",""
"","comprehension_check","","survey-multi-choice","2","56655","0.0-1.0-0.0-1.0","0","0","68979","","19634","{""Q0"":""True"",""Q1"":""K"",""Q2"":""Once the second image appears and while the screen 'MAKE A CHOICE' is shown"",""Q3"":""Green mark"",""Q4"":""either D or K""}","0","","","","","","","","","","","","","","","","","",""
"","start_exp","","html-keyboard-response","3","57989","0.0-1.0-1.0","0","0","68979","","1322","","","32","","","","","","","","","","","","","","","","",""
"","S1","","html-keyboard-response","4","58178","0.0-1.0-2.0","0","0","68979","","null","","","null","0","","","","","","","","","","","","","","","",""
"","ISI","","html-keyboard-response","5","60187","0.0-1.0-3.0","0","0","68979","","null","","","null","0","NaN","","","","","","","","","","","","","","",""
"","S2","","html-keyboard-response","6","60345","0.0-1.0-4.0","0","0","68979","","null","","","null","0","","NaN","","","","","","","","","","","","","",""
"","response","","html-keyboard-response","7","62208","0.0-1.0-5.0-0.0","0","0","68979","","null","","","null","0","","","1","0","training","adjacent","BC","2","3","N.jpg","R.jpg","NaN","1","0","",""
"","too_slow_prompt","","html-keyboard-response","8","63221","0.0-1.0-7.0-0.0","1","0","68979","","null","","","null","","","","","","","","","","","","","","","","",""
"","time_out","","html-keyboard-response","9","65229","0.0-1.0-8.0-0.0","0","0","68979","","null","","","null","0","","","","","","","","","","","","","","","",""
"","ITI","","html-keyboard-response","10","66237","0.0-1.0-9.0","0","0","68979","","null","","","null","0","","","","","","","","","","","","","","","NaN",""
"","S1","","html-keyboard-response","11","66425","0.0-1.0-11.0","0","0","68979","","null","","","null","1","","","","","","","","","","","","","","","",""
"","ISI","","html-keyboard-response","12","68432","0.0-1.0-12.0","0","0","68979","","null","","","null","1","NaN","","","","","","","","","","","","","","",""
"","S2","","html-keyboard-response","13","68609","0.0-1.0-13.0","0","0","68979","","null","","","null","1","","NaN","","","","","","","","","","","","","",""
"","response","","html-keyboard-response","14","69003","0.0-1.0-14.0-0.0","0","0","68979","","387","","","68","1","","","1","1","training","adjacent","ED","5","4","Q.jpg","L.jpg","0","0","1","",""
"","feedback","","html-keyboard-response","15","70012","0.0-1.0-15.0-0.0","0","0","68979","","null","","","null","1","","","","","","","","","","","","","","","",""
"","ITI","","html-keyboard-response","16","71019","0.0-1.0-18.0","0","0","68979","","null","","","null","1","","","","","","","","","","","","","","","NaN",""
"","S1","","html-keyboard-response","17","71177","0.0-1.0-20.0","0","0","68979","","null","","","null","2","","","","","","","","","","","","","","","",""
"","ISI","","html-keyboard-response","18","73185","0.0-1.0-21.0","0","0","68979","","null","","","null","2","NaN","","","","","","","","","","","","","","",""
"","S2","","html-keyboard-response","19","73346","0.0-1.0-22.0","0","0","68979","","null","","","null","2","","NaN","","","","","","","","","","","","","",""
"","response","","html-keyboard-response","20","74337","0.0-1.0-23.0-0.0","0","0","68979","","982","","","75","2","","","1","2","training","adjacent","AB","1","2","M.jpg","N.jpg","1","1","1","",""
"","feedback","","html-keyboard-response","21","75367","0.0-1.0-24.0-0.0","0","0","68979","","null","","","null","2","","","","","","","","","","","","","","","",""
"","ITI","","html-keyboard-response","22","76380","0.0-1.0-27.0","0","0","68979","","null","","","null","2","","","","","","","","","","","","","","","NaN",""
"","S1","","html-keyboard-response","23","76551","0.0-1.0-29.0","0","0","68979","","null","","","null","3","","","","","","","","","","","","","","","",""
"","ISI","","html-keyboard-response","24","78564","0.0-1.0-30.0","0","0","68979","","null","","","null","3","NaN","","","","","","","","","","","","","","",""
"","S2","","html-keyboard-response","25","78727","0.0-1.0-31.0","0","0","68979","","null","","","null","3","","NaN","","","","","","","","","","","","","",""
"","response","","html-keyboard-response","26","79252","0.0-1.0-32.0-0.0","0","0","68979","","513","","","68","3","","","1","3","training","adjacent","FE","6","5","O.jpg","Q.jpg","0","0","1","",""
"","feedback","","html-keyboard-response","27","80268","0.0-1.0-33.0-0.0","0","0","68979","","null","","","null","3","","","","","","","","","","","","","","","",""
"","ITI","","html-keyboard-response","28","81283","0.0-1.0-36.0","0","0","68979","","null","","","null","3","","","","","","","","","","","","","","","NaN",""
"","S1","","html-keyboard-response","29","81449","0.0-1.0-38.0","0","0","68979","","null","","","null","4","","","","","","","","","","","","","","","",""
"","ISI","","html-keyboard-response","30","83508","0.0-1.0-39.0","0","0","68979","","null","","","null","4","NaN","","","","","","","","","","","","","","",""
"","S2","","html-keyboard-response","31","83668","0.0-1.0-40.0","0","0","68979","","null","","","null","4","","NaN","","","","","","","","","","","","","",""
"","response","","html-keyboard-response","32","84950","0.0-1.0-41.0-0.0","0","0","68979","","1269","","","75","4","","","1","4","training","adjacent","FE","6","5","O.jpg","Q.jpg","1","0","0","",""
"","feedback","","html-keyboard-response","33","85964","0.0-1.0-42.0-0.0","0","0","68979","","null","","","null","4","","","","","","","","","","","","","","","",""
"","time_out","","html-keyboard-response","34","87980","0.0-1.0-44.0-0.0","0","0","68979","","null","","","null","4","","","","","","","","","","","","","","","",""
"","ITI","","html-keyboard-response","35","88991","0.0-1.0-45.0","0","0","68979","","null","","","null","4","","","","","","","","","","","","","","","NaN",""
"","S1","","html-keyboard-response","36","89170","0.0-1.0-47.0","0","0","68979","","null","","","null","5","","","","","","","","","","","","","","","",""
"","ISI","","html-keyboard-response","37","91179","0.0-1.0-48.0","0","0","68979","","null","","","null","5","NaN","","","","","","","","","","","","","","",""
"","S2","","html-keyboard-response","38","91339","0.0-1.0-49.0","0","0","68979","","null","","","null","5","","NaN","","","","","","","","","","","","","",""
"","response","","html-keyboard-response","39","92024","0.0-1.0-50.0-0.0","0","0","68979","","678","","","75","5","","","1","5","training","adjacent","BA","2","1","N.jpg","M.jpg","1","0","0","",""
"","feedback","","html-keyboard-response","40","93034","0.0-1.0-51.0-0.0","0","0","68979","","null","","","null","5","","","","","","","","","","","","","","","",""
"","time_out","","html-keyboard-response","41","95082","0.0-1.0-53.0-0.0","0","0","68979","","null","","","null","5","","","","","","","","","","","","","","","",""
"","ITI","","html-keyboard-response","42","96105","0.0-1.0-54.0","0","0","68979","","null","","","null","5","","","","","","","","","","","","","","","NaN",""
"","S1","","html-keyboard-response","43","96354","0.0-1.0-56.0","0","0","68979","","null","","","null","6","","","","","","","","","","","","","","","",""
"","ISI","","html-keyboard-response","44","98373","0.0-1.0-57.0","0","0","68979","","null","","","null","6","NaN","","","","","","","","","","","","","","",""
"","S2","","html-keyboard-response","45","98577","0.0-1.0-58.0","0","0","68979","","null","","","null","6","","NaN","","","","","","","","","","","","","",""
"","response","","html-keyboard-response","46","99862","0.0-1.0-59.0-0.0","0","0","68979","","1279","","","75","6","","","1","6","training","adjacent","DC","4","3","L.jpg","R.jpg","1","0","0","",""
"","feedback","","html-keyboard-response","47","100933","0.0-1.0-60.0-0.0","0","0","68979","","null","","","null","6","","","","","","","","","","","","","","","",""
"","time_out","","html-keyboard-response","48","102945","0.0-1.0-62.0-0.0","0","0","68979","","null","","","null","6","","","","","","","","","","","","","","","",""
"","ITI","","html-keyboard-response","49","103959","0.0-1.0-63.0","0","0","68979","","null","","","null","6","","","","","","","","","","","","","","","NaN",""
"","S1","","html-keyboard-response","50","104125","0.0-1.0-65.0","0","0","68979","","null","","","null","7","","","","","","","","","","","","","","","",""
"","ISI","","html-keyboard-response","51","106138","0.0-1.0-66.0","0","0","68979","","null","","","null","7","NaN","","","","","","","","","","","","","","",""
"","S2","","html-keyboard-response","52","106305","0.0-1.0-67.0","0","0","68979","","null","","","null","7","","NaN","","","","","","","","","","","","","",""
"","response","","html-keyboard-response","53","106626","0.0-1.0-68.0-0.0","0","0","68979","","311","","","75","7","","","1","7","training","adjacent","AB","1","2","M.jpg","N.jpg","1","1","1","",""
"","feedback","","html-keyboard-response","54","107642","0.0-1.0-69.0-0.0","0","0","68979","","null","","","null","7","","","","","","","","","","","","","","","",""
"","ITI","","html-keyboard-response","55","108696","0.0-1.0-72.0","0","0","68979","","null","","","null","7","","","","","","","","","","","","","","","NaN",""
"","S1","","html-keyboard-response","56","108861","0.0-1.0-74.0","0","0","68979","","null","","","null","8","","","","","","","","","","","","","","","",""
"","ISI","","html-keyboard-response","57","110867","0.0-1.0-75.0","0","0","68979","","null","","","null","8","NaN","","","","","","","","","","","","","","",""
"","S2","","html-keyboard-response","58","111026","0.0-1.0-76.0","0","0","68979","","null","","","null","8","","NaN","","","","","","","","","","","","","",""
"","response","","html-keyboard-response","59","111498","0.0-1.0-77.0-0.0","0","0","68979","","464","","","68","8","","","1","8","training","adjacent","CB","3","2","R.jpg","N.jpg","0","0","1","",""
"","feedback","","html-keyboard-response","60","112506","0.0-1.0-78.0-0.0","0","0","68979","","null","","","null","8","","","","","","","","","","","","","","","",""
"","ITI","","html-keyboard-response","61","113516","0.0-1.0-81.0","0","0","68979","","null","","","null","8","","","","","","","","","","","","","","","NaN",""
"","S1","","html-keyboard-response","62","113682","0.0-1.0-83.0","0","0","68979","","null","","","null","9","","","","","","","","","","","","","","","",""
"","ISI","","html-keyboard-response","63","115695","0.0-1.0-84.0","0","0","68979","","null","","","null","9","NaN","","","","","","","","","","","","","","",""
"","S2","","html-keyboard-response","64","115859","0.0-1.0-85.0","0","0","68979","","null","","","null","9","","NaN","","","","","","","","","","","","","",""
"","response","","html-keyboard-response","65","117731","0.0-1.0-86.0-0.0","0","0","68979","","null","","","null","9","","","1","9","training","adjacent","CB","3","2","R.jpg","N.jpg","NaN","0","0","",""
"","too_slow_prompt","","html-keyboard-response","66","118747","0.0-1.0-88.0-0.0","1","0","68979","","null","","","null","","","","","","","","","","","","","","","","",""
"","time_out","","html-keyboard-response","67","120761","0.0-1.0-89.0-0.0","0","0","68979","","null","","","null","9","","","","","","","","","","","","","","","",""
"","ITI","","html-keyboard-response","68","121780","0.0-1.0-90.0","0","0","68979","","null","","","null","9","","","","","","","","","","","","","","","NaN",""
"","S1","","html-keyboard-response","69","121948","0.0-1.0-92.0","0","0","68979","","null","","","null","10","","","","","","","","","","","","","","","",""
"","ISI","","html-keyboard-response","70","123956","0.0-1.0-93.0","0","0","68979","","null","","","null","10","NaN","","","","","","","","","","","","","","",""
"","S2","","html-keyboard-response","71","124120","0.0-1.0-94.0","0","0","68979","","null","","","null","10","","NaN","","","","","","","","","","","","","",""
"","response","","html-keyboard-response","72","124584","0.0-1.0-95.0-0.0","0","0","68979","","451","","","68","10","","","1","10","training","adjacent","ED","5","4","Q.jpg","L.jpg","0","0","1","",""
"","feedback","","html-keyboard-response","73","125596","0.0-1.0-96.0-0.0","0","0","68979","","null","","","null","10","","","","","","","","","","","","","","","",""
"","ITI","","html-keyboard-response","74","126621","0.0-1.0-99.0","0","0","68979","","null","","","null","10","","","","","","","","","","","","","","","NaN",""
"","S1","","html-keyboard-response","75","126780","0.0-1.0-101.0","0","0","68979","","null","","","null","11","","","","","","","","","","","","","","","",""
"","ISI","","html-keyboard-response","76","128792","0.0-1.0-102.0","0","0","68979","","null","","","null","11","NaN","","","","","","","","","","","","","","",""
"","S2","","html-keyboard-response","77","128960","0.0-1.0-103.0","0","0","68979","","null","","","null","11","","NaN","","","","","","","","","","","","","",""
"","response","","html-keyboard-response","78","129232","0.0-1.0-104.0-0.0","0","0","68979","","263","","","75","11","","","1","11","training","adjacent","DC","4","3","L.jpg","R.jpg","1","0","0","",""
"","feedback","","html-keyboard-response","79","130241","0.0-1.0-105.0-0.0","0","0","68979","","null","","","null","11","","","","","","","","","","","","","","","",""
"","time_out","","html-keyboard-response","80","132256","0.0-1.0-107.0-0.0","0","0","68979","","null","","","null","11","","","","","","","","","","","","","","","",""
"","ITI","","html-keyboard-response","81","133269","0.0-1.0-108.0","0","0","68979","","null","","","null","11","","","","","","","","","","","","","","","NaN",""
"","S1","","html-keyboard-response","82","133433","0.0-1.0-110.0","0","0","68979","","null","","","null","12","","","","","","","","","","","","","","","",""
"","ISI","","html-keyboard-response","83","135444","0.0-1.0-111.0","0","0","68979","","null","","","null","12","NaN","","","","","","","","","","","","","","",""
"","S2","","html-keyboard-response","84","135609","0.0-1.0-112.0","0","0","68979","","null","","","null","12","","NaN","","","","","","","","","","","","","",""
"","response","","html-keyboard-response","85","135776","0.0-1.0-113.0-0.0","0","0","68979","","157","","","68","12","","","1","12","training","adjacent","BA","2","1","N.jpg","M.jpg","0","0","1","",""
"","feedback","","html-keyboard-response","86","136791","0.0-1.0-114.0-0.0","0","0","68979","","null","","","null","12","","","","","","","","","","","","","","","",""
"","ITI","","html-keyboard-response","87","137807","0.0-1.0-117.0","0","0","68979","","null","","","null","12","","","","","","","","","","","","","","","NaN",""
"","S1","","html-keyboard-response","88","137975","0.0-1.0-119.0","0","0","68979","","null","","","null","13","","","","","","","","","","","","","","","",""
"","ISI","","html-keyboard-response","89","139982","0.0-1.0-120.0","0","0","68979","","null","","","null","13","NaN","","","","","","","","","","","","","","",""
"","S2","","html-keyboard-response","90","140146","0.0-1.0-121.0","0","0","68979","","null","","","null","13","","NaN","","","","","","","","","","","","","",""
"","response","","html-keyboard-response","91","140586","0.0-1.0-122.0-0.0","0","0","68979","","433","","","75","13","","","1","13","training","adjacent","DC","4","3","L.jpg","R.jpg","1","0","0","",""
"","feedback","","html-keyboard-response","92","141598","0.0-1.0-123.0-0.0","0","0","68979","","null","","","null","13","","","","","","","","","","","","","","","",""
"","time_out","","html-keyboard-response","93","143624","0.0-1.0-125.0-0.0","0","0","68979","","null","","","null","13","","","","","","","","","","","","","","","",""
"","ITI","","html-keyboard-response","94","144645","0.0-1.0-126.0","0","0","68979","","null","","","null","13","","","","","","","","","","","","","","","NaN",""
"","S1","","html-keyboard-response","95","144812","0.0-1.0-128.0","0","0","68979","","null","","","null","14","","","","","","","","","","","","","","","",""
"","ISI","","html-keyboard-response","96","146821","0.0-1.0-129.0","0","0","68979","","null","","","null","14","NaN","","","","","","","","","","","","","","",""
"","S2","","html-keyboard-response","97","146979","0.0-1.0-130.0","0","0","68979","","null","","","null","14","","NaN","","","","","","","","","","","","","",""
"","response","","html-keyboard-response","98","147277","0.0-1.0-131.0-0.0","0","0","68979","","286","","","75","14","","","1","14","training","adjacent","BA","2","1","N.jpg","M.jpg","1","0","0","",""
"","feedback","","html-keyboard-response","99","148290","0.0-1.0-132.0-0.0","0","0","68979","","null","","","null","14","","","","","","","","","","","","","","","",""
"","time_out","","html-keyboard-response","100","150303","0.0-1.0-134.0-0.0","0","0","68979","","null","","","null","14","","","","","","","","","","","","","","","",""
"","ITI","","html-keyboard-response","101","151311","0.0-1.0-135.0","0","0","68979","","null","","","null","14","","","","","","","","","","","","","","","NaN",""
"","S1","","html-keyboard-response","102","151470","0.0-1.0-137.0","0","0","68979","","null","","","null","15","","","","","","","","","","","","","","","",""
"","ISI","","html-keyboard-response","103","153476","0.0-1.0-138.0","0","0","68979","","null","","","null","15","NaN","","","","","","","","","","","","","","",""
"","S2","","html-keyboard-response","104","153633","0.0-1.0-139.0","0","0","68979","","null","","","null","15","","NaN","","","","","","","","","","","","","",""
"","response","","html-keyboard-response","105","153816","0.0-1.0-140.0-0.0","0","0","68979","","171","","","68","15","","","1","15","training","adjacent","EF","5","6","Q.jpg","O.jpg","0","1","0","",""
"","feedback","","html-keyboard-response","106","154838","0.0-1.0-141.0-0.0","0","0","68979","","null","","","null","15","","","","","","","","","","","","","","","",""
"","time_out","","html-keyboard-response","107","156845","0.0-1.0-143.0-0.0","0","0","68979","","null","","","null","15","","","","","","","","","","","","","","","",""
"","ITI","","html-keyboard-response","108","157863","0.0-1.0-144.0","0","0","68979","","null","","","null","15","","","","","","","","","","","","","","","NaN",""
"","S1","","html-keyboard-response","109","158028","0.0-1.0-146.0","0","0","68979","","null","","","null","16","","","","","","","","","","","","","","","",""
"","ISI","","html-keyboard-response","110","160043","0.0-1.0-147.0","0","0","68979","","null","","","null","16","NaN","","","","","","","","","","","","","","",""
"","S2","","html-keyboard-response","111","160215","0.0-1.0-148.0","0","0","68979","","null","","","null","16","","NaN","","","","","","","","","","","","","",""
"","response","","html-keyboard-response","112","161059","0.0-1.0-149.0-0.0","0","0","68979","","834","","","75","16","","","1","16","training","adjacent","EF","5","6","Q.jpg","O.jpg","1","1","1","",""
"","feedback","","html-keyboard-response","113","162073","0.0-1.0-150.0-0.0","0","0","68979","","null","","","null","16","","","","","","","","","","","","","","","",""
"","ITI","","html-keyboard-response","114","163089","0.0-1.0-153.0","0","0","68979","","null","","","null","16","","","","","","","","","","","","","","","NaN",""
"","S1","","html-keyboard-response","115","163250","0.0-1.0-155.0","0","0","68979","","null","","","null","17","","","","","","","","","","","","","","","",""
"","ISI","","html-keyboard-response","116","165269","0.0-1.0-156.0","0","0","68979","","null","","","null","17","NaN","","","","","","","","","","","","","","",""
"","S2","","html-keyboard-response","117","165438","0.0-1.0-157.0","0","0","68979","","null","","","null","17","","NaN","","","","","","","","","","","","","",""
"","response","","html-keyboard-response","118","166457","0.0-1.0-158.0-0.0","0","0","68979","","1009","","","75","17","","","1","17","training","adjacent","DC","4","3","L.jpg","R.jpg","1","0","0","",""
"","feedback","","html-keyboard-response","119","167471","0.0-1.0-159.0-0.0","0","0","68979","","null","","","null","17","","","","","","","","","","","","","","","",""
"","time_out","","html-keyboard-response","120","169487","0.0-1.0-161.0-0.0","0","0","68979","","null","","","null","17","","","","","","","","","","","","","","","",""
"","ITI","","html-keyboard-response","121","170512","0.0-1.0-162.0","0","0","68979","","null","","","null","17","","","","","","","","","","","","","","","NaN",""
"","S1","","html-keyboard-response","122","170677","0.0-1.0-164.0","0","0","68979","","null","","","null","18","","","","","","","","","","","","","","","",""
"","ISI","","html-keyboard-response","123","172687","0.0-1.0-165.0","0","0","68979","","null","","","null","18","NaN","","","","","","","","","","","","","","",""
"","S2","","html-keyboard-response","124","172846","0.0-1.0-166.0","0","0","68979","","null","","","null","18","","NaN","","","","","","","","","","","","","",""
"","response","","html-keyboard-response","125","173473","0.0-1.0-167.0-0.0","0","0","68979","","614","","","68","18","","","1","18","training","adjacent","FG","6","7","O.jpg","P.jpg","0","1","0","",""
"","feedback","","html-keyboard-response","126","174499","0.0-1.0-168.0-0.0","0","0","68979","","null","","","null","18","","","","","","","","","","","","","","","",""
"","time_out","","html-keyboard-response","127","176520","0.0-1.0-170.0-0.0","0","0","68979","","null","","","null","18","","","","","","","","","","","","","","","",""
"","ITI","","html-keyboard-response","128","177538","0.0-1.0-171.0","0","0","68979","","null","","","null","18","","","","","","","","","","","","","","","NaN",""
"","S1","","html-keyboard-response","129","177699","0.0-1.0-173.0","0","0","68979","","null","","","null","19","","","","","","","","","","","","","","","",""
"","ISI","","html-keyboard-response","130","179714","0.0-1.0-174.0","0","0","68979","","null","","","null","19","NaN","","","","","","","","","","","","","","",""
"","S2","","html-keyboard-response","131","179880","0.0-1.0-175.0","0","0","68979","","null","","","null","19","","NaN","","","","","","","","","","","","","",""
"","response","","html-keyboard-response","132","181385","0.0-1.0-176.0-0.0","0","0","68979","","1497","","","75","19","","","1","19","training","adjacent","BA","2","1","N.jpg","M.jpg","1","0","0","",""
"","feedback","","html-keyboard-response","133","182394","0.0-1.0-177.0-0.0","0","0","68979","","null","","","null","19","","","","","","","","","","","","","","","",""
"","time_out","","html-keyboard-response","134","184408","0.0-1.0-179.0-0.0","0","0","68979","","null","","","null","19","","","","","","","","","","","","","","","",""
"","ITI","","html-keyboard-response","135","185419","0.0-1.0-180.0","0","0","68979","","null","","","null","19","","","","","","","","","","","","","","","NaN",""
"","S1","","html-keyboard-response","136","185576","0.0-1.0-182.0","0","0","68979","","null","","","null","20","","","","","","","","","","","","","","","",""
"","ISI","","html-keyboard-response","137","187585","0.0-1.0-183.0","0","0","68979","","null","","","null","20","NaN","","","","","","","","","","","","","","",""
"","S2","","html-keyboard-response","138","187747","0.0-1.0-184.0","0","0","68979","","null","","","null","20","","NaN","","","","","","","","","","","","","",""
"","response","","html-keyboard-response","139","188175","0.0-1.0-185.0-0.0","0","0","68979","","414","","","75","20","","","1","20","training","adjacent","DE","4","5","L.jpg","Q.jpg","1","1","1","",""
"","feedback","","html-keyboard-response","140","189205","0.0-1.0-186.0-0.0","0","0","68979","","null","","","null","20","","","","","","","","","","","","","","","",""
"","ITI","","html-keyboard-response","141","190221","0.0-1.0-189.0","0","0","68979","","null","","","null","20","","","","","","","","","","","","","","","NaN",""
"","S1","","html-keyboard-response","142","190381","0.0-1.0-191.0","0","0","68979","","null","","","null","21","","","","","","","","","","","","","","","",""
"","ISI","","html-keyboard-response","143","192389","0.0-1.0-192.0","0","0","68979","","null","","","null","21","NaN","","","","","","","","","","","","","","",""
"","S2","","html-keyboard-response","144","192547","0.0-1.0-193.0","0","0","68979","","null","","","null","21","","NaN","","","","","","","","","","","","","",""
"","response","","html-keyboard-response","145","193348","0.0-1.0-194.0-0.0","0","0","68979","","793","","","75","21","","","1","21","training","adjacent","FE","6","5","O.jpg","Q.jpg","1","0","0","",""
"","feedback","","html-keyboard-response","146","194363","0.0-1.0-195.0-0.0","0","0","68979","","null","","","null","21","","","","","","","","","","","","","","","",""
"","time_out","","html-keyboard-response","147","196376","0.0-1.0-197.0-0.0","0","0","68979","","null","","","null","21","","","","","","","","","","","","","","","",""
"","ITI","","html-keyboard-response","148","197388","0.0-1.0-198.0","0","0","68979","","null","","","null","21","","","","","","","","","","","","","","","NaN",""
"","S1","","html-keyboard-response","149","197549","0.0-1.0-200.0","0","0","68979","","null","","","null","22","","","","","","","","","","","","","","","",""
"","ISI","","html-keyboard-response","150","199563","0.0-1.0-201.0","0","0","68979","","null","","","null","22","NaN","","","","","","","","","","","","","","",""
"","S2","","html-keyboard-response","151","199723","0.0-1.0-202.0","0","0","68979","","null","","","null","22","","NaN","","","","","","","","","","","","","",""
"","response","","html-keyboard-response","152","200052","0.0-1.0-203.0-0.0","0","0","68979","","321","","","68","22","","","1","22","training","adjacent","GF","7","6","P.jpg","O.jpg","0","0","1","",""
"","feedback","","html-keyboard-response","153","201064","0.0-1.0-204.0-0.0","0","0","68979","","null","","","null","22","","","","","","","","","","","","","","","",""
"","ITI","","html-keyboard-response","154","202074","0.0-1.0-207.0","0","0","68979","","null","","","null","22","","","","","","","","","","","","","","","NaN",""
"","S1","","html-keyboard-response","155","202232","0.0-1.0-209.0","0","0","68979","","null","","","null","23","","","","","","","","","","","","","","","",""
"","ISI","","html-keyboard-response","156","204245","0.0-1.0-210.0","0","0","68979","","null","","","null","23","NaN","","","","","","","","","","","","","","",""
"","S2","","html-keyboard-response","157","204412","0.0-1.0-211.0","0","0","68979","","null","","","null","23","","NaN","","","","","","","","","","","","","",""
"","response","","html-keyboard-response","158","205158","0.0-1.0-212.0-0.0","0","0","68979","","736","","","75","23","","","1","23","training","adjacent","ED","5","4","Q.jpg","L.jpg","1","0","0","",""
"","feedback","","html-keyboard-response","159","206167","0.0-1.0-213.0-0.0","0","0","68979","","null","","","null","23","","","","","","","","","","","","","","","",""
"","time_out","","html-keyboard-response","160","208185","0.0-1.0-215.0-0.0","0","0","68979","","null","","","null","23","","","","","","","","","","","","","","","",""
"","ITI","","html-keyboard-response","161","209199","0.0-1.0-216.0","0","0","68979","","null","","","null","23","","","","","","","","","","","","","","","NaN",""
"","S1","","html-keyboard-response","162","209363","0.0-1.0-218.0","0","0","68979","","null","","","null","24","","","","","","","","","","","","","","","",""
"","ISI","","html-keyboard-response","163","211372","0.0-1.0-219.0","0","0","68979","","null","","","null","24","NaN","","","","","","","","","","","","","","",""
"","S2","","html-keyboard-response","164","211531","0.0-1.0-220.0","0","0","68979","","null","","","null","24","","NaN","","","","","","","","","","","","","",""
"","response","","html-keyboard-response","165","211862","0.0-1.0-221.0-0.0","0","0","68979","","316","","","68","24","","","1","24","training","adjacent","CD","3","4","R.jpg","L.jpg","0","1","0","",""
"","feedback","","html-keyboard-response","166","212871","0.0-1.0-222.0-0.0","0","0","68979","","null","","","null","24","","","","","","","","","","","","","","","",""
"","time_out","","html-keyboard-response","167","214888","0.0-1.0-224.0-0.0","0","0","68979","","null","","","null","24","","","","","","","","","","","","","","","",""
"","ITI","","html-keyboard-response","168","215906","0.0-1.0-225.0","0","0","68979","","null","","","null","24","","","","","","","","","","","","","","","NaN",""
"","S1","","html-keyboard-response","169","216074","0.0-1.0-227.0","0","0","68979","","null","","","null","25","","","","","","","","","","","","","","","",""
"","ISI","","html-keyboard-response","170","218088","0.0-1.0-228.0","0","0","68979","","null","","","null","25","NaN","","","","","","","","","","","","","","",""
"","S2","","html-keyboard-response","171","218252","0.0-1.0-229.0","0","0","68979","","null","","","null","25","","NaN","","","","","","","","","","","","","",""
"","response","","html-keyboard-response","172","221944","0.0-1.0-230.0-0.0","0","0","68979","","3683","","","75","25","","","1","25","training","adjacent","CB","3","2","R.jpg","N.jpg","1","0","0","",""
"","feedback","","html-keyboard-response","173","222987","0.0-1.0-231.0-0.0","0","0","68979","","null","","","null","25","","","","","","","","","","","","","","","",""
"","time_out","","html-keyboard-response","174","224996","0.0-1.0-233.0-0.0","0","0","68979","","null","","","null","25","","","","","","","","","","","","","","","",""
"","ITI","","html-keyboard-response","175","226004","0.0-1.0-234.0","0","0","68979","","null","","","null","25","","","","","","","","","","","","","","","NaN",""
"","S1","","html-keyboard-response","176","226162","0.0-1.0-236.0","0","0","68979","","null","","","null","26","","","","","","","","","","","","","","","",""
"","ISI","","html-keyboard-response","177","228171","0.0-1.0-237.0","0","0","68979","","null","","","null","26","NaN","","","","","","","","","","","","","","",""
"","S2","","html-keyboard-response","178","228330","0.0-1.0-238.0","0","0","68979","","null","","","null","26","","NaN","","","","","","","","","","","","","",""
"","response","","html-keyboard-response","179","229147","0.0-1.0-239.0-0.0","0","0","68979","","811","","","75","26","","","1","26","training","adjacent","AB","1","2","M.jpg","N.jpg","1","1","1","",""
"","feedback","","html-keyboard-response","180","230160","0.0-1.0-240.0-0.0","0","0","68979","","null","","","null","26","","","","","","","","","","","","","","","",""
"","ITI","","html-keyboard-response","181","231171","0.0-1.0-243.0","0","0","68979","","null","","","null","26","","","","","","","","","","","","","","","NaN",""
"","S1","","html-keyboard-response","182","231335","0.0-1.0-245.0","0","0","68979","","null","","","null","27","","","","","","","","","","","","","","","",""
"","ISI","","html-keyboard-response","183","233343","0.0-1.0-246.0","0","0","68979","","null","","","null","27","NaN","","","","","","","","","","","","","","",""
"","S2","","html-keyboard-response","184","233505","0.0-1.0-247.0","0","0","68979","","null","","","null","27","","NaN","","","","","","","","","","","","","",""
"","response","","html-keyboard-response","185","234594","0.0-1.0-248.0-0.0","0","0","68979","","1081","","","75","27","","","1","27","training","adjacent","DE","4","5","L.jpg","Q.jpg","1","1","1","",""
"","feedback","","html-keyboard-response","186","235673","0.0-1.0-249.0-0.0","0","0","68979","","null","","","null","27","","","","","","","","","","","","","","","",""
"","ITI","","html-keyboard-response","187","236682","0.0-1.0-252.0","0","0","68979","","null","","","null","27","","","","","","","","","","","","","","","NaN",""
"","S1","","html-keyboard-response","188","236843","0.0-1.0-254.0","0","0","68979","","null","","","null","28","","","","","","","","","","","","","","","",""
"","ISI","","html-keyboard-response","189","238856","0.0-1.0-255.0","0","0","68979","","null","","","null","28","NaN","","","","","","","","","","","","","","",""
"","S2","","html-keyboard-response","190","239024","0.0-1.0-256.0","0","0","68979","","null","","","null","28","","NaN","","","","","","","","","","","","","",""
"","response","","html-keyboard-response","191","239747","0.0-1.0-257.0-0.0","0","0","68979","","708","","","68","28","","","1","28","training","adjacent","GF","7","6","P.jpg","O.jpg","0","0","1","",""
"","feedback","","html-keyboard-response","192","240765","0.0-1.0-258.0-0.0","0","0","68979","","null","","","null","28","","","","","","","","","","","","","","","",""
"","ITI","","html-keyboard-response","193","241778","0.0-1.0-261.0","0","0","68979","","null","","","null","28","","","","","","","","","","","","","","","NaN",""
"","S1","","html-keyboard-response","194","241943","0.0-1.0-263.0","0","0","68979","","null","","","null","29","","","","","","","","","","","","","","","",""
"","ISI","","html-keyboard-response","195","243958","0.0-1.0-264.0","0","0","68979","","null","","","null","29","NaN","","","","","","","","","","","","","","",""
"","S2","","html-keyboard-response","196","244127","0.0-1.0-265.0","0","0","68979","","null","","","null","29","","NaN","","","","","","","","","","","","","",""
"","response","","html-keyboard-response","197","245507","0.0-1.0-266.0-0.0","0","0","68979","","1367","","","68","29","","","1","29","training","adjacent","DE","4","5","L.jpg","Q.jpg","0","1","0","",""
"","feedback","","html-keyboard-response","198","246522","0.0-1.0-267.0-0.0","0","0","68979","","null","","","null","29","","","","","","","","","","","","","","","",""
"","time_out","","html-keyboard-response","199","248539","0.0-1.0-269.0-0.0","0","0","68979","","null","","","null","29","","","","","","","","","","","","","","","",""
"","ITI","","html-keyboard-response","200","249548","0.0-1.0-270.0","0","0","68979","","null","","","null","29","","","","","","","","","","","","","","","NaN",""
"","S1","","html-keyboard-response","201","249711","0.0-1.0-272.0","0","0","68979","","null","","","null","30","","","","","","","","","","","","","","","",""
"","ISI","","html-keyboard-response","202","251724","0.0-1.0-273.0","0","0","68979","","null","","","null","30","NaN","","","","","","","","","","","","","","",""
"","S2","","html-keyboard-response","203","251906","0.0-1.0-274.0","0","0","68979","","null","","","null","30","","NaN","","","","","","","","","","","","","",""
"","response","","html-keyboard-response","204","252896","0.0-1.0-275.0-0.0","0","0","68979","","980","","","75","30","","","1","30","training","adjacent","ED","5","4","Q.jpg","L.jpg","1","0","0","",""
"","feedback","","html-keyboard-response","205","253905","0.0-1.0-276.0-0.0","0","0","68979","","null","","","null","30","","","","","","","","","","","","","","","",""
"","time_out","","html-keyboard-response","206","255912","0.0-1.0-278.0-0.0","0","0","68979","","null","","","null","30","","","","","","","","","","","","","","","",""
"","ITI","","html-keyboard-response","207","256921","0.0-1.0-279.0","0","0","68979","","null","","","null","30","","","","","","","","","","","","","","","NaN",""
"","S1","","html-keyboard-response","208","257079","0.0-1.0-281.0","0","0","68979","","null","","","null","31","","","","","","","","","","","","","","","",""
"","ISI","","html-keyboard-response","209","259090","0.0-1.0-282.0","0","0","68979","","null","","","null","31","NaN","","","","","","","","","","","","","","",""
"","S2","","html-keyboard-response","210","259251","0.0-1.0-283.0","0","0","68979","","null","","","null","31","","NaN","","","","","","","","","","","","","",""
"","response","","html-keyboard-response","211","260075","0.0-1.0-284.0-0.0","0","0","68979","","817","","","68","31","","","1","31","training","adjacent","FG","6","7","O.jpg","P.jpg","0","1","0","",""
"","feedback","","html-keyboard-response","212","261089","0.0-1.0-285.0-0.0","0","0","68979","","null","","","null","31","","","","","","","","","","","","","","","",""
"","time_out","","html-keyboard-response","213","263104","0.0-1.0-287.0-0.0","0","0","68979","","null","","","null","31","","","","","","","","","","","","","","","",""
"","ITI","","html-keyboard-response","214","264115","0.0-1.0-288.0","0","0","68979","","null","","","null","31","","","","","","","","","","","","","","","NaN",""
"","S1","","html-keyboard-response","215","264279","0.0-1.0-290.0","0","0","68979","","null","","","null","32","","","","","","","","","","","","","","","",""
"","ISI","","html-keyboard-response","216","266288","0.0-1.0-291.0","0","0","68979","","null","","","null","32","NaN","","","","","","","","","","","","","","",""
"","S2","","html-keyboard-response","217","266451","0.0-1.0-292.0","0","0","68979","","null","","","null","32","","NaN","","","","","","","","","","","","","",""
"","response","","html-keyboard-response","218","267511","0.0-1.0-293.0-0.0","0","0","68979","","1047","","","68","32","","","1","32","training","adjacent","GF","7","6","P.jpg","O.jpg","0","0","1","",""
"","feedback","","html-keyboard-response","219","268526","0.0-1.0-294.0-0.0","0","0","68979","","null","","","null","32","","","","","","","","","","","","","","","",""
"","ITI","","html-keyboard-response","220","269544","0.0-1.0-297.0","0","0","68979","","null","","","null","32","","","","","","","","","","","","","","","NaN",""
"","S1","","html-keyboard-response","221","269710","0.0-1.0-299.0","0","0","68979","","null","","","null","33","","","","","","","","","","","","","","","",""
"","ISI","","html-keyboard-response","222","271720","0.0-1.0-300.0","0","0","68979","","null","","","null","33","NaN","","","","","","","","","","","","","","",""
"","S2","","html-keyboard-response","223","271877","0.0-1.0-301.0","0","0","68979","","null","","","null","33","","NaN","","","","","","","","","","","","","",""
"","response","","html-keyboard-response","224","272305","0.0-1.0-302.0-0.0","0","0","68979","","421","","","68","33","","","1","33","training","adjacent","CD","3","4","R.jpg","L.jpg","0","1","0","",""
"","feedback","","html-keyboard-response","225","273323","0.0-1.0-303.0-0.0","0","0","68979","","null","","","null","33","","","","","","","","","","","","","","","",""
"","time_out","","html-keyboard-response","226","275332","0.0-1.0-305.0-0.0","0","0","68979","","null","","","null","33","","","","","","","","","","","","","","","",""
"","ITI","","html-keyboard-response","227","276343","0.0-1.0-306.0","0","0","68979","","null","","","null","33","","","","","","","","","","","","","","","NaN",""
"","S1","","html-keyboard-response","228","276504","0.0-1.0-308.0","0","0","68979","","null","","","null","34","","","","","","","","","","","","","","","",""
"","ISI","","html-keyboard-response","229","278518","0.0-1.0-309.0","0","0","68979","","null","","","null","34","NaN","","","","","","","","","","","","","","",""
"","S2","","html-keyboard-response","230","278687","0.0-1.0-310.0","0","0","68979","","null","","","null","34","","NaN","","","","","","","","","","","","","",""
"","response","","html-keyboard-response","231","279622","0.0-1.0-311.0-0.0","0","0","68979","","921","","","68","34","","","1","34","training","adjacent","GF","7","6","P.jpg","O.jpg","0","0","1","",""
"","feedback","","html-keyboard-response","232","280637","0.0-1.0-312.0-0.0","0","0","68979","","null","","","null","34","","","","","","","","","","","","","","","",""
"","ITI","","html-keyboard-response","233","281646","0.0-1.0-315.0","0","0","68979","","null","","","null","34","","","","","","","","","","","","","","","NaN",""
"","S1","","html-keyboard-response","234","281827","0.0-1.0-317.0","0","0","68979","","null","","","null","35","","","","","","","","","","","","","","","",""
"","ISI","","html-keyboard-response","235","283837","0.0-1.0-318.0","0","0","68979","","null","","","null","35","NaN","","","","","","","","","","","","","","",""
"","S2","","html-keyboard-response","236","283998","0.0-1.0-319.0","0","0","68979","","null","","","null","35","","NaN","","","","","","","","","","","","","",""
"","response","","html-keyboard-response","237","285161","0.0-1.0-320.0-0.0","0","0","68979","","1156","","","75","35","","","1","35","training","adjacent","BC","2","3","N.jpg","R.jpg","1","1","1","",""
"","feedback","","html-keyboard-response","238","286174","0.0-1.0-321.0-0.0","0","0","68979","","null","","","null","35","","","","","","","","","","","","","","","",""
"","ITI","","html-keyboard-response","239","287191","0.0-1.0-324.0","0","0","68979","","null","","","null","35","","","","","","","","","","","","","","","NaN",""
"","S1","","html-keyboard-response","240","287356","0.0-1.0-326.0","0","0","68979","","null","","","null","36","","","","","","","","","","","","","","","",""
"","ISI","","html-keyboard-response","241","289365","0.0-1.0-327.0","0","0","68979","","null","","","null","36","NaN","","","","","","","","","","","","","","",""
"","S2","","html-keyboard-response","242","289524","0.0-1.0-328.0","0","0","68979","","null","","","null","36","","NaN","","","","","","","","","","","","","",""
"","response","","html-keyboard-response","243","291074","0.0-1.0-329.0-0.0","0","0","68979","","1543","","","68","36","","","1","36","training","adjacent","FE","6","5","O.jpg","Q.jpg","0","0","1","",""
"","feedback","","html-keyboard-response","244","292084","0.0-1.0-330.0-0.0","0","0","68979","","null","","","null","36","","","","","","","","","","","","","","","",""
"","ITI","","html-keyboard-response","245","293092","0.0-1.0-333.0","0","0","68979","","null","","","null","36","","","","","","","","","","","","","","","NaN",""
"","S1","","html-keyboard-response","246","293250","0.0-1.0-335.0","0","0","68979","","null","","","null","37","","","","","","","","","","","","","","","",""
"","ISI","","html-keyboard-response","247","295263","0.0-1.0-336.0","0","0","68979","","null","","","null","37","NaN","","","","","","","","","","","","","","",""
"","S2","","html-keyboard-response","248","295429","0.0-1.0-337.0","0","0","68979","","null","","","null","37","","NaN","","","","","","","","","","","","","",""
"","response","","html-keyboard-response","249","296308","0.0-1.0-338.0-0.0","0","0","68979","","869","","","75","37","","","1","37","training","adjacent","FG","6","7","O.jpg","P.jpg","1","1","1","",""
"","feedback","","html-keyboard-response","250","297333","0.0-1.0-339.0-0.0","0","0","68979","","null","","","null","37","","","","","","","","","","","","","","","",""
"","ITI","","html-keyboard-response","251","298350","0.0-1.0-342.0","0","0","68979","","null","","","null","37","","","","","","","","","","","","","","","NaN",""
"","S1","","html-keyboard-response","252","298515","0.0-1.0-344.0","0","0","68979","","null","","","null","38","","","","","","","","","","","","","","","",""
"","ISI","","html-keyboard-response","253","300523","0.0-1.0-345.0","0","0","68979","","null","","","null","38","NaN","","","","","","","","","","","","","","",""
"","S2","","html-keyboard-response","254","300686","0.0-1.0-346.0","0","0","68979","","null","","","null","38","","NaN","","","","","","","","","","","","","",""
"","response","","html-keyboard-response","255","302125","0.0-1.0-347.0-0.0","0","0","68979","","1432","","","68","38","","","1","38","training","adjacent","CD","3","4","R.jpg","L.jpg","0","1","0","",""
"","feedback","","html-keyboard-response","256","303150","0.0-1.0-348.0-0.0","0","0","68979","","null","","","null","38","","","","","","","","","","","","","","","",""
"","time_out","","html-keyboard-response","257","305169","0.0-1.0-350.0-0.0","0","0","68979","","null","","","null","38","","","","","","","","","","","","","","","",""
"","ITI","","html-keyboard-response","258","306180","0.0-1.0-351.0","0","0","68979","","null","","","null","38","","","","","","","","","","","","","","","NaN",""
"","S1","","html-keyboard-response","259","306348","0.0-1.0-353.0","0","0","68979","","null","","","null","39","","","","","","","","","","","","","","","",""
"","ISI","","html-keyboard-response","260","308355","0.0-1.0-354.0","0","0","68979","","null","","","null","39","NaN","","","","","","","","","","","","","","",""
"","S2","","html-keyboard-response","261","308513","0.0-1.0-355.0","0","0","68979","","null","","","null","39","","NaN","","","","","","","","","","","","","",""
"","response","","html-keyboard-response","262","309280","0.0-1.0-356.0-0.0","0","0","68979","","758","","","68","39","","","1","39","training","adjacent","CD","3","4","R.jpg","L.jpg","0","1","0","",""
"","feedback","","html-keyboard-response","263","310293","0.0-1.0-357.0-0.0","0","0","68979","","null","","","null","39","","","","","","","","","","","","","","","",""
"","time_out","","html-keyboard-response","264","312309","0.0-1.0-359.0-0.0","0","0","68979","","null","","","null","39","","","","","","","","","","","","","","","",""
"","ITI","","html-keyboard-response","265","313330","0.0-1.0-360.0","0","0","68979","","null","","","null","39","","","","","","","","","","","","","","","NaN",""
"","S1","","html-keyboard-response","266","313491","0.0-1.0-362.0","0","0","68979","","null","","","null","40","","","","","","","","","","","","","","","",""
"","ISI","","html-keyboard-response","267","315507","0.0-1.0-363.0","0","0","68979","","null","","","null","40","NaN","","","","","","","","","","","","","","",""
"","S2","","html-keyboard-response","268","315676","0.0-1.0-364.0","0","0","68979","","null","","","null","40","","NaN","","","","","","","","","","","","","",""
"","response","","html-keyboard-response","269","317534","0.0-1.0-365.0-0.0","0","0","68979","","null","","","null","40","","","1","40","training","adjacent","DE","4","5","L.jpg","Q.jpg","NaN","1","0","",""
"","too_slow_prompt","","html-keyboard-response","270","318544","0.0-1.0-367.0-0.0","1","0","68979","","null","","","null","","","","","","","","","","","","","","","","",""
"","time_out","","html-keyboard-response","271","320553","0.0-1.0-368.0-0.0","0","0","68979","","null","","","null","40","","","","","","","","","","","","","","","",""
"","ITI","","html-keyboard-response","272","321567","0.0-1.0-369.0","0","0","68979","","null","","","null","40","","","","","","","","","","","","","","","NaN",""
"","S1","","html-keyboard-response","273","321725","0.0-1.0-371.0","0","0","68979","","null","","","null","41","","","","","","","","","","","","","","","",""
"","ISI","","html-keyboard-response","274","323739","0.0-1.0-372.0","0","0","68979","","null","","","null","41","NaN","","","","","","","","","","","","","","",""
"","S2","","html-keyboard-response","275","323908","0.0-1.0-373.0","0","0","68979","","null","","","null","41","","NaN","","","","","","","","","","","","","",""
"","response","","html-keyboard-response","276","324460","0.0-1.0-374.0-0.0","0","0","68979","","538","","","68","41","","","1","41","training","adjacent","CB","3","2","R.jpg","N.jpg","0","0","1","",""
"","feedback","","html-keyboard-response","277","325477","0.0-1.0-375.0-0.0","0","0","68979","","null","","","null","41","","","","","","","","","","","","","","","",""
"","ITI","","html-keyboard-response","278","326490","0.0-1.0-378.0","0","0","68979","","null","","","null","41","","","","","","","","","","","","","","","NaN",""
"","S1","","html-keyboard-response","279","326650","0.0-1.0-380.0","0","0","68979","","null","","","null","42","","","","","","","","","","","","","","","",""
"","ISI","","html-keyboard-response","280","328661","0.0-1.0-381.0","0","0","68979","","null","","","null","42","NaN","","","","","","","","","","","","","","",""
"","S2","","html-keyboard-response","281","328821","0.0-1.0-382.0","0","0","68979","","null","","","null","42","","NaN","","","","","","","","","","","","","",""
"","response","","html-keyboard-response","282","330143","0.0-1.0-383.0-0.0","0","0","68979","","1310","","","68","42","","","1","42","training","adjacent","FG","6","7","O.jpg","P.jpg","0","1","0","",""
"","feedback","","html-keyboard-response","283","331163","0.0-1.0-384.0-0.0","0","0","68979","","null","","","null","42","","","","","","","","","","","","","","","",""
"","time_out","","html-keyboard-response","284","333187","0.0-1.0-386.0-0.0","0","0","68979","","null","","","null","42","","","","","","","","","","","","","","","",""
"","ITI","","html-keyboard-response","285","334195","0.0-1.0-387.0","0","0","68979","","null","","","null","42","","","","","","","","","","","","","","","NaN",""
"","S1","","html-keyboard-response","286","334354","0.0-1.0-389.0","0","0","68979","","null","","","null","43","","","","","","","","","","","","","","","",""
"","ISI","","html-keyboard-response","287","336361","0.0-1.0-390.0","0","0","68979","","null","","","null","43","NaN","","","","","","","","","","","","","","",""
"","S2","","html-keyboard-response","288","336520","0.0-1.0-391.0","0","0","68979","","null","","","null","43","","NaN","","","","","","","","","","","","","",""
"","response","","html-keyboard-response","289","337009","0.0-1.0-392.0-0.0","0","0","68979","","482","","","75","43","","","1","43","training","adjacent","BC","2","3","N.jpg","R.jpg","1","1","1","",""
"","feedback","","html-keyboard-response","290","338020","0.0-1.0-393.0-0.0","0","0","68979","","null","","","null","43","","","","","","","","","","","","","","","",""
"","ITI","","html-keyboard-response","291","339028","0.0-1.0-396.0","0","0","68979","","null","","","null","43","","","","","","","","","","","","","","","NaN",""
"","S1","","html-keyboard-response","292","339186","0.0-1.0-398.0","0","0","68979","","null","","","null","44","","","","","","","","","","","","","","","",""
"","ISI","","html-keyboard-response","293","341207","0.0-1.0-399.0","0","0","68979","","null","","","null","44","NaN","","","","","","","","","","","","","","",""
"","S2","","html-keyboard-response","294","341367","0.0-1.0-400.0","0","0","68979","","null","","","null","44","","NaN","","","","","","","","","","","","","",""
"","response","","html-keyboard-response","295","342478","0.0-1.0-401.0-0.0","0","0","68979","","1103","","","68","44","","","1","44","training","adjacent","BC","2","3","N.jpg","R.jpg","0","1","0","",""
"","feedback","","html-keyboard-response","296","343490","0.0-1.0-402.0-0.0","0","0","68979","","null","","","null","44","","","","","","","","","","","","","","","",""
"","time_out","","html-keyboard-response","297","345501","0.0-1.0-404.0-0.0","0","0","68979","","null","","","null","44","","","","","","","","","","","","","","","",""
"","ITI","","html-keyboard-response","298","346523","0.0-1.0-405.0","0","0","68979","","null","","","null","44","","","","","","","","","","","","","","","NaN",""
"","S1","","html-keyboard-response","299","346683","0.0-1.0-407.0","0","0","68979","","null","","","null","45","","","","","","","","","","","","","","","",""
"","ISI","","html-keyboard-response","300","348694","0.0-1.0-408.0","0","0","68979","","null","","","null","45","NaN","","","","","","","","","","","","","","",""
"","S2","","html-keyboard-response","301","348859","0.0-1.0-409.0","0","0","68979","","null","","","null","45","","NaN","","","","","","","","","","","","","",""
"","response","","html-keyboard-response","302","349568","0.0-1.0-410.0-0.0","0","0","68979","","696","","","68","45","","","1","45","training","adjacent","AB","1","2","M.jpg","N.jpg","0","1","0","",""
"","feedback","","html-keyboard-response","303","350581","0.0-1.0-411.0-0.0","0","0","68979","","null","","","null","45","","","","","","","","","","","","","","","",""
"","time_out","","html-keyboard-response","304","352597","0.0-1.0-413.0-0.0","0","0","68979","","null","","","null","45","","","","","","","","","","","","","","","",""
"","ITI","","html-keyboard-response","305","353641","0.0-1.0-414.0","0","0","68979","","null","","","null","45","","","","","","","","","","","","","","","NaN",""
"","S1","","html-keyboard-response","306","353812","0.0-1.0-416.0","0","0","68979","","null","","","null","46","","","","","","","","","","","","","","","",""
"","ISI","","html-keyboard-response","307","355822","0.0-1.0-417.0","0","0","68979","","null","","","null","46","NaN","","","","","","","","","","","","","","",""
"","S2","","html-keyboard-response","308","356006","0.0-1.0-418.0","0","0","68979","","null","","","null","46","","NaN","","","","","","","","","","","","","",""
"","response","","html-keyboard-response","309","357050","0.0-1.0-419.0-0.0","0","0","68979","","1036","","","75","46","","","1","46","training","adjacent","EF","5","6","Q.jpg","O.jpg","1","1","1","",""
"","feedback","","html-keyboard-response","310","358061","0.0-1.0-420.0-0.0","0","0","68979","","null","","","null","46","","","","","","","","","","","","","","","",""
"","ITI","","html-keyboard-response","311","359096","0.0-1.0-423.0","0","0","68979","","null","","","null","46","","","","","","","","","","","","","","","NaN",""
"","S1","","html-keyboard-response","312","359270","0.0-1.0-425.0","0","0","68979","","null","","","null","47","","","","","","","","","","","","","","","",""
"","ISI","","html-keyboard-response","313","361285","0.0-1.0-426.0","0","0","68979","","null","","","null","47","NaN","","","","","","","","","","","","","","",""
"","S2","","html-keyboard-response","314","361455","0.0-1.0-427.0","0","0","68979","","null","","","null","47","","NaN","","","","","","","","","","","","","",""
"","response","","html-keyboard-response","315","362673","0.0-1.0-428.0-0.0","0","0","68979","","1201","","","75","47","","","1","47","training","adjacent","EF","5","6","Q.jpg","O.jpg","1","1","1","",""
"","feedback","","html-keyboard-response","316","363692","0.0-1.0-429.0-0.0","0","0","68979","","null","","","null","47","","","","","","","","","","","","","","","",""
"","ITI","","html-keyboard-response","317","364704","0.0-1.0-432.0","0","0","68979","","null","","","null","47","","","","","","","","","","","","","","","NaN",""
"","block_over","","html-keyboard-response","318","368981","0.0-1.0-433.0-0.0","0","0","68979","","4269","","","32","47","","","","","","","","","","","","","","","",""
"","S1","","html-keyboard-response","319","369178","0.0-1.0-434.0","0","0","68979","","null","","","null","48","","","","","","","","","","","","","","","",""
"","ISI","","html-keyboard-response","320","371195","0.0-1.0-435.0","0","0","68979","","null","","","null","48","NaN","","","","","","","","","","","","","","",""
"","S2","","html-keyboard-response","321","371367","0.0-1.0-436.0","0","0","68979","","null","","","null","48","","NaN","","","","","","","","","","","","","",""
"","response","","html-keyboard-response","322","372875","0.0-1.0-437.0-0.0","0","0","68979","","1501","","","75","48","","","2","48","training","adjacent","DE","4","5","L.jpg","Q.jpg","1","1","1","",""
"","feedback","","html-keyboard-response","323","373886","0.0-1.0-438.0-0.0","0","0","68979","","null","","","null","48","","","","","","","","","","","","","","","",""
"","ITI","","html-keyboard-response","324","374893","0.0-1.0-441.0","0","0","68979","","null","","","null","48","","","","","","","","","","","","","","","NaN",""
"","S1","","html-keyboard-response","325","375053","0.0-1.0-443.0","0","0","68979","","null","","","null","49","","","","","","","","","","","","","","","",""
"","ISI","","html-keyboard-response","326","377071","0.0-1.0-444.0","0","0","68979","","null","","","null","49","NaN","","","","","","","","","","","","","","",""
"","S2","","html-keyboard-response","327","377236","0.0-1.0-445.0","0","0","68979","","null","","","null","49","","NaN","","","","","","","","","","","","","",""
"","response","","html-keyboard-response","328","378203","0.0-1.0-446.0-0.0","0","0","68979","","960","","","68","49","","","2","49","training","adjacent","ED","5","4","Q.jpg","L.jpg","0","0","1","",""
"","feedback","","html-keyboard-response","329","379214","0.0-1.0-447.0-0.0","0","0","68979","","null","","","null","49","","","","","","","","","","","","","","","",""
"","ITI","","html-keyboard-response","330","380224","0.0-1.0-450.0","0","0","68979","","null","","","null","49","","","","","","","","","","","","","","","NaN",""
"","S1","","html-keyboard-response","331","380384","0.0-1.0-452.0","0","0","68979","","null","","","null","50","","","","","","","","","","","","","","","",""
"","ISI","","html-keyboard-response","332","382392","0.0-1.0-453.0","0","0","68979","","null","","","null","50","NaN","","","","","","","","","","","","","","",""
"","S2","","html-keyboard-response","333","382562","0.0-1.0-454.0","0","0","68979","","null","","","null","50","","NaN","","","","","","","","","","","","","",""
"","response","","html-keyboard-response","334","383690","0.0-1.0-455.0-0.0","0","0","68979","","1121","","","75","50","","","2","50","training","adjacent","BC","2","3","N.jpg","R.jpg","1","1","1","",""
"","feedback","","html-keyboard-response","335","384718","0.0-1.0-456.0-0.0","0","0","68979","","null","","","null","50","","","","","","","","","","","","","","","",""
"","ITI","","html-keyboard-response","336","385730","0.0-1.0-459.0","0","0","68979","","null","","","null","50","","","","","","","","","","","","","","","NaN",""
"","S1","","html-keyboard-response","337","385922","0.0-1.0-461.0","0","0","68979","","null","","","null","51","","","","","","","","","","","","","","","",""
"","ISI","","html-keyboard-response","338","387935","0.0-1.0-462.0","0","0","68979","","null","","","null","51","NaN","","","","","","","","","","","","","","",""
"","S2","","html-keyboard-response","339","388103","0.0-1.0-463.0","0","0","68979","","null","","","null","51","","NaN","","","","","","","","","","","","","",""
"","response","","html-keyboard-response","340","388953","0.0-1.0-464.0-0.0","0","0","68979","","843","","","68","51","","","2","51","training","adjacent","FE","6","5","O.jpg","Q.jpg","0","0","1","",""
"","feedback","","html-keyboard-response","341","389964","0.0-1.0-465.0-0.0","0","0","68979","","null","","","null","51","","","","","","","","","","","","","","","",""
"","ITI","","html-keyboard-response","342","390975","0.0-1.0-468.0","0","0","68979","","null","","","null","51","","","","","","","","","","","","","","","NaN",""
"","S1","","html-keyboard-response","343","391147","0.0-1.0-470.0","0","0","68979","","null","","","null","52","","","","","","","","","","","","","","","",""
"","ISI","","html-keyboard-response","344","393154","0.0-1.0-471.0","0","0","68979","","null","","","null","52","NaN","","","","","","","","","","","","","","",""
"","S2","","html-keyboard-response","345","393321","0.0-1.0-472.0","0","0","68979","","null","","","null","52","","NaN","","","","","","","","","","","","","",""
"","response","","html-keyboard-response","346","394157","0.0-1.0-473.0-0.0","0","0","68979","","829","","","75","52","","","2","52","training","adjacent","AB","1","2","M.jpg","N.jpg","1","1","1","",""
"","feedback","","html-keyboard-response","347","395168","0.0-1.0-474.0-0.0","0","0","68979","","null","","","null","52","","","","","","","","","","","","","","","",""
"","ITI","","html-keyboard-response","348","396175","0.0-1.0-477.0","0","0","68979","","null","","","null","52","","","","","","","","","","","","","","","NaN",""
"","S1","","html-keyboard-response","349","396345","0.0-1.0-479.0","0","0","68979","","null","","","null","53","","","","","","","","","","","","","","","",""
"","ISI","","html-keyboard-response","350","398368","0.0-1.0-480.0","0","0","68979","","null","","","null","53","NaN","","","","","","","","","","","","","","",""
"","S2","","html-keyboard-response","351","398526","0.0-1.0-481.0","0","0","68979","","null","","","null","53","","NaN","","","","","","","","","","","","","",""
"","response","","html-keyboard-response","352","399581","0.0-1.0-482.0-0.0","0","0","68979","","1044","","","75","53","","","2","53","training","adjacent","EF","5","6","Q.jpg","O.jpg","1","1","1","",""
"","feedback","","html-keyboard-response","353","400601","0.0-1.0-483.0-0.0","0","0","68979","","null","","","null","53","","","","","","","","","","","","","","","",""
"","ITI","","html-keyboard-response","354","401650","0.0-1.0-486.0","0","0","68979","","null","","","null","53","","","","","","","","","","","","","","","NaN",""
"","S1","","html-keyboard-response","355","401819","0.0-1.0-488.0","0","0","68979","","null","","","null","54","","","","","","","","","","","","","","","",""
"","ISI","","html-keyboard-response","356","403870","0.0-1.0-489.0","0","0","68979","","null","","","null","54","NaN","","","","","","","","","","","","","","",""
"","S2","","html-keyboard-response","357","404052","0.0-1.0-490.0","0","0","68979","","null","","","null","54","","NaN","","","","","","","","","","","","","",""
"","response","","html-keyboard-response","358","404833","0.0-1.0-491.0-0.0","0","0","68979","","772","","","75","54","","","2","54","training","adjacent","BC","2","3","N.jpg","R.jpg","1","1","1","",""
"","feedback","","html-keyboard-response","359","405844","0.0-1.0-492.0-0.0","0","0","68979","","null","","","null","54","","","","","","","","","","","","","","","",""
"","ITI","","html-keyboard-response","360","406856","0.0-1.0-495.0","0","0","68979","","null","","","null","54","","","","","","","","","","","","","","","NaN",""
"","S1","","html-keyboard-response","361","407020","0.0-1.0-497.0","0","0","68979","","null","","","null","55","","","","","","","","","","","","","","","",""
"","ISI","","html-keyboard-response","362","409026","0.0-1.0-498.0","0","0","68979","","null","","","null","55","NaN","","","","","","","","","","","","","","",""
"","S2","","html-keyboard-response","363","409186","0.0-1.0-499.0","0","0","68979","","null","","","null","55","","NaN","","","","","","","","","","","","","",""
"","response","","html-keyboard-response","364","409606","0.0-1.0-500.0-0.0","0","0","68979","","413","","","75","55","","","2","55","training","adjacent","DC","4","3","L.jpg","R.jpg","1","0","0","",""
"","feedback","","html-keyboard-response","365","410632","0.0-1.0-501.0-0.0","0","0","68979","","null","","","null","55","","","","","","","","","","","","","","","",""
"","time_out","","html-keyboard-response","366","412655","0.0-1.0-503.0-0.0","0","0","68979","","null","","","null","55","","","","","","","","","","","","","","","",""
"","ITI","","html-keyboard-response","367","413663","0.0-1.0-504.0","0","0","68979","","null","","","null","55","","","","","","","","","","","","","","","NaN",""
"","S1","","html-keyboard-response","368","413822","0.0-1.0-506.0","0","0","68979","","null","","","null","56","","","","","","","","","","","","","","","",""
"","ISI","","html-keyboard-response","369","415829","0.0-1.0-507.0","0","0","68979","","null","","","null","56","NaN","","","","","","","","","","","","","","",""
"","S2","","html-keyboard-response","370","415991","0.0-1.0-508.0","0","0","68979","","null","","","null","56","","NaN","","","","","","","","","","","","","",""
"","response","","html-keyboard-response","371","416910","0.0-1.0-509.0-0.0","0","0","68979","","911","","","68","56","","","2","56","training","adjacent","ED","5","4","Q.jpg","L.jpg","0","0","1","",""
"","feedback","","html-keyboard-response","372","417925","0.0-1.0-510.0-0.0","0","0","68979","","null","","","null","56","","","","","","","","","","","","","","","",""
"","ITI","","html-keyboard-response","373","418934","0.0-1.0-513.0","0","0","68979","","null","","","null","56","","","","","","","","","","","","","","","NaN",""
"","S1","","html-keyboard-response","374","419093","0.0-1.0-515.0","0","0","68979","","null","","","null","57","","","","","","","","","","","","","","","",""
"","ISI","","html-keyboard-response","375","421104","0.0-1.0-516.0","0","0","68979","","null","","","null","57","NaN","","","","","","","","","","","","","","",""
"","S2","","html-keyboard-response","376","421267","0.0-1.0-517.0","0","0","68979","","null","","","null","57","","NaN","","","","","","","","","","","","","",""
"","response","","html-keyboard-response","377","422118","0.0-1.0-518.0-0.0","0","0","68979","","845","","","75","57","","","2","57","training","adjacent","CB","3","2","R.jpg","N.jpg","1","0","0","",""
"","feedback","","html-keyboard-response","378","423127","0.0-1.0-519.0-0.0","0","0","68979","","null","","","null","57","","","","","","","","","","","","","","","",""
"","time_out","","html-keyboard-response","379","425137","0.0-1.0-521.0-0.0","0","0","68979","","null","","","null","57","","","","","","","","","","","","","","","",""
"","ITI","","html-keyboard-response","380","426146","0.0-1.0-522.0","0","0","68979","","null","","","null","57","","","","","","","","","","","","","","","NaN",""
"","S1","","html-keyboard-response","381","426306","0.0-1.0-524.0","0","0","68979","","null","","","null","58","","","","","","","","","","","","","","","",""
"","ISI","","html-keyboard-response","382","428320","0.0-1.0-525.0","0","0","68979","","null","","","null","58","NaN","","","","","","","","","","","","","","",""
"","S2","","html-keyboard-response","383","428479","0.0-1.0-526.0","0","0","68979","","null","","","null","58","","NaN","","","","","","","","","","","","","",""
"","response","","html-keyboard-response","384","429579","0.0-1.0-527.0-0.0","0","0","68979","","1091","","","75","58","","","2","58","training","adjacent","BC","2","3","N.jpg","R.jpg","1","1","1","",""
"","feedback","","html-keyboard-response","385","430591","0.0-1.0-528.0-0.0","0","0","68979","","null","","","null","58","","","","","","","","","","","","","","","",""
"","ITI","","html-keyboard-response","386","431601","0.0-1.0-531.0","0","0","68979","","null","","","null","58","","","","","","","","","","","","","","","NaN",""
"","S1","","html-keyboard-response","387","431763","0.0-1.0-533.0","0","0","68979","","null","","","null","59","","","","","","","","","","","","","","","",""
"","ISI","","html-keyboard-response","388","433779","0.0-1.0-534.0","0","0","68979","","null","","","null","59","NaN","","","","","","","","","","","","","","",""
"","S2","","html-keyboard-response","389","433946","0.0-1.0-535.0","0","0","68979","","null","","","null","59","","NaN","","","","","","","","","","","","","",""
"","response","","html-keyboard-response","390","434510","0.0-1.0-536.0-0.0","0","0","68979","","548","","","75","59","","","2","59","training","adjacent","BA","2","1","N.jpg","M.jpg","1","0","0","",""
"","feedback","","html-keyboard-response","391","435528","0.0-1.0-537.0-0.0","0","0","68979","","null","","","null","59","","","","","","","","","","","","","","","",""
"","time_out","","html-keyboard-response","392","437549","0.0-1.0-539.0-0.0","0","0","68979","","null","","","null","59","","","","","","","","","","","","","","","",""
"","ITI","","html-keyboard-response","393","438558","0.0-1.0-540.0","0","0","68979","","null","","","null","59","","","","","","","","","","","","","","","NaN",""
"","S1","","html-keyboard-response","394","438729","0.0-1.0-542.0","0","0","68979","","null","","","null","60","","","","","","","","","","","","","","","",""
"","ISI","","html-keyboard-response","395","440741","0.0-1.0-543.0","0","0","68979","","null","","","null","60","NaN","","","","","","","","","","","","","","",""
"","S2","","html-keyboard-response","396","440904","0.0-1.0-544.0","0","0","68979","","null","","","null","60","","NaN","","","","","","","","","","","","","",""
"","response","","html-keyboard-response","397","441850","0.0-1.0-545.0-0.0","0","0","68979","","937","","","68","60","","","2","60","training","adjacent","ED","5","4","Q.jpg","L.jpg","0","0","1","",""
"","feedback","","html-keyboard-response","398","442859","0.0-1.0-546.0-0.0","0","0","68979","","null","","","null","60","","","","","","","","","","","","","","","",""
"","ITI","","html-keyboard-response","399","443868","0.0-1.0-549.0","0","0","68979","","null","","","null","60","","","","","","","","","","","","","","","NaN",""
"","S1","","html-keyboard-response","400","444026","0.0-1.0-551.0","0","0","68979","","null","","","null","61","","","","","","","","","","","","","","","",""
"","ISI","","html-keyboard-response","401","446041","0.0-1.0-552.0","0","0","68979","","null","","","null","61","NaN","","","","","","","","","","","","","","",""
"","S2","","html-keyboard-response","402","446222","0.0-1.0-553.0","0","0","68979","","null","","","null","61","","NaN","","","","","","","","","","","","","",""
"","response","","html-keyboard-response","403","447062","0.0-1.0-554.0-0.0","0","0","68979","","832","","","68","61","","","2","61","training","adjacent","CD","3","4","R.jpg","L.jpg","0","1","0","",""
"","feedback","","html-keyboard-response","404","448071","0.0-1.0-555.0-0.0","0","0","68979","","null","","","null","61","","","","","","","","","","","","","","","",""
"","time_out","","html-keyboard-response","405","450088","0.0-1.0-557.0-0.0","0","0","68979","","null","","","null","61","","","","","","","","","","","","","","","",""
"","ITI","","html-keyboard-response","406","451101","0.0-1.0-558.0","0","0","68979","","null","","","null","61","","","","","","","","","","","","","","","NaN",""
"","S1","","html-keyboard-response","407","451265","0.0-1.0-560.0","0","0","68979","","null","","","null","62","","","","","","","","","","","","","","","",""
"","ISI","","html-keyboard-response","408","453274","0.0-1.0-561.0","0","0","68979","","null","","","null","62","NaN","","","","","","","","","","","","","","",""
"","S2","","html-keyboard-response","409","453453","0.0-1.0-562.0","0","0","68979","","null","","","null","62","","NaN","","","","","","","","","","","","","",""
"","response","","html-keyboard-response","410","454775","0.0-1.0-563.0-0.0","0","0","68979","","1315","","","68","62","","","2","62","training","adjacent","BA","2","1","N.jpg","M.jpg","0","0","1","",""
"","feedback","","html-keyboard-response","411","455785","0.0-1.0-564.0-0.0","0","0","68979","","null","","","null","62","","","","","","","","","","","","","","","",""
"","ITI","","html-keyboard-response","412","456823","0.0-1.0-567.0","0","0","68979","","null","","","null","62","","","","","","","","","","","","","","","NaN",""
"","S1","","html-keyboard-response","413","456982","0.0-1.0-569.0","0","0","68979","","null","","","null","63","","","","","","","","","","","","","","","",""
"","ISI","","html-keyboard-response","414","458990","0.0-1.0-570.0","0","0","68979","","null","","","null","63","NaN","","","","","","","","","","","","","","",""
"","S2","","html-keyboard-response","415","459158","0.0-1.0-571.0","0","0","68979","","null","","","null","63","","NaN","","","","","","","","","","","","","",""
"","response","","html-keyboard-response","416","460233","0.0-1.0-572.0-0.0","0","0","68979","","1065","","","68","63","","","2","63","training","adjacent","AB","1","2","M.jpg","N.jpg","0","1","0","",""
"","feedback","","html-keyboard-response","417","461245","0.0-1.0-573.0-0.0","0","0","68979","","null","","","null","63","","","","","","","","","","","","","","","",""
"","time_out","","html-keyboard-response","418","463256","0.0-1.0-575.0-0.0","0","0","68979","","null","","","null","63","","","","","","","","","","","","","","","",""
"","ITI","","html-keyboard-response","419","464266","0.0-1.0-576.0","0","0","68979","","null","","","null","63","","","","","","","","","","","","","","","NaN",""
"","S1","","html-keyboard-response","420","464428","0.0-1.0-578.0","0","0","68979","","null","","","null","64","","","","","","","","","","","","","","","",""
"","ISI","","html-keyboard-response","421","466445","0.0-1.0-579.0","0","0","68979","","null","","","null","64","NaN","","","","","","","","","","","","","","",""
"","S2","","html-keyboard-response","422","466615","0.0-1.0-580.0","0","0","68979","","null","","","null","64","","NaN","","","","","","","","","","","","","",""
"","response","","html-keyboard-response","423","467719","0.0-1.0-581.0-0.0","0","0","68979","","1087","","","68","64","","","2","64","training","adjacent","CD","3","4","R.jpg","L.jpg","0","1","0","",""
"","feedback","","html-keyboard-response","424","468737","0.0-1.0-582.0-0.0","0","0","68979","","null","","","null","64","","","","","","","","","","","","","","","",""
"","time_out","","html-keyboard-response","425","470757","0.0-1.0-584.0-0.0","0","0","68979","","null","","","null","64","","","","","","","","","","","","","","","",""
"","ITI","","html-keyboard-response","426","471765","0.0-1.0-585.0","0","0","68979","","null","","","null","64","","","","","","","","","","","","","","","NaN",""
"","S1","","html-keyboard-response","427","471926","0.0-1.0-587.0","0","0","68979","","null","","","null","65","","","","","","","","","","","","","","","",""
"","ISI","","html-keyboard-response","428","473949","0.0-1.0-588.0","0","0","68979","","null","","","null","65","NaN","","","","","","","","","","","","","","",""
"","S2","","html-keyboard-response","429","474133","0.0-1.0-589.0","0","0","68979","","null","","","null","65","","NaN","","","","","","","","","","","","","",""
"","response","","html-keyboard-response","430","474959","0.0-1.0-590.0-0.0","0","0","68979","","819","","","68","65","","","2","65","training","adjacent","FE","6","5","O.jpg","Q.jpg","0","0","1","",""
"","feedback","","html-keyboard-response","431","475986","0.0-1.0-591.0-0.0","0","0","68979","","null","","","null","65","","","","","","","","","","","","","","","",""
"","ITI","","html-keyboard-response","432","477012","0.0-1.0-594.0","0","0","68979","","null","","","null","65","","","","","","","","","","","","","","","NaN",""
"","S1","","html-keyboard-response","433","477173","0.0-1.0-596.0","0","0","68979","","null","","","null","66","","","","","","","","","","","","","","","",""
"","ISI","","html-keyboard-response","434","479185","0.0-1.0-597.0","0","0","68979","","null","","","null","66","NaN","","","","","","","","","","","","","","",""
"","S2","","html-keyboard-response","435","479345","0.0-1.0-598.0","0","0","68979","","null","","","null","66","","NaN","","","","","","","","","","","","","",""
"","response","","html-keyboard-response","436","479760","0.0-1.0-599.0-0.0","0","0","68979","","406","","","75","66","","","2","66","training","adjacent","DC","4","3","L.jpg","R.jpg","1","0","0","",""
"","feedback","","html-keyboard-response","437","480772","0.0-1.0-600.0-0.0","0","0","68979","","null","","","null","66","","","","","","","","","","","","","","","",""
"","time_out","","html-keyboard-response","438","482789","0.0-1.0-602.0-0.0","0","0","68979","","null","","","null","66","","","","","","","","","","","","","","","",""
"","ITI","","html-keyboard-response","439","483800","0.0-1.0-603.0","0","0","68979","","null","","","null","66","","","","","","","","","","","","","","","NaN",""
"","S1","","html-keyboard-response","440","483958","0.0-1.0-605.0","0","0","68979","","null","","","null","67","","","","","","","","","","","","","","","",""
"","ISI","","html-keyboard-response","441","485964","0.0-1.0-606.0","0","0","68979","","null","","","null","67","NaN","","","","","","","","","","","","","","",""
"","S2","","html-keyboard-response","442","486127","0.0-1.0-607.0","0","0","68979","","null","","","null","67","","NaN","","","","","","","","","","","","","",""
"","response","","html-keyboard-response","443","486996","0.0-1.0-608.0-0.0","0","0","68979","","859","","","68","67","","","2","67","training","adjacent","GF","7","6","P.jpg","O.jpg","0","0","1","",""
"","feedback","","html-keyboard-response","444","488011","0.0-1.0-609.0-0.0","0","0","68979","","null","","","null","67","","","","","","","","","","","","","","","",""
"","ITI","","html-keyboard-response","445","489022","0.0-1.0-612.0","0","0","68979","","null","","","null","67","","","","","","","","","","","","","","","NaN",""
"","S1","","html-keyboard-response","446","489181","0.0-1.0-614.0","0","0","68979","","null","","","null","68","","","","","","","","","","","","","","","",""
"","ISI","","html-keyboard-response","447","491188","0.0-1.0-615.0","0","0","68979","","null","","","null","68","NaN","","","","","","","","","","","","","","",""
"","S2","","html-keyboard-response","448","491353","0.0-1.0-616.0","0","0","68979","","null","","","null","68","","NaN","","","","","","","","","","","","","",""
"","response","","html-keyboard-response","449","492365","0.0-1.0-617.0-0.0","0","0","68979","","1002","","","75","68","","","2","68","training","adjacent","BC","2","3","N.jpg","R.jpg","1","1","1","",""
"","feedback","","html-keyboard-response","450","493377","0.0-1.0-618.0-0.0","0","0","68979","","null","","","null","68","","","","","","","","","","","","","","","",""
"","ITI","","html-keyboard-response","451","494392","0.0-1.0-621.0","0","0","68979","","null","","","null","68","","","","","","","","","","","","","","","NaN",""
"","S1","","html-keyboard-response","452","494558","0.0-1.0-623.0","0","0","68979","","null","","","null","69","","","","","","","","","","","","","","","",""
"","ISI","","html-keyboard-response","453","496573","0.0-1.0-624.0","0","0","68979","","null","","","null","69","NaN","","","","","","","","","","","","","","",""
"","S2","","html-keyboard-response","454","496740","0.0-1.0-625.0","0","0","68979","","null","","","null","69","","NaN","","","","","","","","","","","","","",""
"","response","","html-keyboard-response","455","497429","0.0-1.0-626.0-0.0","0","0","68979","","674","","","68","69","","","2","69","training","adjacent","CB","3","2","R.jpg","N.jpg","0","0","1","",""
"","feedback","","html-keyboard-response","456","498446","0.0-1.0-627.0-0.0","0","0","68979","","null","","","null","69","","","","","","","","","","","","","","","",""
"","ITI","","html-keyboard-response","457","499458","0.0-1.0-630.0","0","0","68979","","null","","","null","69","","","","","","","","","","","","","","","NaN",""
"","S1","","html-keyboard-response","458","499615","0.0-1.0-632.0","0","0","68979","","null","","","null","70","","","","","","","","","","","","","","","",""
"","ISI","","html-keyboard-response","459","501622","0.0-1.0-633.0","0","0","68979","","null","","","null","70","NaN","","","","","","","","","","","","","","",""
"","S2","","html-keyboard-response","460","501782","0.0-1.0-634.0","0","0","68979","","null","","","null","70","","NaN","","","","","","","","","","","","","",""
"","response","","html-keyboard-response","461","503040","0.0-1.0-635.0-0.0","0","0","68979","","1252","","","75","70","","","2","70","training","adjacent","DE","4","5","L.jpg","Q.jpg","1","1","1","",""
"","feedback","","html-keyboard-response","462","504048","0.0-1.0-636.0-0.0","0","0","68979","","null","","","null","70","","","","","","","","","","","","","","","",""
"","ITI","","html-keyboard-response","463","505056","0.0-1.0-639.0","0","0","68979","","null","","","null","70","","","","","","","","","","","","","","","NaN",""
"","S1","","html-keyboard-response","464","505215","0.0-1.0-641.0","0","0","68979","","null","","","null","71","","","","","","","","","","","","","","","",""
"","ISI","","html-keyboard-response","465","507227","0.0-1.0-642.0","0","0","68979","","null","","","null","71","NaN","","","","","","","","","","","","","","",""
"","S2","","html-keyboard-response","466","507392","0.0-1.0-643.0","0","0","68979","","null","","","null","71","","NaN","","","","","","","","","","","","","",""
"","response","","html-keyboard-response","467","509251","0.0-1.0-644.0-0.0","0","0","68979","","null","","","null","71","","","2","71","training","adjacent","EF","5","6","Q.jpg","O.jpg","NaN","1","0","",""
"","too_slow_prompt","","html-keyboard-response","468","510261","0.0-1.0-646.0-0.0","1","0","68979","","null","","","null","","","","","","","","","","","","","","","","",""
"","time_out","","html-keyboard-response","469","512272","0.0-1.0-647.0-0.0","0","0","68979","","null","","","null","71","","","","","","","","","","","","","","","",""
"","ITI","","html-keyboard-response","470","513283","0.0-1.0-648.0","0","0","68979","","null","","","null","71","","","","","","","","","","","","","","","NaN",""
"","S1","","html-keyboard-response","471","513441","0.0-1.0-650.0","0","0","68979","","null","","","null","72","","","","","","","","","","","","","","","",""
"","ISI","","html-keyboard-response","472","515449","0.0-1.0-651.0","0","0","68979","","null","","","null","72","NaN","","","","","","","","","","","","","","",""
"","S2","","html-keyboard-response","473","515607","0.0-1.0-652.0","0","0","68979","","null","","","null","72","","NaN","","","","","","","","","","","","","",""
"","response","","html-keyboard-response","474","516220","0.0-1.0-653.0-0.0","0","0","68979","","607","","","68","72","","","2","72","training","adjacent","CD","3","4","R.jpg","L.jpg","0","1","0","",""
"","feedback","","html-keyboard-response","475","517232","0.0-1.0-654.0-0.0","0","0","68979","","null","","","null","72","","","","","","","","","","","","","","","",""
"","time_out","","html-keyboard-response","476","519246","0.0-1.0-656.0-0.0","0","0","68979","","null","","","null","72","","","","","","","","","","","","","","","",""
"","ITI","","html-keyboard-response","477","520262","0.0-1.0-657.0","0","0","68979","","null","","","null","72","","","","","","","","","","","","","","","NaN",""
"","S1","","html-keyboard-response","478","520427","0.0-1.0-659.0","0","0","68979","","null","","","null","73","","","","","","","","","","","","","","","",""
"","ISI","","html-keyboard-response","479","522435","0.0-1.0-660.0","0","0","68979","","null","","","null","73","NaN","","","","","","","","","","","","","","",""
"","S2","","html-keyboard-response","480","522594","0.0-1.0-661.0","0","0","68979","","null","","","null","73","","NaN","","","","","","","","","","","","","",""
"","response","","html-keyboard-response","481","523174","0.0-1.0-662.0-0.0","0","0","68979","","568","","","75","73","","","2","73","training","adjacent","FG","6","7","O.jpg","P.jpg","1","1","1","",""
"","feedback","","html-keyboard-response","482","524191","0.0-1.0-663.0-0.0","0","0","68979","","null","","","null","73","","","","","","","","","","","","","","","",""
"","ITI","","html-keyboard-response","483","525206","0.0-1.0-666.0","0","0","68979","","null","","","null","73","","","","","","","","","","","","","","","NaN",""
"","S1","","html-keyboard-response","484","525370","0.0-1.0-668.0","0","0","68979","","null","","","null","74","","","","","","","","","","","","","","","",""
"","ISI","","html-keyboard-response","485","527385","0.0-1.0-669.0","0","0","68979","","null","","","null","74","NaN","","","","","","","","","","","","","","",""
"","S2","","html-keyboard-response","486","527553","0.0-1.0-670.0","0","0","68979","","null","","","null","74","","NaN","","","","","","","","","","","","","",""
"","response","","html-keyboard-response","487","528035","0.0-1.0-671.0-0.0","0","0","68979","","466","","","75","74","","","2","74","training","adjacent","FG","6","7","O.jpg","P.jpg","1","1","1","",""
"","feedback","","html-keyboard-response","488","529055","0.0-1.0-672.0-0.0","0","0","68979","","null","","","null","74","","","","","","","","","","","","","","","",""
"","ITI","","html-keyboard-response","489","530076","0.0-1.0-675.0","0","0","68979","","null","","","null","74","","","","","","","","","","","","","","","NaN",""
"","S1","","html-keyboard-response","490","530239","0.0-1.0-677.0","0","0","68979","","null","","","null","75","","","","","","","","","","","","","","","",""
"","ISI","","html-keyboard-response","491","532254","0.0-1.0-678.0","0","0","68979","","null","","","null","75","NaN","","","","","","","","","","","","","","",""
"","S2","","html-keyboard-response","492","532421","0.0-1.0-679.0","0","0","68979","","null","","","null","75","","NaN","","","","","","","","","","","","","",""
"","response","","html-keyboard-response","493","533101","0.0-1.0-680.0-0.0","0","0","68979","","663","","","68","75","","","2","75","training","adjacent","CB","3","2","R.jpg","N.jpg","0","0","1","",""
"","feedback","","html-keyboard-response","494","534112","0.0-1.0-681.0-0.0","0","0","68979","","null","","","null","75","","","","","","","","","","","","","","","",""
"","ITI","","html-keyboard-response","495","535130","0.0-1.0-684.0","0","0","68979","","null","","","null","75","","","","","","","","","","","","","","","NaN",""
"","S1","","html-keyboard-response","496","535289","0.0-1.0-686.0","0","0","68979","","null","","","null","76","","","","","","","","","","","","","","","",""
"","ISI","","html-keyboard-response","497","537296","0.0-1.0-687.0","0","0","68979","","null","","","null","76","NaN","","","","","","","","","","","","","","",""
"","S2","","html-keyboard-response","498","537458","0.0-1.0-688.0","0","0","68979","","null","","","null","76","","NaN","","","","","","","","","","","","","",""
"","response","","html-keyboard-response","499","537863","0.0-1.0-689.0-0.0","0","0","68979","","393","","","75","76","","","2","76","training","adjacent","DE","4","5","L.jpg","Q.jpg","1","1","1","",""
"","feedback","","html-keyboard-response","500","538883","0.0-1.0-690.0-0.0","0","0","68979","","null","","","null","76","","","","","","","","","","","","","","","",""
"","ITI","","html-keyboard-response","501","539901","0.0-1.0-693.0","0","0","68979","","null","","","null","76","","","","","","","","","","","","","","","NaN",""
"","S1","","html-keyboard-response","502","540065","0.0-1.0-695.0","0","0","68979","","null","","","null","77","","","","","","","","","","","","","","","",""
"","ISI","","html-keyboard-response","503","542077","0.0-1.0-696.0","0","0","68979","","null","","","null","77","NaN","","","","","","","","","","","","","","",""
"","S2","","html-keyboard-response","504","542240","0.0-1.0-697.0","0","0","68979","","null","","","null","77","","NaN","","","","","","","","","","","","","",""
"","response","","html-keyboard-response","505","542691","0.0-1.0-698.0-0.0","0","0","68979","","435","","","75","77","","","2","77","training","adjacent","BA","2","1","N.jpg","M.jpg","1","0","0","",""
"","feedback","","html-keyboard-response","506","543711","0.0-1.0-699.0-0.0","0","0","68979","","null","","","null","77","","","","","","","","","","","","","","","",""
"","time_out","","html-keyboard-response","507","545719","0.0-1.0-701.0-0.0","0","0","68979","","null","","","null","77","","","","","","","","","","","","","","","",""
"","ITI","","html-keyboard-response","508","546740","0.0-1.0-702.0","0","0","68979","","null","","","null","77","","","","","","","","","","","","","","","NaN",""
"","S1","","html-keyboard-response","509","546908","0.0-1.0-704.0","0","0","68979","","null","","","null","78","","","","","","","","","","","","","","","",""
"","ISI","","html-keyboard-response","510","548915","0.0-1.0-705.0","0","0","68979","","null","","","null","78","NaN","","","","","","","","","","","","","","",""
"","S2","","html-keyboard-response","511","549078","0.0-1.0-706.0","0","0","68979","","null","","","null","78","","NaN","","","","","","","","","","","","","",""
"","response","","html-keyboard-response","512","550007","0.0-1.0-707.0-0.0","0","0","68979","","917","","","75","78","","","2","78","training","adjacent","FE","6","5","O.jpg","Q.jpg","1","0","0","",""
"","feedback","","html-keyboard-response","513","551017","0.0-1.0-708.0-0.0","0","0","68979","","null","","","null","78","","","","","","","","","","","","","","","",""
"","time_out","","html-keyboard-response","514","553025","0.0-1.0-710.0-0.0","0","0","68979","","null","","","null","78","","","","","","","","","","","","","","","",""
"","ITI","","html-keyboard-response","515","554034","0.0-1.0-711.0","0","0","68979","","null","","","null","78","","","","","","","","","","","","","","","NaN",""
"","S1","","html-keyboard-response","516","554193","0.0-1.0-713.0","0","0","68979","","null","","","null","79","","","","","","","","","","","","","","","",""
"","ISI","","html-keyboard-response","517","556204","0.0-1.0-714.0","0","0","68979","","null","","","null","79","NaN","","","","","","","","","","","","","","",""
"","S2","","html-keyboard-response","518","556364","0.0-1.0-715.0","0","0","68979","","null","","","null","79","","NaN","","","","","","","","","","","","","",""
"","response","","html-keyboard-response","519","557132","0.0-1.0-716.0-0.0","0","0","68979","","759","","","75","79","","","2","79","training","adjacent","CB","3","2","R.jpg","N.jpg","1","0","0","",""
"","feedback","","html-keyboard-response","520","558143","0.0-1.0-717.0-0.0","0","0","68979","","null","","","null","79","","","","","","","","","","","","","","","",""
"","time_out","","html-keyboard-response","521","560153","0.0-1.0-719.0-0.0","0","0","68979","","null","","","null","79","","","","","","","","","","","","","","","",""
"","ITI","","html-keyboard-response","522","561166","0.0-1.0-720.0","0","0","68979","","null","","","null","79","","","","","","","","","","","","","","","NaN",""
"","S1","","html-keyboard-response","523","561336","0.0-1.0-722.0","0","0","68979","","null","","","null","80","","","","","","","","","","","","","","","",""
"","ISI","","html-keyboard-response","524","563345","0.0-1.0-723.0","0","0","68979","","null","","","null","80","NaN","","","","","","","","","","","","","","",""
"","S2","","html-keyboard-response","525","563508","0.0-1.0-724.0","0","0","68979","","null","","","null","80","","NaN","","","","","","","","","","","","","",""
"","response","","html-keyboard-response","526","563928","0.0-1.0-725.0-0.0","0","0","68979","","403","","","75","80","","","2","80","training","adjacent","DC","4","3","L.jpg","R.jpg","1","0","0","",""
"","feedback","","html-keyboard-response","527","564954","0.0-1.0-726.0-0.0","0","0","68979","","null","","","null","80","","","","","","","","","","","","","","","",""
"","time_out","","html-keyboard-response","528","566974","0.0-1.0-728.0-0.0","0","0","68979","","null","","","null","80","","","","","","","","","","","","","","","",""
"","ITI","","html-keyboard-response","529","567987","0.0-1.0-729.0","0","0","68979","","null","","","null","80","","","","","","","","","","","","","","","NaN",""
"","S1","","html-keyboard-response","530","568153","0.0-1.0-731.0","0","0","68979","","null","","","null","81","","","","","","","","","","","","","","","",""
"","ISI","","html-keyboard-response","531","570164","0.0-1.0-732.0","0","0","68979","","null","","","null","81","NaN","","","","","","","","","","","","","","",""
"","S2","","html-keyboard-response","532","570322","0.0-1.0-733.0","0","0","68979","","null","","","null","81","","NaN","","","","","","","","","","","","","",""
"","response","","html-keyboard-response","533","570569","0.0-1.0-734.0-0.0","0","0","68979","","234","","","68","81","","","2","81","training","adjacent","GF","7","6","P.jpg","O.jpg","0","0","1","",""
"","feedback","","html-keyboard-response","534","571587","0.0-1.0-735.0-0.0","0","0","68979","","null","","","null","81","","","","","","","","","","","","","","","",""
"","ITI","","html-keyboard-response","535","572601","0.0-1.0-738.0","0","0","68979","","null","","","null","81","","","","","","","","","","","","","","","NaN",""
"","S1","","html-keyboard-response","536","572760","0.0-1.0-740.0","0","0","68979","","null","","","null","82","","","","","","","","","","","","","","","",""
"","ISI","","html-keyboard-response","537","574769","0.0-1.0-741.0","0","0","68979","","null","","","null","82","NaN","","","","","","","","","","","","","","",""
"","S2","","html-keyboard-response","538","574928","0.0-1.0-742.0","0","0","68979","","null","","","null","82","","NaN","","","","","","","","","","","","","",""
"","response","","html-keyboard-response","539","575872","0.0-1.0-743.0-0.0","0","0","68979","","933","","","68","82","","","2","82","training","adjacent","FE","6","5","O.jpg","Q.jpg","0","0","1","",""
"","feedback","","html-keyboard-response","540","576888","0.0-1.0-744.0-0.0","0","0","68979","","null","","","null","82","","","","","","","","","","","","","","","",""
"","ITI","","html-keyboard-response","541","577903","0.0-1.0-747.0","0","0","68979","","null","","","null","82","","","","","","","","","","","","","","","NaN",""
"","S1","","html-keyboard-response","542","578073","0.0-1.0-749.0","0","0","68979","","null","","","null","83","","","","","","","","","","","","","","","",""
"","ISI","","html-keyboard-response","543","580084","0.0-1.0-750.0","0","0","68979","","null","","","null","83","NaN","","","","","","","","","","","","","","",""
"","S2","","html-keyboard-response","544","580247","0.0-1.0-751.0","0","0","68979","","null","","","null","83","","NaN","","","","","","","","","","","","","",""
"","response","","html-keyboard-response","545","581144","0.0-1.0-752.0-0.0","0","0","68979","","885","","","68","83","","","2","83","training","adjacent","AB","1","2","M.jpg","N.jpg","0","1","0","",""
"","feedback","","html-keyboard-response","546","582168","0.0-1.0-753.0-0.0","0","0","68979","","null","","","null","83","","","","","","","","","","","","","","","",""
"","time_out","","html-keyboard-response","547","584187","0.0-1.0-755.0-0.0","0","0","68979","","null","","","null","83","","","","","","","","","","","","","","","",""
"","ITI","","html-keyboard-response","548","585200","0.0-1.0-756.0","0","0","68979","","null","","","null","83","","","","","","","","","","","","","","","NaN",""
"","S1","","html-keyboard-response","549","585372","0.0-1.0-758.0","0","0","68979","","null","","","null","84","","","","","","","","","","","","","","","",""
"","ISI","","html-keyboard-response","550","587387","0.0-1.0-759.0","0","0","68979","","null","","","null","84","NaN","","","","","","","","","","","","","","",""
"","S2","","html-keyboard-response","551","587554","0.0-1.0-760.0","0","0","68979","","null","","","null","84","","NaN","","","","","","","","","","","","","",""
"","response","","html-keyboard-response","552","588511","0.0-1.0-761.0-0.0","0","0","68979","","941","","","68","84","","","2","84","training","adjacent","ED","5","4","Q.jpg","L.jpg","0","0","1","",""
"","feedback","","html-keyboard-response","553","589533","0.0-1.0-762.0-0.0","0","0","68979","","null","","","null","84","","","","","","","","","","","","","","","",""
"","ITI","","html-keyboard-response","554","590560","0.0-1.0-765.0","0","0","68979","","null","","","null","84","","","","","","","","","","","","","","","NaN",""
"","S1","","html-keyboard-response","555","590722","0.0-1.0-767.0","0","0","68979","","null","","","null","85","","","","","","","","","","","","","","","",""
"","ISI","","html-keyboard-response","556","592733","0.0-1.0-768.0","0","0","68979","","null","","","null","85","NaN","","","","","","","","","","","","","","",""
"","S2","","html-keyboard-response","557","592892","0.0-1.0-769.0","0","0","68979","","null","","","null","85","","NaN","","","","","","","","","","","","","",""
"","response","","html-keyboard-response","558","593539","0.0-1.0-770.0-0.0","0","0","68979","","633","","","75","85","","","2","85","training","adjacent","DE","4","5","L.jpg","Q.jpg","1","1","1","",""
"","feedback","","html-keyboard-response","559","594552","0.0-1.0-771.0-0.0","0","0","68979","","null","","","null","85","","","","","","","","","","","","","","","",""
"","ITI","","html-keyboard-response","560","595567","0.0-1.0-774.0","0","0","68979","","null","","","null","85","","","","","","","","","","","","","","","NaN",""
"","S1","","html-keyboard-response","561","595733","0.0-1.0-776.0","0","0","68979","","null","","","null","86","","","","","","","","","","","","","","","",""
"","ISI","","html-keyboard-response","562","597745","0.0-1.0-777.0","0","0","68979","","null","","","null","86","NaN","","","","","","","","","","","","","","",""
"","S2","","html-keyboard-response","563","597911","0.0-1.0-778.0","0","0","68979","","null","","","null","86","","NaN","","","","","","","","","","","","","",""
"","response","","html-keyboard-response","564","599248","0.0-1.0-779.0-0.0","0","0","68979","","1326","","","75","86","","","2","86","training","adjacent","FG","6","7","O.jpg","P.jpg","1","1","1","",""
"","feedback","","html-keyboard-response","565","600257","0.0-1.0-780.0-0.0","0","0","68979","","null","","","null","86","","","","","","","","","","","","","","","",""
"","ITI","","html-keyboard-response","566","601268","0.0-1.0-783.0","0","0","68979","","null","","","null","86","","","","","","","","","","","","","","","NaN",""
"","S1","","html-keyboard-response","567","601433","0.0-1.0-785.0","0","0","68979","","null","","","null","87","","","","","","","","","","","","","","","",""
"","ISI","","html-keyboard-response","568","603456","0.0-1.0-786.0","0","0","68979","","null","","","null","87","NaN","","","","","","","","","","","","","","",""
"","S2","","html-keyboard-response","569","603616","0.0-1.0-787.0","0","0","68979","","null","","","null","87","","NaN","","","","","","","","","","","","","",""
"","response","","html-keyboard-response","570","604659","0.0-1.0-788.0-0.0","0","0","68979","","1035","","","68","87","","","2","87","training","adjacent","AB","1","2","M.jpg","N.jpg","0","1","0","",""
"","feedback","","html-keyboard-response","571","605672","0.0-1.0-789.0-0.0","0","0","68979","","null","","","null","87","","","","","","","","","","","","","","","",""
"","time_out","","html-keyboard-response","572","607685","0.0-1.0-791.0-0.0","0","0","68979","","null","","","null","87","","","","","","","","","","","","","","","",""
"","ITI","","html-keyboard-response","573","608699","0.0-1.0-792.0","0","0","68979","","null","","","null","87","","","","","","","","","","","","","","","NaN",""
"","S1","","html-keyboard-response","574","608864","0.0-1.0-794.0","0","0","68979","","null","","","null","88","","","","","","","","","","","","","","","",""
"","ISI","","html-keyboard-response","575","610876","0.0-1.0-795.0","0","0","68979","","null","","","null","88","NaN","","","","","","","","","","","","","","",""
"","S2","","html-keyboard-response","576","611039","0.0-1.0-796.0","0","0","68979","","null","","","null","88","","NaN","","","","","","","","","","","","","",""
"","response","","html-keyboard-response","577","611537","0.0-1.0-797.0-0.0","0","0","68979","","486","","","75","88","","","2","88","training","adjacent","BA","2","1","N.jpg","M.jpg","1","0","0","",""
"","feedback","","html-keyboard-response","578","612556","0.0-1.0-798.0-0.0","0","0","68979","","null","","","null","88","","","","","","","","","","","","","","","",""
"","time_out","","html-keyboard-response","579","614569","0.0-1.0-800.0-0.0","0","0","68979","","null","","","null","88","","","","","","","","","","","","","","","",""
"","ITI","","html-keyboard-response","580","615580","0.0-1.0-801.0","0","0","68979","","null","","","null","88","","","","","","","","","","","","","","","NaN",""
"","S1","","html-keyboard-response","581","615743","0.0-1.0-803.0","0","0","68979","","null","","","null","89","","","","","","","","","","","","","","","",""
"","ISI","","html-keyboard-response","582","617756","0.0-1.0-804.0","0","0","68979","","null","","","null","89","NaN","","","","","","","","","","","","","","",""
