"success","ttype","start_time","trial_type","trial_index","time_elapsed","internal_node_id","warning","missed_checkup","PID","view_history","rt","responses","repeat_instructions","key_press","index","keypress_isi","keypress_S2","block","trial_num","phase","group_type","pair_type","S1_stim","S2_stim","S1_img","S2_img","S1_chosen","S1_higher","accuracy","keypress_iti","total_bonus_tally"
"true","full_screen","d04142023hr0056","fullscreen","0","12539","0.0-0.0","0","0","80480","","","","","","","","","","","","","","","","","","","","","",""
"","instructions","","instructions","1","59563","0.0-1.0-0.0-0.0","0","0","80480","[{""page_index"":0,""viewing_time"":18731},{""page_index"":1,""viewing_time"":15332},{""page_index"":2,""viewing_time"":11358},{""page_index"":3,""viewing_time"":1602}]","47023","","","","","","","","","","","","","","","","","","","",""
"","comprehension_check","","survey-multi-choice","2","78677","0.0-1.0-0.0-1.0","0","0","80480","","19111","{""Q0"":""True"",""Q1"":""D"",""Q2"":""Once the second image appears and while the screen 'MAKE A CHOICE' is shown"",""Q3"":""Green mark"",""Q4"":""either D or K""}","0","","","","","","","","","","","","","","","","","",""
"","start_exp","","html-keyboard-response","3","81777","0.0-1.0-1.0","0","0","80480","","3097","","","32","","","","","","","","","","","","","","","","",""
"","S1","","html-keyboard-response","4","82029","0.0-1.0-2.0","0","0","80480","","null","","","null","0","","","","","","","","","","","","","","","",""
"","ISI","","html-keyboard-response","5","83032","0.0-1.0-3.0","0","0","80480","","null","","","null","0","NaN","","","","","","","","","","","","","","",""
"","S2","","html-keyboard-response","6","83285","0.0-1.0-4.0","0","0","80480","","null","","","null","0","","NaN","","","","","","","","","","","","","",""
"","response","","html-keyboard-response","7","84076","0.0-1.0-5.0-0.0","0","0","80480","","790","","","75","0","","","1","0","training","adjacent","CB","3","2","M.jpg","N.jpg","0","0","1","",""
"","feedback","","html-keyboard-response","8","85078","0.0-1.0-6.0-0.0","0","0","80480","","null","","","null","0","","","","","","","","","","","","","","","",""
"","ITI","","html-keyboard-response","9","86080","0.0-1.0-9.0","0","0","80480","","null","","","null","0","","","","","","","","","","","","","","","NaN",""
"","S1","","html-keyboard-response","10","86333","0.0-1.0-11.0","0","0","80480","","null","","","null","1","","","","","","","","","","","","","","","",""
"","ISI","","html-keyboard-response","11","87336","0.0-1.0-12.0","0","0","80480","","null","","","null","1","NaN","","","","","","","","","","","","","","",""
"","S2","","html-keyboard-response","12","87588","0.0-1.0-13.0","0","0","80480","","null","","","null","1","","NaN","","","","","","","","","","","","","",""
"","response","","html-keyboard-response","13","88420","0.0-1.0-14.0-0.0","0","0","80480","","830","","","68","1","","","1","1","training","adjacent","CB","3","2","M.jpg","N.jpg","1","0","0","",""
"","feedback","","html-keyboard-response","14","89422","0.0-1.0-15.0-0.0","0","0","80480","","null","","","null","1","","","","","","","","","","","","","","","",""
"","time_out","","html-keyboard-response","15","91425","0.0-1.0-17.0-0.0","0","0","80480","","null","","","null","1","","","","","","","","","","","","","","","",""
"","ITI","","html-keyboard-response","16","92428","0.0-1.0-18.0","0","0","80480","","null","","","null","1","","","","","","","","","","","","","","","NaN",""
"","S1","","html-keyboard-response","17","92680","0.0-1.0-20.0","0","0","80480","","null","","","null","2","","","","","","","","","","","","","","","",""
"","ISI","","html-keyboard-response","18","93683","0.0-1.0-21.0","0","0","80480","","null","","","null","2","NaN","","","","","","","","","","","","","","",""
"","S2","","html-keyboard-response","19","93936","0.0-1.0-22.0","0","0","80480","","null","","","null","2","","NaN","","","","","","","","","","","","","",""
"","response","","html-keyboard-response","20","94681","0.0-1.0-23.0-0.0","0","0","80480","","744","","","68","2","","","1","2","training","adjacent","CD","3","4","M.jpg","L.jpg","1","1","1","",""
"","feedback","","html-keyboard-response","21","95683","0.0-1.0-24.0-0.0","0","0","80480","","null","","","null","2","","","","","","","","","","","","","","","",""
"","ITI","","html-keyboard-response","22","96685","0.0-1.0-27.0","0","0","80480","","null","","","null","2","","","","","","","","","","","","","","","NaN",""
"","S1","","html-keyboard-response","23","96937","0.0-1.0-29.0","0","0","80480","","null","","","null","3","","","","","","","","","","","","","","","",""
"","ISI","","html-keyboard-response","24","97940","0.0-1.0-30.0","0","0","80480","","null","","","null","3","NaN","","","","","","","","","","","","","","",""
"","S2","","html-keyboard-response","25","98192","0.0-1.0-31.0","0","0","80480","","null","","","null","3","","NaN","","","","","","","","","","","","","",""
"","response","","html-keyboard-response","26","99592","0.0-1.0-32.0-0.0","0","0","80480","","1399","","","68","3","","","1","3","training","adjacent","CD","3","4","M.jpg","L.jpg","1","1","1","",""
"","feedback","","html-keyboard-response","27","100594","0.0-1.0-33.0-0.0","0","0","80480","","null","","","null","3","","","","","","","","","","","","","","","",""
"","ITI","","html-keyboard-response","28","101597","0.0-1.0-36.0","0","0","80480","","null","","","null","3","","","","","","","","","","","","","","","NaN",""
"","S1","","html-keyboard-response","29","101849","0.0-1.0-38.0","0","0","80480","","null","","","null","4","","","","","","","","","","","","","","","",""
"","ISI","","html-keyboard-response","30","102851","0.0-1.0-39.0","0","0","80480","","null","","","null","4","NaN","","","","","","","","","","","","","","",""
"","S2","","html-keyboard-response","31","103103","0.0-1.0-40.0","0","0","80480","","null","","","null","4","","NaN","","","","","","","","","","","","","",""
"","response","","html-keyboard-response","32","104379","0.0-1.0-41.0-0.0","0","0","80480","","1275","","","75","4","","","1","4","training","adjacent","BC","2","3","N.jpg","M.jpg","0","1","0","",""
"","feedback","","html-keyboard-response","33","105382","0.0-1.0-42.0-0.0","0","0","80480","","null","","","null","4","","","","","","","","","","","","","","","",""
"","time_out","","html-keyboard-response","34","107383","0.0-1.0-44.0-0.0","0","0","80480","","null","","","null","4","","","","","","","","","","","","","","","",""
"","ITI","","html-keyboard-response","35","108385","0.0-1.0-45.0","0","0","80480","","null","","","null","4","","","","","","","","","","","","","","","NaN",""
"","S1","","html-keyboard-response","36","108638","0.0-1.0-47.0","0","0","80480","","null","","","null","5","","","","","","","","","","","","","","","",""
"","ISI","","html-keyboard-response","37","109639","0.0-1.0-48.0","0","0","80480","","null","","","null","5","NaN","","","","","","","","","","","","","","",""
"","S2","","html-keyboard-response","38","109892","0.0-1.0-49.0","0","0","80480","","null","","","null","5","","NaN","","","","","","","","","","","","","",""
"","response","","html-keyboard-response","39","111030","0.0-1.0-50.0-0.0","0","0","80480","","1137","","","68","5","","","1","5","training","adjacent","BC","2","3","N.jpg","M.jpg","1","1","1","",""
"","feedback","","html-keyboard-response","40","112033","0.0-1.0-51.0-0.0","0","0","80480","","null","","","null","5","","","","","","","","","","","","","","","",""
"","ITI","","html-keyboard-response","41","113035","0.0-1.0-54.0","0","0","80480","","null","","","null","5","","","","","","","","","","","","","","","NaN",""
"","S1","","html-keyboard-response","42","113287","0.0-1.0-56.0","0","0","80480","","null","","","null","6","","","","","","","","","","","","","","","",""
"","ISI","","html-keyboard-response","43","114289","0.0-1.0-57.0","0","0","80480","","null","","","null","6","NaN","","","","","","","","","","","","","","",""
"","S2","","html-keyboard-response","44","114548","0.0-1.0-58.0","0","0","80480","","null","","","null","6","","NaN","","","","","","","","","","","","","",""
"","response","","html-keyboard-response","45","115721","0.0-1.0-59.0-0.0","0","0","80480","","1171","","","68","6","","","1","6","training","adjacent","FG","6","7","O.jpg","Q.jpg","1","1","1","",""
"","feedback","","html-keyboard-response","46","116724","0.0-1.0-60.0-0.0","0","0","80480","","null","","","null","6","","","","","","","","","","","","","","","",""
"","ITI","","html-keyboard-response","47","117727","0.0-1.0-63.0","0","0","80480","","null","","","null","6","","","","","","","","","","","","","","","NaN",""
"","S1","","html-keyboard-response","48","117979","0.0-1.0-65.0","0","0","80480","","null","","","null","7","","","","","","","","","","","","","","","",""
"","ISI","","html-keyboard-response","49","118981","0.0-1.0-66.0","0","0","80480","","null","","","null","7","NaN","","","","","","","","","","","","","","",""
"","S2","","html-keyboard-response","50","119234","0.0-1.0-67.0","0","0","80480","","null","","","null","7","","NaN","","","","","","","","","","","","","",""
"","response","","html-keyboard-response","51","120220","0.0-1.0-68.0-0.0","0","0","80480","","985","","","68","7","","","1","7","training","adjacent","BA","2","1","N.jpg","R.jpg","1","0","0","",""
"","feedback","","html-keyboard-response","52","121223","0.0-1.0-69.0-0.0","0","0","80480","","null","","","null","7","","","","","","","","","","","","","","","",""
"","time_out","","html-keyboard-response","53","123225","0.0-1.0-71.0-0.0","0","0","80480","","null","","","null","7","","","","","","","","","","","","","","","",""
"","ITI","","html-keyboard-response","54","124226","0.0-1.0-72.0","0","0","80480","","null","","","null","7","","","","","","","","","","","","","","","NaN",""
"","S1","","html-keyboard-response","55","124478","0.0-1.0-74.0","0","0","80480","","null","","","null","8","","","","","","","","","","","","","","","",""
"","ISI","","html-keyboard-response","56","125481","0.0-1.0-75.0","0","0","80480","","null","","","null","8","NaN","","","","","","","","","","","","","","",""
"","S2","","html-keyboard-response","57","125733","0.0-1.0-76.0","0","0","80480","","null","","","null","8","","NaN","","","","","","","","","","","","","",""
"","response","","html-keyboard-response","58","126636","0.0-1.0-77.0-0.0","0","0","80480","","901","","","75","8","","","1","8","training","adjacent","FE","6","5","O.jpg","P.jpg","0","0","1","",""
"","feedback","","html-keyboard-response","59","127638","0.0-1.0-78.0-0.0","0","0","80480","","null","","","null","8","","","","","","","","","","","","","","","",""
"","ITI","","html-keyboard-response","60","128640","0.0-1.0-81.0","0","0","80480","","null","","","null","8","","","","","","","","","","","","","","","NaN",""
"","S1","","html-keyboard-response","61","128893","0.0-1.0-83.0","0","0","80480","","null","","","null","9","","","","","","","","","","","","","","","",""
"","ISI","","html-keyboard-response","62","129895","0.0-1.0-84.0","0","0","80480","","null","","","null","9","NaN","","","","","","","","","","","","","","",""
"","S2","","html-keyboard-response","63","130147","0.0-1.0-85.0","0","0","80480","","null","","","null","9","","NaN","","","","","","","","","","","","","",""
"","response","","html-keyboard-response","64","131101","0.0-1.0-86.0-0.0","0","0","80480","","953","","","75","9","","","1","9","training","adjacent","DC","4","3","L.jpg","M.jpg","0","0","1","",""
"","feedback","","html-keyboard-response","65","132104","0.0-1.0-87.0-0.0","0","0","80480","","null","","","null","9","","","","","","","","","","","","","","","",""
"","ITI","","html-keyboard-response","66","133106","0.0-1.0-90.0","0","0","80480","","null","","","null","9","","","","","","","","","","","","","","","NaN",""
"","S1","","html-keyboard-response","67","133359","0.0-1.0-92.0","0","0","80480","","null","","","null","10","","","","","","","","","","","","","","","",""
"","ISI","","html-keyboard-response","68","134361","0.0-1.0-93.0","0","0","80480","","null","","","null","10","NaN","","","","","","","","","","","","","","",""
"","S2","","html-keyboard-response","69","134613","0.0-1.0-94.0","0","0","80480","","null","","","null","10","","NaN","","","","","","","","","","","","","",""
"","response","","html-keyboard-response","70","135387","0.0-1.0-95.0-0.0","0","0","80480","","772","","","68","10","","","1","10","training","adjacent","BA","2","1","N.jpg","R.jpg","1","0","0","",""
"","feedback","","html-keyboard-response","71","136390","0.0-1.0-96.0-0.0","0","0","80480","","null","","","null","10","","","","","","","","","","","","","","","",""
"","time_out","","html-keyboard-response","72","138392","0.0-1.0-98.0-0.0","0","0","80480","","null","","","null","10","","","","","","","","","","","","","","","",""
"","ITI","","html-keyboard-response","73","139395","0.0-1.0-99.0","0","0","80480","","null","","","null","10","","","","","","","","","","","","","","","NaN",""
"","S1","","html-keyboard-response","74","139647","0.0-1.0-101.0","0","0","80480","","null","","","null","11","","","","","","","","","","","","","","","",""
"","ISI","","html-keyboard-response","75","140649","0.0-1.0-102.0","0","0","80480","","null","","","null","11","NaN","","","","","","","","","","","","","","",""
"","S2","","html-keyboard-response","76","140901","0.0-1.0-103.0","0","0","80480","","null","","","null","11","","NaN","","","","","","","","","","","","","",""
"","response","","html-keyboard-response","77","141568","0.0-1.0-104.0-0.0","0","0","80480","","666","","","75","11","","","1","11","training","adjacent","EF","5","6","P.jpg","O.jpg","0","1","0","",""
"","feedback","","html-keyboard-response","78","142570","0.0-1.0-105.0-0.0","0","0","80480","","null","","","null","11","","","","","","","","","","","","","","","",""
"","time_out","","html-keyboard-response","79","144572","0.0-1.0-107.0-0.0","0","0","80480","","null","","","null","11","","","","","","","","","","","","","","","",""
"","ITI","","html-keyboard-response","80","145574","0.0-1.0-108.0","0","0","80480","","null","","","null","11","","","","","","","","","","","","","","","NaN",""
"","S1","","html-keyboard-response","81","145826","0.0-1.0-110.0","0","0","80480","","null","","","null","12","","","","","","","","","","","","","","","",""
"","ISI","","html-keyboard-response","82","146829","0.0-1.0-111.0","0","0","80480","","null","","","null","12","NaN","","","","","","","","","","","","","","",""
"","S2","","html-keyboard-response","83","147081","0.0-1.0-112.0","0","0","80480","","null","","","null","12","","NaN","","","","","","","","","","","","","",""
"","response","","html-keyboard-response","84","148005","0.0-1.0-113.0-0.0","0","0","80480","","923","","","68","12","","","1","12","training","adjacent","CB","3","2","M.jpg","N.jpg","1","0","0","",""
"","feedback","","html-keyboard-response","85","149007","0.0-1.0-114.0-0.0","0","0","80480","","null","","","null","12","","","","","","","","","","","","","","","",""
"","time_out","","html-keyboard-response","86","151009","0.0-1.0-116.0-0.0","0","0","80480","","null","","","null","12","","","","","","","","","","","","","","","",""
"","ITI","","html-keyboard-response","87","152009","0.0-1.0-117.0","0","0","80480","","null","","","null","12","","","","","","","","","","","","","","","NaN",""
"","S1","","html-keyboard-response","88","152261","0.0-1.0-119.0","0","0","80480","","null","","","null","13","","","","","","","","","","","","","","","",""
"","ISI","","html-keyboard-response","89","153264","0.0-1.0-120.0","0","0","80480","","null","","","null","13","NaN","","","","","","","","","","","","","","",""
"","S2","","html-keyboard-response","90","153516","0.0-1.0-121.0","0","0","80480","","null","","","null","13","","NaN","","","","","","","","","","","","","",""
"","response","","html-keyboard-response","91","154098","0.0-1.0-122.0-0.0","0","0","80480","","580","","","68","13","","","1","13","training","adjacent","AB","1","2","R.jpg","N.jpg","1","1","1","",""
"","feedback","","html-keyboard-response","92","155101","0.0-1.0-123.0-0.0","0","0","80480","","null","","","null","13","","","","","","","","","","","","","","","",""
"","ITI","","html-keyboard-response","93","156103","0.0-1.0-126.0","0","0","80480","","null","","","null","13","","","","","","","","","","","","","","","NaN",""
"","S1","","html-keyboard-response","94","156355","0.0-1.0-128.0","0","0","80480","","null","","","null","14","","","","","","","","","","","","","","","",""
"","ISI","","html-keyboard-response","95","157357","0.0-1.0-129.0","0","0","80480","","null","","","null","14","NaN","","","","","","","","","","","","","","",""
"","S2","","html-keyboard-response","96","157609","0.0-1.0-130.0","0","0","80480","","null","","","null","14","","NaN","","","","","","","","","","","","","",""
"","response","","html-keyboard-response","97","158286","0.0-1.0-131.0-0.0","0","0","80480","","676","","","75","14","","","1","14","training","adjacent","FE","6","5","O.jpg","P.jpg","0","0","1","",""
"","feedback","","html-keyboard-response","98","159288","0.0-1.0-132.0-0.0","0","0","80480","","null","","","null","14","","","","","","","","","","","","","","","",""
"","ITI","","html-keyboard-response","99","160290","0.0-1.0-135.0","0","0","80480","","null","","","null","14","","","","","","","","","","","","","","","NaN",""
"","S1","","html-keyboard-response","100","160542","0.0-1.0-137.0","0","0","80480","","null","","","null","15","","","","","","","","","","","","","","","",""
"","ISI","","html-keyboard-response","101","161545","0.0-1.0-138.0","0","0","80480","","null","","","null","15","NaN","","","","","","","","","","","","","","",""
"","S2","","html-keyboard-response","102","161797","0.0-1.0-139.0","0","0","80480","","null","","","null","15","","NaN","","","","","","","","","","","","","",""
"","response","","html-keyboard-response","103","162488","0.0-1.0-140.0-0.0","0","0","80480","","690","","","68","15","","","1","15","training","adjacent","EF","5","6","P.jpg","O.jpg","1","1","1","",""
"","feedback","","html-keyboard-response","104","163490","0.0-1.0-141.0-0.0","0","0","80480","","null","","","null","15","","","","","","","","","","","","","","","",""
"","ITI","","html-keyboard-response","105","164493","0.0-1.0-144.0","0","0","80480","","null","","","null","15","","","","","","","","","","","","","","","NaN",""
"","S1","","html-keyboard-response","106","164745","0.0-1.0-146.0","0","0","80480","","null","","","null","16","","","","","","","","","","","","","","","",""
"","ISI","","html-keyboard-response","107","165746","0.0-1.0-147.0","0","0","80480","","null","","","null","16","NaN","","","","","","","","","","","","","","",""
"","S2","","html-keyboard-response","108","165999","0.0-1.0-148.0","0","0","80480","","null","","","null","16","","NaN","","","","","","","","","","","","","",""
"","response","","html-keyboard-response","109","166654","0.0-1.0-149.0-0.0","0","0","80480","","654","","","68","16","","","1","16","training","adjacent","EF","5","6","P.jpg","O.jpg","1","1","1","",""
"","feedback","","html-keyboard-response","110","167656","0.0-1.0-150.0-0.0","0","0","80480","","null","","","null","16","","","","","","","","","","","","","","","",""
"","ITI","","html-keyboard-response","111","168664","0.0-1.0-153.0","0","0","80480","","null","","","null","16","","","","","","","","","","","","","","","NaN",""
"","S1","","html-keyboard-response","112","168917","0.0-1.0-155.0","0","0","80480","","null","","","null","17","","","","","","","","","","","","","","","",""
"","ISI","","html-keyboard-response","113","169919","0.0-1.0-156.0","0","0","80480","","null","","","null","17","NaN","","","","","","","","","","","","","","",""
"","S2","","html-keyboard-response","114","170172","0.0-1.0-157.0","0","0","80480","","null","","","null","17","","NaN","","","","","","","","","","","","","",""
"","response","","html-keyboard-response","115","170979","0.0-1.0-158.0-0.0","0","0","80480","","806","","","75","17","","","1","17","training","adjacent","DE","4","5","L.jpg","P.jpg","0","1","0","",""
"","feedback","","html-keyboard-response","116","171982","0.0-1.0-159.0-0.0","0","0","80480","","null","","","null","17","","","","","","","","","","","","","","","",""
"","time_out","","html-keyboard-response","117","173984","0.0-1.0-161.0-0.0","0","0","80480","","null","","","null","17","","","","","","","","","","","","","","","",""
"","ITI","","html-keyboard-response","118","174986","0.0-1.0-162.0","0","0","80480","","null","","","null","17","","","","","","","","","","","","","","","NaN",""
"","S1","","html-keyboard-response","119","175238","0.0-1.0-164.0","0","0","80480","","null","","","null","18","","","","","","","","","","","","","","","",""
"","ISI","","html-keyboard-response","120","176240","0.0-1.0-165.0","0","0","80480","","null","","","null","18","NaN","","","","","","","","","","","","","","",""
"","S2","","html-keyboard-response","121","176493","0.0-1.0-166.0","0","0","80480","","null","","","null","18","","NaN","","","","","","","","","","","","","",""
"","response","","html-keyboard-response","122","177507","0.0-1.0-167.0-0.0","0","0","80480","","1013","","","68","18","","","1","18","training","adjacent","CD","3","4","M.jpg","L.jpg","1","1","1","",""
"","feedback","","html-keyboard-response","123","178509","0.0-1.0-168.0-0.0","0","0","80480","","null","","","null","18","","","","","","","","","","","","","","","",""
"","ITI","","html-keyboard-response","124","179512","0.0-1.0-171.0","0","0","80480","","null","","","null","18","","","","","","","","","","","","","","","NaN",""
"","S1","","html-keyboard-response","125","179764","0.0-1.0-173.0","0","0","80480","","null","","","null","19","","","","","","","","","","","","","","","",""
"","ISI","","html-keyboard-response","126","180766","0.0-1.0-174.0","0","0","80480","","null","","","null","19","NaN","","","","","","","","","","","","","","",""
"","S2","","html-keyboard-response","127","181019","0.0-1.0-175.0","0","0","80480","","null","","","null","19","","NaN","","","","","","","","","","","","","",""
"","response","","html-keyboard-response","128","181408","0.0-1.0-176.0-0.0","0","0","80480","","388","","","75","19","","","1","19","training","adjacent","GF","7","6","Q.jpg","O.jpg","0","0","1","",""
"","feedback","","html-keyboard-response","129","182410","0.0-1.0-177.0-0.0","0","0","80480","","null","","","null","19","","","","","","","","","","","","","","","",""
"","ITI","","html-keyboard-response","130","183414","0.0-1.0-180.0","0","0","80480","","null","","","null","19","","","","","","","","","","","","","","","NaN",""
"","S1","","html-keyboard-response","131","183666","0.0-1.0-182.0","0","0","80480","","null","","","null","20","","","","","","","","","","","","","","","",""
"","ISI","","html-keyboard-response","132","184668","0.0-1.0-183.0","0","0","80480","","null","","","null","20","NaN","","","","","","","","","","","","","","",""
"","S2","","html-keyboard-response","133","184920","0.0-1.0-184.0","0","0","80480","","null","","","null","20","","NaN","","","","","","","","","","","","","",""
"","response","","html-keyboard-response","134","185421","0.0-1.0-185.0-0.0","0","0","80480","","500","","","68","20","","","1","20","training","adjacent","EF","5","6","P.jpg","O.jpg","1","1","1","",""
"","feedback","","html-keyboard-response","135","186424","0.0-1.0-186.0-0.0","0","0","80480","","null","","","null","20","","","","","","","","","","","","","","","",""
"","ITI","","html-keyboard-response","136","187427","0.0-1.0-189.0","0","0","80480","","null","","","null","20","","","","","","","","","","","","","","","NaN",""
"","S1","","html-keyboard-response","137","187679","0.0-1.0-191.0","0","0","80480","","null","","","null","21","","","","","","","","","","","","","","","",""
"","ISI","","html-keyboard-response","138","188681","0.0-1.0-192.0","0","0","80480","","null","","","null","21","NaN","","","","","","","","","","","","","","",""
"","S2","","html-keyboard-response","139","188934","0.0-1.0-193.0","0","0","80480","","null","","","null","21","","NaN","","","","","","","","","","","","","",""
"","response","","html-keyboard-response","140","189388","0.0-1.0-194.0-0.0","0","0","80480","","453","","","75","21","","","1","21","training","adjacent","DC","4","3","L.jpg","M.jpg","0","0","1","",""
"","feedback","","html-keyboard-response","141","190397","0.0-1.0-195.0-0.0","0","0","80480","","null","","","null","21","","","","","","","","","","","","","","","",""
"","ITI","","html-keyboard-response","142","191400","0.0-1.0-198.0","0","0","80480","","null","","","null","21","","","","","","","","","","","","","","","NaN",""
"","S1","","html-keyboard-response","143","191652","0.0-1.0-200.0","0","0","80480","","null","","","null","22","","","","","","","","","","","","","","","",""
"","ISI","","html-keyboard-response","144","192653","0.0-1.0-201.0","0","0","80480","","null","","","null","22","NaN","","","","","","","","","","","","","","",""
"","S2","","html-keyboard-response","145","192906","0.0-1.0-202.0","0","0","80480","","null","","","null","22","","NaN","","","","","","","","","","","","","",""
"","response","","html-keyboard-response","146","194010","0.0-1.0-203.0-0.0","0","0","80480","","1102","","","75","22","","","1","22","training","adjacent","BC","2","3","N.jpg","M.jpg","0","1","0","",""
"","feedback","","html-keyboard-response","147","195012","0.0-1.0-204.0-0.0","0","0","80480","","null","","","null","22","","","","","","","","","","","","","","","",""
"","time_out","","html-keyboard-response","148","197014","0.0-1.0-206.0-0.0","0","0","80480","","null","","","null","22","","","","","","","","","","","","","","","",""
"","ITI","","html-keyboard-response","149","198016","0.0-1.0-207.0","0","0","80480","","null","","","null","22","","","","","","","","","","","","","","","NaN",""
"","S1","","html-keyboard-response","150","198269","0.0-1.0-209.0","0","0","80480","","null","","","null","23","","","","","","","","","","","","","","","",""
"","ISI","","html-keyboard-response","151","199271","0.0-1.0-210.0","0","0","80480","","null","","","null","23","NaN","","","","","","","","","","","","","","",""
"","S2","","html-keyboard-response","152","199523","0.0-1.0-211.0","0","0","80480","","null","","","null","23","","NaN","","","","","","","","","","","","","",""
"","response","","html-keyboard-response","153","200814","0.0-1.0-212.0-0.0","0","0","80480","","1291","","","75","23","","","1","23","training","adjacent","BA","2","1","N.jpg","R.jpg","0","0","1","",""
"","feedback","","html-keyboard-response","154","201817","0.0-1.0-213.0-0.0","0","0","80480","","null","","","null","23","","","","","","","","","","","","","","","",""
"","ITI","","html-keyboard-response","155","202820","0.0-1.0-216.0","0","0","80480","","null","","","null","23","","","","","","","","","","","","","","","NaN",""
"","S1","","html-keyboard-response","156","203072","0.0-1.0-218.0","0","0","80480","","null","","","null","24","","","","","","","","","","","","","","","",""
"","ISI","","html-keyboard-response","157","204075","0.0-1.0-219.0","0","0","80480","","null","","","null","24","NaN","","","","","","","","","","","","","","",""
"","S2","","html-keyboard-response","158","204327","0.0-1.0-220.0","0","0","80480","","null","","","null","24","","NaN","","","","","","","","","","","","","",""
"","response","","html-keyboard-response","159","204838","0.0-1.0-221.0-0.0","0","0","80480","","510","","","75","24","","","1","24","training","adjacent","DC","4","3","L.jpg","M.jpg","0","0","1","",""
"","feedback","","html-keyboard-response","160","205841","0.0-1.0-222.0-0.0","0","0","80480","","null","","","null","24","","","","","","","","","","","","","","","",""
"","ITI","","html-keyboard-response","161","206843","0.0-1.0-225.0","0","0","80480","","null","","","null","24","","","","","","","","","","","","","","","NaN",""
"","S1","","html-keyboard-response","162","207095","0.0-1.0-227.0","0","0","80480","","null","","","null","25","","","","","","","","","","","","","","","",""
"","ISI","","html-keyboard-response","163","208097","0.0-1.0-228.0","0","0","80480","","null","","","null","25","NaN","","","","","","","","","","","","","","",""
"","S2","","html-keyboard-response","164","208349","0.0-1.0-229.0","0","0","80480","","null","","","null","25","","NaN","","","","","","","","","","","","","",""
"","response","","html-keyboard-response","165","208759","0.0-1.0-230.0-0.0","0","0","80480","","408","","","75","25","","","1","25","training","adjacent","BC","2","3","N.jpg","M.jpg","0","1","0","",""
"","feedback","","html-keyboard-response","166","209761","0.0-1.0-231.0-0.0","0","0","80480","","null","","","null","25","","","","","","","","","","","","","","","",""
"","time_out","","html-keyboard-response","167","211762","0.0-1.0-233.0-0.0","0","0","80480","","null","","","null","25","","","","","","","","","","","","","","","",""
"","ITI","","html-keyboard-response","168","212764","0.0-1.0-234.0","0","0","80480","","null","","","null","25","","","","","","","","","","","","","","","NaN",""
"","S1","","html-keyboard-response","169","213016","0.0-1.0-236.0","0","0","80480","","null","","","null","26","","","","","","","","","","","","","","","",""
"","ISI","","html-keyboard-response","170","214018","0.0-1.0-237.0","0","0","80480","","null","","","null","26","NaN","","","","","","","","","","","","","","",""
"","S2","","html-keyboard-response","171","214270","0.0-1.0-238.0","0","0","80480","","null","","","null","26","","NaN","","","","","","","","","","","","","",""
"","response","","html-keyboard-response","172","215053","0.0-1.0-239.0-0.0","0","0","80480","","783","","","68","26","","","1","26","training","adjacent","ED","5","4","P.jpg","L.jpg","1","0","0","",""
"","feedback","","html-keyboard-response","173","216056","0.0-1.0-240.0-0.0","0","0","80480","","null","","","null","26","","","","","","","","","","","","","","","",""
"","time_out","","html-keyboard-response","174","218058","0.0-1.0-242.0-0.0","0","0","80480","","null","","","null","26","","","","","","","","","","","","","","","",""
"","ITI","","html-keyboard-response","175","219061","0.0-1.0-243.0","0","0","80480","","null","","","null","26","","","","","","","","","","","","","","","NaN",""
"","S1","","html-keyboard-response","176","219313","0.0-1.0-245.0","0","0","80480","","null","","","null","27","","","","","","","","","","","","","","","",""
"","ISI","","html-keyboard-response","177","220315","0.0-1.0-246.0","0","0","80480","","null","","","null","27","NaN","","","","","","","","","","","","","","",""
"","S2","","html-keyboard-response","178","220567","0.0-1.0-247.0","0","0","80480","","null","","","null","27","","NaN","","","","","","","","","","","","","",""
"","response","","html-keyboard-response","179","221104","0.0-1.0-248.0-0.0","0","0","80480","","536","","","75","27","","","1","27","training","adjacent","FE","6","5","O.jpg","P.jpg","0","0","1","",""
"","feedback","","html-keyboard-response","180","222107","0.0-1.0-249.0-0.0","0","0","80480","","null","","","null","27","","","","","","","","","","","","","","","",""
"","ITI","","html-keyboard-response","181","223110","0.0-1.0-252.0","0","0","80480","","null","","","null","27","","","","","","","","","","","","","","","NaN",""
"","S1","","html-keyboard-response","182","223362","0.0-1.0-254.0","0","0","80480","","null","","","null","28","","","","","","","","","","","","","","","",""
"","ISI","","html-keyboard-response","183","224364","0.0-1.0-255.0","0","0","80480","","null","","","null","28","NaN","","","","","","","","","","","","","","",""
"","S2","","html-keyboard-response","184","224616","0.0-1.0-256.0","0","0","80480","","null","","","null","28","","NaN","","","","","","","","","","","","","",""
"","response","","html-keyboard-response","185","225178","0.0-1.0-257.0-0.0","0","0","80480","","561","","","75","28","","","1","28","training","adjacent","FG","6","7","O.jpg","Q.jpg","0","1","0","",""
"","feedback","","html-keyboard-response","186","226181","0.0-1.0-258.0-0.0","0","0","80480","","null","","","null","28","","","","","","","","","","","","","","","",""
"","time_out","","html-keyboard-response","187","228182","0.0-1.0-260.0-0.0","0","0","80480","","null","","","null","28","","","","","","","","","","","","","","","",""
"","ITI","","html-keyboard-response","188","229184","0.0-1.0-261.0","0","0","80480","","null","","","null","28","","","","","","","","","","","","","","","NaN",""
"","S1","","html-keyboard-response","189","229437","0.0-1.0-263.0","0","0","80480","","null","","","null","29","","","","","","","","","","","","","","","",""
"","ISI","","html-keyboard-response","190","230440","0.0-1.0-264.0","0","0","80480","","null","","","null","29","NaN","","","","","","","","","","","","","","",""
"","S2","","html-keyboard-response","191","230692","0.0-1.0-265.0","0","0","80480","","null","","","null","29","","NaN","","","","","","","","","","","","","",""
"","response","","html-keyboard-response","192","231161","0.0-1.0-266.0-0.0","0","0","80480","","468","","","75","29","","","1","29","training","adjacent","GF","7","6","Q.jpg","O.jpg","0","0","1","",""
"","feedback","","html-keyboard-response","193","232164","0.0-1.0-267.0-0.0","0","0","80480","","null","","","null","29","","","","","","","","","","","","","","","",""
"","ITI","","html-keyboard-response","194","233166","0.0-1.0-270.0","0","0","80480","","null","","","null","29","","","","","","","","","","","","","","","NaN",""
"","S1","","html-keyboard-response","195","233417","0.0-1.0-272.0","0","0","80480","","null","","","null","30","","","","","","","","","","","","","","","",""
"","ISI","","html-keyboard-response","196","234419","0.0-1.0-273.0","0","0","80480","","null","","","null","30","NaN","","","","","","","","","","","","","","",""
"","S2","","html-keyboard-response","197","234672","0.0-1.0-274.0","0","0","80480","","null","","","null","30","","NaN","","","","","","","","","","","","","",""
"","response","","html-keyboard-response","198","235412","0.0-1.0-275.0-0.0","0","0","80480","","739","","","75","30","","","1","30","training","adjacent","AB","1","2","R.jpg","N.jpg","0","1","0","",""
"","feedback","","html-keyboard-response","199","236414","0.0-1.0-276.0-0.0","0","0","80480","","null","","","null","30","","","","","","","","","","","","","","","",""
"","time_out","","html-keyboard-response","200","238415","0.0-1.0-278.0-0.0","0","0","80480","","null","","","null","30","","","","","","","","","","","","","","","",""
"","ITI","","html-keyboard-response","201","239417","0.0-1.0-279.0","0","0","80480","","null","","","null","30","","","","","","","","","","","","","","","NaN",""
"","S1","","html-keyboard-response","202","239669","0.0-1.0-281.0","0","0","80480","","null","","","null","31","","","","","","","","","","","","","","","",""
"","ISI","","html-keyboard-response","203","240671","0.0-1.0-282.0","0","0","80480","","null","","","null","31","NaN","","","","","","","","","","","","","","",""
"","S2","","html-keyboard-response","204","240923","0.0-1.0-283.0","0","0","80480","","null","","","null","31","","NaN","","","","","","","","","","","","","",""
"","response","","html-keyboard-response","205","241389","0.0-1.0-284.0-0.0","0","0","80480","","465","","","75","31","","","1","31","training","adjacent","DE","4","5","L.jpg","P.jpg","0","1","0","",""
"","feedback","","html-keyboard-response","206","242392","0.0-1.0-285.0-0.0","0","0","80480","","null","","","null","31","","","","","","","","","","","","","","","",""
"","time_out","","html-keyboard-response","207","244394","0.0-1.0-287.0-0.0","0","0","80480","","null","","","null","31","","","","","","","","","","","","","","","",""
"","ITI","","html-keyboard-response","208","245397","0.0-1.0-288.0","0","0","80480","","null","","","null","31","","","","","","","","","","","","","","","NaN",""
"","S1","","html-keyboard-response","209","245649","0.0-1.0-290.0","0","0","80480","","null","","","null","32","","","","","","","","","","","","","","","",""
"","ISI","","html-keyboard-response","210","246651","0.0-1.0-291.0","0","0","80480","","null","","","null","32","NaN","","","","","","","","","","","","","","",""
"","S2","","html-keyboard-response","211","246903","0.0-1.0-292.0","0","0","80480","","null","","","null","32","","NaN","","","","","","","","","","","","","",""
"","response","","html-keyboard-response","212","247397","0.0-1.0-293.0-0.0","0","0","80480","","492","","","68","32","","","1","32","training","adjacent","FG","6","7","O.jpg","Q.jpg","1","1","1","",""
"","feedback","","html-keyboard-response","213","248399","0.0-1.0-294.0-0.0","0","0","80480","","null","","","null","32","","","","","","","","","","","","","","","",""
"","ITI","","html-keyboard-response","214","249401","0.0-1.0-297.0","0","0","80480","","null","","","null","32","","","","","","","","","","","","","","","NaN",""
"","S1","","html-keyboard-response","215","249654","0.0-1.0-299.0","0","0","80480","","null","","","null","33","","","","","","","","","","","","","","","",""
"","ISI","","html-keyboard-response","216","250657","0.0-1.0-300.0","0","0","80480","","null","","","null","33","NaN","","","","","","","","","","","","","","",""
"","S2","","html-keyboard-response","217","250908","0.0-1.0-301.0","0","0","80480","","null","","","null","33","","NaN","","","","","","","","","","","","","",""
"","response","","html-keyboard-response","218","251458","0.0-1.0-302.0-0.0","0","0","80480","","549","","","75","33","","","1","33","training","adjacent","BA","2","1","N.jpg","R.jpg","0","0","1","",""
"","feedback","","html-keyboard-response","219","252460","0.0-1.0-303.0-0.0","0","0","80480","","null","","","null","33","","","","","","","","","","","","","","","",""
"","ITI","","html-keyboard-response","220","253462","0.0-1.0-306.0","0","0","80480","","null","","","null","33","","","","","","","","","","","","","","","NaN",""
"","S1","","html-keyboard-response","221","253714","0.0-1.0-308.0","0","0","80480","","null","","","null","34","","","","","","","","","","","","","","","",""
"","ISI","","html-keyboard-response","222","254716","0.0-1.0-309.0","0","0","80480","","null","","","null","34","NaN","","","","","","","","","","","","","","",""
"","S2","","html-keyboard-response","223","254969","0.0-1.0-310.0","0","0","80480","","null","","","null","34","","NaN","","","","","","","","","","","","","",""
"","response","","html-keyboard-response","224","255632","0.0-1.0-311.0-0.0","0","0","80480","","662","","","75","34","","","1","34","training","adjacent","CD","3","4","M.jpg","L.jpg","0","1","0","",""
"","feedback","","html-keyboard-response","225","256635","0.0-1.0-312.0-0.0","0","0","80480","","null","","","null","34","","","","","","","","","","","","","","","",""
"","time_out","","html-keyboard-response","226","258637","0.0-1.0-314.0-0.0","0","0","80480","","null","","","null","34","","","","","","","","","","","","","","","",""
"","ITI","","html-keyboard-response","227","259639","0.0-1.0-315.0","0","0","80480","","null","","","null","34","","","","","","","","","","","","","","","NaN",""
"","S1","","html-keyboard-response","228","259890","0.0-1.0-317.0","0","0","80480","","null","","","null","35","","","","","","","","","","","","","","","",""
"","ISI","","html-keyboard-response","229","260893","0.0-1.0-318.0","0","0","80480","","null","","","null","35","NaN","","","","","","","","","","","","","","",""
"","S2","","html-keyboard-response","230","261145","0.0-1.0-319.0","0","0","80480","","null","","","null","35","","NaN","","","","","","","","","","","","","",""
"","response","","html-keyboard-response","231","261755","0.0-1.0-320.0-0.0","0","0","80480","","608","","","68","35","","","1","35","training","adjacent","FE","6","5","O.jpg","P.jpg","1","0","0","",""
"","feedback","","html-keyboard-response","232","262771","0.0-1.0-321.0-0.0","0","0","80480","","null","","","null","35","","","","","","","","","","","","","","","",""
"","time_out","","html-keyboard-response","233","264774","0.0-1.0-323.0-0.0","0","0","80480","","null","","","null","35","","","","","","","","","","","","","","","",""
"","ITI","","html-keyboard-response","234","265776","0.0-1.0-324.0","0","0","80480","","null","","","null","35","","","","","","","","","","","","","","","NaN",""
"","S1","","html-keyboard-response","235","266029","0.0-1.0-326.0","0","0","80480","","null","","","null","36","","","","","","","","","","","","","","","",""
"","ISI","","html-keyboard-response","236","267047","0.0-1.0-327.0","0","0","80480","","null","","","null","36","NaN","","","","","","","","","","","","","","",""
"","S2","","html-keyboard-response","237","267300","0.0-1.0-328.0","0","0","80480","","null","","","null","36","","NaN","","","","","","","","","","","","","",""
"","response","","html-keyboard-response","238","267799","0.0-1.0-329.0-0.0","0","0","80480","","498","","","68","36","","","1","36","training","adjacent","ED","5","4","P.jpg","L.jpg","1","0","0","",""
"","feedback","","html-keyboard-response","239","268801","0.0-1.0-330.0-0.0","0","0","80480","","null","","","null","36","","","","","","","","","","","","","","","",""
"","time_out","","html-keyboard-response","240","270804","0.0-1.0-332.0-0.0","0","0","80480","","null","","","null","36","","","","","","","","","","","","","","","",""
"","ITI","","html-keyboard-response","241","271806","0.0-1.0-333.0","0","0","80480","","null","","","null","36","","","","","","","","","","","","","","","NaN",""
"","S1","","html-keyboard-response","242","272059","0.0-1.0-335.0","0","0","80480","","null","","","null","37","","","","","","","","","","","","","","","",""
"","ISI","","html-keyboard-response","243","273061","0.0-1.0-336.0","0","0","80480","","null","","","null","37","NaN","","","","","","","","","","","","","","",""
"","S2","","html-keyboard-response","244","273314","0.0-1.0-337.0","0","0","80480","","null","","","null","37","","NaN","","","","","","","","","","","","","",""
"","response","","html-keyboard-response","245","273941","0.0-1.0-338.0-0.0","0","0","80480","","626","","","68","37","","","1","37","training","adjacent","FG","6","7","O.jpg","Q.jpg","1","1","1","",""
"","feedback","","html-keyboard-response","246","274944","0.0-1.0-339.0-0.0","0","0","80480","","null","","","null","37","","","","","","","","","","","","","","","",""
"","ITI","","html-keyboard-response","247","275946","0.0-1.0-342.0","0","0","80480","","null","","","null","37","","","","","","","","","","","","","","","NaN",""
"","S1","","html-keyboard-response","248","276199","0.0-1.0-344.0","0","0","80480","","null","","","null","38","","","","","","","","","","","","","","","",""
"","ISI","","html-keyboard-response","249","277200","0.0-1.0-345.0","0","0","80480","","null","","","null","38","NaN","","","","","","","","","","","","","","",""
"","S2","","html-keyboard-response","250","277452","0.0-1.0-346.0","0","0","80480","","null","","","null","38","","NaN","","","","","","","","","","","","","",""
"","response","","html-keyboard-response","251","278067","0.0-1.0-347.0-0.0","0","0","80480","","613","","","75","38","","","1","38","training","adjacent","DE","4","5","L.jpg","P.jpg","0","1","0","",""
"","feedback","","html-keyboard-response","252","279069","0.0-1.0-348.0-0.0","0","0","80480","","null","","","null","38","","","","","","","","","","","","","","","",""
"","time_out","","html-keyboard-response","253","281072","0.0-1.0-350.0-0.0","0","0","80480","","null","","","null","38","","","","","","","","","","","","","","","",""
"","ITI","","html-keyboard-response","254","282074","0.0-1.0-351.0","0","0","80480","","null","","","null","38","","","","","","","","","","","","","","","NaN",""
"","S1","","html-keyboard-response","255","282327","0.0-1.0-353.0","0","0","80480","","null","","","null","39","","","","","","","","","","","","","","","",""
"","ISI","","html-keyboard-response","256","283328","0.0-1.0-354.0","0","0","80480","","null","","","null","39","NaN","","","","","","","","","","","","","","",""
"","S2","","html-keyboard-response","257","283580","0.0-1.0-355.0","0","0","80480","","null","","","null","39","","NaN","","","","","","","","","","","","","",""
"","response","","html-keyboard-response","258","284063","0.0-1.0-356.0-0.0","0","0","80480","","481","","","75","39","","","1","39","training","adjacent","DE","4","5","L.jpg","P.jpg","0","1","0","",""
"","feedback","","html-keyboard-response","259","285064","0.0-1.0-357.0-0.0","0","0","80480","","null","","","null","39","","","","","","","","","","","","","","","",""
"","time_out","","html-keyboard-response","260","287067","0.0-1.0-359.0-0.0","0","0","80480","","null","","","null","39","","","","","","","","","","","","","","","",""
"","ITI","","html-keyboard-response","261","288069","0.0-1.0-360.0","0","0","80480","","null","","","null","39","","","","","","","","","","","","","","","NaN",""
"","S1","","html-keyboard-response","262","288322","0.0-1.0-362.0","0","0","80480","","null","","","null","40","","","","","","","","","","","","","","","",""
"","ISI","","html-keyboard-response","263","289324","0.0-1.0-363.0","0","0","80480","","null","","","null","40","NaN","","","","","","","","","","","","","","",""
"","S2","","html-keyboard-response","264","289576","0.0-1.0-364.0","0","0","80480","","null","","","null","40","","NaN","","","","","","","","","","","","","",""
"","response","","html-keyboard-response","265","290018","0.0-1.0-365.0-0.0","0","0","80480","","441","","","75","40","","","1","40","training","adjacent","GF","7","6","Q.jpg","O.jpg","0","0","1","",""
"","feedback","","html-keyboard-response","266","291020","0.0-1.0-366.0-0.0","0","0","80480","","null","","","null","40","","","","","","","","","","","","","","","",""
"","ITI","","html-keyboard-response","267","292024","0.0-1.0-369.0","0","0","80480","","null","","","null","40","","","","","","","","","","","","","","","NaN",""
"","S1","","html-keyboard-response","268","292275","0.0-1.0-371.0","0","0","80480","","null","","","null","41","","","","","","","","","","","","","","","",""
"","ISI","","html-keyboard-response","269","293277","0.0-1.0-372.0","0","0","80480","","null","","","null","41","NaN","","","","","","","","","","","","","","",""
"","S2","","html-keyboard-response","270","293530","0.0-1.0-373.0","0","0","80480","","null","","","null","41","","NaN","","","","","","","","","","","","","",""
"","response","","html-keyboard-response","271","293830","0.0-1.0-374.0-0.0","0","0","80480","","299","","","75","41","","","1","41","training","adjacent","GF","7","6","Q.jpg","O.jpg","0","0","1","",""
"","feedback","","html-keyboard-response","272","294832","0.0-1.0-375.0-0.0","0","0","80480","","null","","","null","41","","","","","","","","","","","","","","","",""
"","ITI","","html-keyboard-response","273","295835","0.0-1.0-378.0","0","0","80480","","null","","","null","41","","","","","","","","","","","","","","","NaN",""
"","S1","","html-keyboard-response","274","296087","0.0-1.0-380.0","0","0","80480","","null","","","null","42","","","","","","","","","","","","","","","",""
"","ISI","","html-keyboard-response","275","297089","0.0-1.0-381.0","0","0","80480","","null","","","null","42","NaN","","","","","","","","","","","","","","",""
"","S2","","html-keyboard-response","276","297342","0.0-1.0-382.0","0","0","80480","","null","","","null","42","","NaN","","","","","","","","","","","","","",""
"","response","","html-keyboard-response","277","297750","0.0-1.0-383.0-0.0","0","0","80480","","407","","","75","42","","","1","42","training","adjacent","DC","4","3","L.jpg","M.jpg","0","0","1","",""
"","feedback","","html-keyboard-response","278","298751","0.0-1.0-384.0-0.0","0","0","80480","","null","","","null","42","","","","","","","","","","","","","","","",""
"","ITI","","html-keyboard-response","279","299753","0.0-1.0-387.0","0","0","80480","","null","","","null","42","","","","","","","","","","","","","","","NaN",""
"","S1","","html-keyboard-response","280","300006","0.0-1.0-389.0","0","0","80480","","null","","","null","43","","","","","","","","","","","","","","","",""
"","ISI","","html-keyboard-response","281","301008","0.0-1.0-390.0","0","0","80480","","null","","","null","43","NaN","","","","","","","","","","","","","","",""
"","S2","","html-keyboard-response","282","301260","0.0-1.0-391.0","0","0","80480","","null","","","null","43","","NaN","","","","","","","","","","","","","",""
"","response","","html-keyboard-response","283","301750","0.0-1.0-392.0-0.0","0","0","80480","","489","","","68","43","","","1","43","training","adjacent","ED","5","4","P.jpg","L.jpg","1","0","0","",""
"","feedback","","html-keyboard-response","284","302752","0.0-1.0-393.0-0.0","0","0","80480","","null","","","null","43","","","","","","","","","","","","","","","",""
"","time_out","","html-keyboard-response","285","304754","0.0-1.0-395.0-0.0","0","0","80480","","null","","","null","43","","","","","","","","","","","","","","","",""
"","ITI","","html-keyboard-response","286","305756","0.0-1.0-396.0","0","0","80480","","null","","","null","43","","","","","","","","","","","","","","","NaN",""
"","S1","","html-keyboard-response","287","306008","0.0-1.0-398.0","0","0","80480","","null","","","null","44","","","","","","","","","","","","","","","",""
"","ISI","","html-keyboard-response","288","307010","0.0-1.0-399.0","0","0","80480","","null","","","null","44","NaN","","","","","","","","","","","","","","",""
"","S2","","html-keyboard-response","289","307262","0.0-1.0-400.0","0","0","80480","","null","","","null","44","","NaN","","","","","","","","","","","","","",""
"","response","","html-keyboard-response","290","308355","0.0-1.0-401.0-0.0","0","0","80480","","1092","","","68","44","","","1","44","training","adjacent","ED","5","4","P.jpg","L.jpg","1","0","0","",""
"","feedback","","html-keyboard-response","291","309357","0.0-1.0-402.0-0.0","0","0","80480","","null","","","null","44","","","","","","","","","","","","","","","",""
"","time_out","","html-keyboard-response","292","311359","0.0-1.0-404.0-0.0","0","0","80480","","null","","","null","44","","","","","","","","","","","","","","","",""
"","ITI","","html-keyboard-response","293","312361","0.0-1.0-405.0","0","0","80480","","null","","","null","44","","","","","","","","","","","","","","","NaN",""
"","S1","","html-keyboard-response","294","312614","0.0-1.0-407.0","0","0","80480","","null","","","null","45","","","","","","","","","","","","","","","",""
"","ISI","","html-keyboard-response","295","313618","0.0-1.0-408.0","0","0","80480","","null","","","null","45","NaN","","","","","","","","","","","","","","",""
"","S2","","html-keyboard-response","296","313870","0.0-1.0-409.0","0","0","80480","","null","","","null","45","","NaN","","","","","","","","","","","","","",""
"","response","","html-keyboard-response","297","314832","0.0-1.0-410.0-0.0","0","0","80480","","960","","","75","45","","","1","45","training","adjacent","AB","1","2","R.jpg","N.jpg","0","1","0","",""
"","feedback","","html-keyboard-response","298","315834","0.0-1.0-411.0-0.0","0","0","80480","","null","","","null","45","","","","","","","","","","","","","","","",""
"","time_out","","html-keyboard-response","299","317836","0.0-1.0-413.0-0.0","0","0","80480","","null","","","null","45","","","","","","","","","","","","","","","",""
"","ITI","","html-keyboard-response","300","318839","0.0-1.0-414.0","0","0","80480","","null","","","null","45","","","","","","","","","","","","","","","NaN",""
"","S1","","html-keyboard-response","301","319092","0.0-1.0-416.0","0","0","80480","","null","","","null","46","","","","","","","","","","","","","","","",""
"","ISI","","html-keyboard-response","302","320093","0.0-1.0-417.0","0","0","80480","","null","","","null","46","NaN","","","","","","","","","","","","","","",""
"","S2","","html-keyboard-response","303","320345","0.0-1.0-418.0","0","0","80480","","null","","","null","46","","NaN","","","","","","","","","","","","","",""
"","response","","html-keyboard-response","304","321352","0.0-1.0-419.0-0.0","0","0","80480","","1005","","","68","46","","","1","46","training","adjacent","CB","3","2","M.jpg","N.jpg","1","0","0","",""
"","feedback","","html-keyboard-response","305","322355","0.0-1.0-420.0-0.0","0","0","80480","","null","","","null","46","","","","","","","","","","","","","","","",""
"","time_out","","html-keyboard-response","306","324357","0.0-1.0-422.0-0.0","0","0","80480","","null","","","null","46","","","","","","","","","","","","","","","",""
"","ITI","","html-keyboard-response","307","325359","0.0-1.0-423.0","0","0","80480","","null","","","null","46","","","","","","","","","","","","","","","NaN",""
"","S1","","html-keyboard-response","308","325612","0.0-1.0-425.0","0","0","80480","","null","","","null","47","","","","","","","","","","","","","","","",""
"","ISI","","html-keyboard-response","309","326614","0.0-1.0-426.0","0","0","80480","","null","","","null","47","NaN","","","","","","","","","","","","","","",""
"","S2","","html-keyboard-response","310","326867","0.0-1.0-427.0","0","0","80480","","null","","","null","47","","NaN","","","","","","","","","","","","","",""
"","response","","html-keyboard-response","311","327611","0.0-1.0-428.0-0.0","0","0","80480","","743","","","68","47","","","1","47","training","adjacent","AB","1","2","R.jpg","N.jpg","1","1","1","",""
"","feedback","","html-keyboard-response","312","328613","0.0-1.0-429.0-0.0","0","0","80480","","null","","","null","47","","","","","","","","","","","","","","","",""
"","ITI","","html-keyboard-response","313","329616","0.0-1.0-432.0","0","0","80480","","null","","","null","47","","","","","","","","","","","","","","","NaN",""
"","block_over","","html-keyboard-response","314","333984","0.0-1.0-433.0-0.0","0","0","80480","","4368","","","32","47","","","","","","","","","","","","","","","",""
"","S1","","html-keyboard-response","315","334237","0.0-1.0-434.0","0","0","80480","","null","","","null","48","","","","","","","","","","","","","","","",""
"","ISI","","html-keyboard-response","316","335239","0.0-1.0-435.0","0","0","80480","","null","","","null","48","NaN","","","","","","","","","","","","","","",""
"","S2","","html-keyboard-response","317","335491","0.0-1.0-436.0","0","0","80480","","null","","","null","48","","NaN","","","","","","","","","","","","","",""
"","response","","html-keyboard-response","318","335804","0.0-1.0-437.0-0.0","0","0","80480","","312","","","75","48","","","2","48","training","adjacent","EF","5","6","P.jpg","O.jpg","0","1","0","",""
"","feedback","","html-keyboard-response","319","336806","0.0-1.0-438.0-0.0","0","0","80480","","null","","","null","48","","","","","","","","","","","","","","","",""
"","time_out","","html-keyboard-response","320","338808","0.0-1.0-440.0-0.0","0","0","80480","","null","","","null","48","","","","","","","","","","","","","","","",""
"","ITI","","html-keyboard-response","321","339810","0.0-1.0-441.0","0","0","80480","","null","","","null","48","","","","","","","","","","","","","","","NaN",""
"","S1","","html-keyboard-response","322","340062","0.0-1.0-443.0","0","0","80480","","null","","","null","49","","","","","","","","","","","","","","","",""
"","ISI","","html-keyboard-response","323","341065","0.0-1.0-444.0","0","0","80480","","null","","","null","49","NaN","","","","","","","","","","","","","","",""
"","S2","","html-keyboard-response","324","341317","0.0-1.0-445.0","0","0","80480","","null","","","null","49","","NaN","","","","","","","","","","","","","",""
"","response","","html-keyboard-response","325","341963","0.0-1.0-446.0-0.0","0","0","80480","","645","","","75","49","","","2","49","training","adjacent","CB","3","2","M.jpg","N.jpg","0","0","1","",""
"","feedback","","html-keyboard-response","326","342966","0.0-1.0-447.0-0.0","0","0","80480","","null","","","null","49","","","","","","","","","","","","","","","",""
"","ITI","","html-keyboard-response","327","343968","0.0-1.0-450.0","0","0","80480","","null","","","null","49","","","","","","","","","","","","","","","NaN",""
"","S1","","html-keyboard-response","328","344221","0.0-1.0-452.0","0","0","80480","","null","","","null","50","","","","","","","","","","","","","","","",""
"","ISI","","html-keyboard-response","329","345223","0.0-1.0-453.0","0","0","80480","","null","","","null","50","NaN","","","","","","","","","","","","","","",""
"","S2","","html-keyboard-response","330","345476","0.0-1.0-454.0","0","0","80480","","null","","","null","50","","NaN","","","","","","","","","","","","","",""
"","response","","html-keyboard-response","331","346016","0.0-1.0-455.0-0.0","0","0","80480","","539","","","68","50","","","2","50","training","adjacent","ED","5","4","P.jpg","L.jpg","1","0","0","",""
"","feedback","","html-keyboard-response","332","347019","0.0-1.0-456.0-0.0","0","0","80480","","null","","","null","50","","","","","","","","","","","","","","","",""
"","time_out","","html-keyboard-response","333","349021","0.0-1.0-458.0-0.0","0","0","80480","","null","","","null","50","","","","","","","","","","","","","","","",""
"","ITI","","html-keyboard-response","334","350022","0.0-1.0-459.0","0","0","80480","","null","","","null","50","","","","","","","","","","","","","","","NaN",""
"","S1","","html-keyboard-response","335","350274","0.0-1.0-461.0","0","0","80480","","null","","","null","51","","","","","","","","","","","","","","","",""
"","ISI","","html-keyboard-response","336","351276","0.0-1.0-462.0","0","0","80480","","null","","","null","51","NaN","","","","","","","","","","","","","","",""
"","S2","","html-keyboard-response","337","351528","0.0-1.0-463.0","0","0","80480","","null","","","null","51","","NaN","","","","","","","","","","","","","",""
"","response","","html-keyboard-response","338","352266","0.0-1.0-464.0-0.0","0","0","80480","","737","","","68","51","","","2","51","training","adjacent","FG","6","7","O.jpg","Q.jpg","1","1","1","",""
"","feedback","","html-keyboard-response","339","353268","0.0-1.0-465.0-0.0","0","0","80480","","null","","","null","51","","","","","","","","","","","","","","","",""
"","ITI","","html-keyboard-response","340","354278","0.0-1.0-468.0","0","0","80480","","null","","","null","51","","","","","","","","","","","","","","","NaN",""
"","S1","","html-keyboard-response","341","354530","0.0-1.0-470.0","0","0","80480","","null","","","null","52","","","","","","","","","","","","","","","",""
"","ISI","","html-keyboard-response","342","355532","0.0-1.0-471.0","0","0","80480","","null","","","null","52","NaN","","","","","","","","","","","","","","",""
"","S2","","html-keyboard-response","343","355784","0.0-1.0-472.0","0","0","80480","","null","","","null","52","","NaN","","","","","","","","","","","","","",""
"","response","","html-keyboard-response","344","356348","0.0-1.0-473.0-0.0","0","0","80480","","562","","","75","52","","","2","52","training","adjacent","AB","1","2","R.jpg","N.jpg","0","1","0","",""
"","feedback","","html-keyboard-response","345","357350","0.0-1.0-474.0-0.0","0","0","80480","","null","","","null","52","","","","","","","","","","","","","","","",""
"","time_out","","html-keyboard-response","346","359364","0.0-1.0-476.0-0.0","0","0","80480","","null","","","null","52","","","","","","","","","","","","","","","",""
"","ITI","","html-keyboard-response","347","360366","0.0-1.0-477.0","0","0","80480","","null","","","null","52","","","","","","","","","","","","","","","NaN",""
"","S1","","html-keyboard-response","348","360619","0.0-1.0-479.0","0","0","80480","","null","","","null","53","","","","","","","","","","","","","","","",""
"","ISI","","html-keyboard-response","349","361621","0.0-1.0-480.0","0","0","80480","","null","","","null","53","NaN","","","","","","","","","","","","","","",""
"","S2","","html-keyboard-response","350","361874","0.0-1.0-481.0","0","0","80480","","null","","","null","53","","NaN","","","","","","","","","","","","","",""
"","response","","html-keyboard-response","351","362305","0.0-1.0-482.0-0.0","0","0","80480","","430","","","68","53","","","2","53","training","adjacent","AB","1","2","R.jpg","N.jpg","1","1","1","",""
"","feedback","","html-keyboard-response","352","363308","0.0-1.0-483.0-0.0","0","0","80480","","null","","","null","53","","","","","","","","","","","","","","","",""
"","ITI","","html-keyboard-response","353","364310","0.0-1.0-486.0","0","0","80480","","null","","","null","53","","","","","","","","","","","","","","","NaN",""
"","S1","","html-keyboard-response","354","364562","0.0-1.0-488.0","0","0","80480","","null","","","null","54","","","","","","","","","","","","","","","",""
"","ISI","","html-keyboard-response","355","365564","0.0-1.0-489.0","0","0","80480","","null","","","null","54","NaN","","","","","","","","","","","","","","",""
"","S2","","html-keyboard-response","356","365817","0.0-1.0-490.0","0","0","80480","","null","","","null","54","","NaN","","","","","","","","","","","","","",""
"","response","","html-keyboard-response","357","366268","0.0-1.0-491.0-0.0","0","0","80480","","450","","","68","54","","","2","54","training","adjacent","CB","3","2","M.jpg","N.jpg","1","0","0","",""
"","feedback","","html-keyboard-response","358","367270","0.0-1.0-492.0-0.0","0","0","80480","","null","","","null","54","","","","","","","","","","","","","","","",""
"","time_out","","html-keyboard-response","359","369272","0.0-1.0-494.0-0.0","0","0","80480","","null","","","null","54","","","","","","","","","","","","","","","",""
"","ITI","","html-keyboard-response","360","370274","0.0-1.0-495.0","0","0","80480","","null","","","null","54","","","","","","","","","","","","","","","NaN",""
"","S1","","html-keyboard-response","361","370527","0.0-1.0-497.0","0","0","80480","","null","","","null","55","","","","","","","","","","","","","","","",""
"","ISI","","html-keyboard-response","362","371529","0.0-1.0-498.0","0","0","80480","","null","","","null","55","NaN","","","","","","","","","","","","","","",""
"","S2","","html-keyboard-response","363","371786","0.0-1.0-499.0","0","0","80480","","null","","","null","55","","NaN","","","","","","","","","","","","","",""
"","response","","html-keyboard-response","364","372276","0.0-1.0-500.0-0.0","0","0","80480","","489","","","75","55","","","2","55","training","adjacent","DE","4","5","L.jpg","P.jpg","0","1","0","",""
"","feedback","","html-keyboard-response","365","373278","0.0-1.0-501.0-0.0","0","0","80480","","null","","","null","55","","","","","","","","","","","","","","","",""
"","time_out","","html-keyboard-response","366","375280","0.0-1.0-503.0-0.0","0","0","80480","","null","","","null","55","","","","","","","","","","","","","","","",""
"","ITI","","html-keyboard-response","367","376282","0.0-1.0-504.0","0","0","80480","","null","","","null","55","","","","","","","","","","","","","","","NaN",""
"","S1","","html-keyboard-response","368","376534","0.0-1.0-506.0","0","0","80480","","null","","","null","56","","","","","","","","","","","","","","","",""
"","ISI","","html-keyboard-response","369","377536","0.0-1.0-507.0","0","0","80480","","null","","","null","56","NaN","","","","","","","","","","","","","","",""
"","S2","","html-keyboard-response","370","377789","0.0-1.0-508.0","0","0","80480","","null","","","null","56","","NaN","","","","","","","","","","","","","",""
"","response","","html-keyboard-response","371","378419","0.0-1.0-509.0-0.0","0","0","80480","","630","","","68","56","","","2","56","training","adjacent","FG","6","7","O.jpg","Q.jpg","1","1","1","",""
"","feedback","","html-keyboard-response","372","379422","0.0-1.0-510.0-0.0","0","0","80480","","null","","","null","56","","","","","","","","","","","","","","","",""
"","ITI","","html-keyboard-response","373","380424","0.0-1.0-513.0","0","0","80480","","null","","","null","56","","","","","","","","","","","","","","","NaN",""
"","S1","","html-keyboard-response","374","380677","0.0-1.0-515.0","0","0","80480","","null","","","null","57","","","","","","","","","","","","","","","",""
"","ISI","","html-keyboard-response","375","381679","0.0-1.0-516.0","0","0","80480","","null","","","null","57","NaN","","","","","","","","","","","","","","",""
"","S2","","html-keyboard-response","376","381932","0.0-1.0-517.0","0","0","80480","","null","","","null","57","","NaN","","","","","","","","","","","","","",""
"","response","","html-keyboard-response","377","382616","0.0-1.0-518.0-0.0","0","0","80480","","683","","","68","57","","","2","57","training","adjacent","ED","5","4","P.jpg","L.jpg","1","0","0","",""
"","feedback","","html-keyboard-response","378","383619","0.0-1.0-519.0-0.0","0","0","80480","","null","","","null","57","","","","","","","","","","","","","","","",""
"","time_out","","html-keyboard-response","379","385620","0.0-1.0-521.0-0.0","0","0","80480","","null","","","null","57","","","","","","","","","","","","","","","",""
"","ITI","","html-keyboard-response","380","386622","0.0-1.0-522.0","0","0","80480","","null","","","null","57","","","","","","","","","","","","","","","NaN",""
"","S1","","html-keyboard-response","381","386874","0.0-1.0-524.0","0","0","80480","","null","","","null","58","","","","","","","","","","","","","","","",""
"","ISI","","html-keyboard-response","382","387876","0.0-1.0-525.0","0","0","80480","","null","","","null","58","NaN","","","","","","","","","","","","","","",""
"","S2","","html-keyboard-response","383","388128","0.0-1.0-526.0","0","0","80480","","null","","","null","58","","NaN","","","","","","","","","","","","","",""
"","response","","html-keyboard-response","384","388608","0.0-1.0-527.0-0.0","0","0","80480","","479","","","75","58","","","2","58","training","adjacent","GF","7","6","Q.jpg","O.jpg","0","0","1","",""
"","feedback","","html-keyboard-response","385","389611","0.0-1.0-528.0-0.0","0","0","80480","","null","","","null","58","","","","","","","","","","","","","","","",""
"","ITI","","html-keyboard-response","386","390613","0.0-1.0-531.0","0","0","80480","","null","","","null","58","","","","","","","","","","","","","","","NaN",""
"","S1","","html-keyboard-response","387","390866","0.0-1.0-533.0","0","0","80480","","null","","","null","59","","","","","","","","","","","","","","","",""
"","ISI","","html-keyboard-response","388","391869","0.0-1.0-534.0","0","0","80480","","null","","","null","59","NaN","","","","","","","","","","","","","","",""
"","S2","","html-keyboard-response","389","392121","0.0-1.0-535.0","0","0","80480","","null","","","null","59","","NaN","","","","","","","","","","","","","",""
"","response","","html-keyboard-response","390","393026","0.0-1.0-536.0-0.0","0","0","80480","","904","","","68","59","","","2","59","training","adjacent","ED","5","4","P.jpg","L.jpg","1","0","0","",""
"","feedback","","html-keyboard-response","391","394029","0.0-1.0-537.0-0.0","0","0","80480","","null","","","null","59","","","","","","","","","","","","","","","",""
"","time_out","","html-keyboard-response","392","396031","0.0-1.0-539.0-0.0","0","0","80480","","null","","","null","59","","","","","","","","","","","","","","","",""
"","ITI","","html-keyboard-response","393","397032","0.0-1.0-540.0","0","0","80480","","null","","","null","59","","","","","","","","","","","","","","","NaN",""
"","S1","","html-keyboard-response","394","397287","0.0-1.0-542.0","0","0","80480","","null","","","null","60","","","","","","","","","","","","","","","",""
"","ISI","","html-keyboard-response","395","398289","0.0-1.0-543.0","0","0","80480","","null","","","null","60","NaN","","","","","","","","","","","","","","",""
"","S2","","html-keyboard-response","396","398541","0.0-1.0-544.0","0","0","80480","","null","","","null","60","","NaN","","","","","","","","","","","","","",""
"","response","","html-keyboard-response","397","399159","0.0-1.0-545.0-0.0","0","0","80480","","617","","","75","60","","","2","60","training","adjacent","DC","4","3","L.jpg","M.jpg","0","0","1","",""
"","feedback","","html-keyboard-response","398","400162","0.0-1.0-546.0-0.0","0","0","80480","","null","","","null","60","","","","","","","","","","","","","","","",""
"","ITI","","html-keyboard-response","399","401164","0.0-1.0-549.0","0","0","80480","","null","","","null","60","","","","","","","","","","","","","","","NaN",""
"","S1","","html-keyboard-response","400","401415","0.0-1.0-551.0","0","0","80480","","null","","","null","61","","","","","","","","","","","","","","","",""
"","ISI","","html-keyboard-response","401","402418","0.0-1.0-552.0","0","0","80480","","null","","","null","61","NaN","","","","","","","","","","","","","","",""
"","S2","","html-keyboard-response","402","402671","0.0-1.0-553.0","0","0","80480","","null","","","null","61","","NaN","","","","","","","","","","","","","",""
"","response","","html-keyboard-response","403","403499","0.0-1.0-554.0-0.0","0","0","80480","","826","","","68","61","","","2","61","training","adjacent","FE","6","5","O.jpg","P.jpg","1","0","0","",""
"","feedback","","html-keyboard-response","404","404501","0.0-1.0-555.0-0.0","0","0","80480","","null","","","null","61","","","","","","","","","","","","","","","",""
"","time_out","","html-keyboard-response","405","406502","0.0-1.0-557.0-0.0","0","0","80480","","null","","","null","61","","","","","","","","","","","","","","","",""
"","ITI","","html-keyboard-response","406","407504","0.0-1.0-558.0","0","0","80480","","null","","","null","61","","","","","","","","","","","","","","","NaN",""
"","S1","","html-keyboard-response","407","407757","0.0-1.0-560.0","0","0","80480","","null","","","null","62","","","","","","","","","","","","","","","",""
"","ISI","","html-keyboard-response","408","408760","0.0-1.0-561.0","0","0","80480","","null","","","null","62","NaN","","","","","","","","","","","","","","",""
"","S2","","html-keyboard-response","409","409012","0.0-1.0-562.0","0","0","80480","","null","","","null","62","","NaN","","","","","","","","","","","","","",""
"","response","","html-keyboard-response","410","409675","0.0-1.0-563.0-0.0","0","0","80480","","662","","","75","62","","","2","62","training","adjacent","BC","2","3","N.jpg","M.jpg","0","1","0","",""
"","feedback","","html-keyboard-response","411","410678","0.0-1.0-564.0-0.0","0","0","80480","","null","","","null","62","","","","","","","","","","","","","","","",""
"","time_out","","html-keyboard-response","412","412679","0.0-1.0-566.0-0.0","0","0","80480","","null","","","null","62","","","","","","","","","","","","","","","",""
"","ITI","","html-keyboard-response","413","413682","0.0-1.0-567.0","0","0","80480","","null","","","null","62","","","","","","","","","","","","","","","NaN",""
"","S1","","html-keyboard-response","414","413935","0.0-1.0-569.0","0","0","80480","","null","","","null","63","","","","","","","","","","","","","","","",""
"","ISI","","html-keyboard-response","415","414937","0.0-1.0-570.0","0","0","80480","","null","","","null","63","NaN","","","","","","","","","","","","","","",""
"","S2","","html-keyboard-response","416","415190","0.0-1.0-571.0","0","0","80480","","null","","","null","63","","NaN","","","","","","","","","","","","","",""
"","response","","html-keyboard-response","417","415775","0.0-1.0-572.0-0.0","0","0","80480","","584","","","75","63","","","2","63","training","adjacent","FE","6","5","O.jpg","P.jpg","0","0","1","",""
"","feedback","","html-keyboard-response","418","416777","0.0-1.0-573.0-0.0","0","0","80480","","null","","","null","63","","","","","","","","","","","","","","","",""
"","ITI","","html-keyboard-response","419","417779","0.0-1.0-576.0","0","0","80480","","null","","","null","63","","","","","","","","","","","","","","","NaN",""
"","S1","","html-keyboard-response","420","418030","0.0-1.0-578.0","0","0","80480","","null","","","null","64","","","","","","","","","","","","","","","",""
"","ISI","","html-keyboard-response","421","419033","0.0-1.0-579.0","0","0","80480","","null","","","null","64","NaN","","","","","","","","","","","","","","",""
"","S2","","html-keyboard-response","422","419299","0.0-1.0-580.0","0","0","80480","","null","","","null","64","","NaN","","","","","","","","","","","","","",""
"","response","","html-keyboard-response","423","420292","0.0-1.0-581.0-0.0","0","0","80480","","992","","","75","64","","","2","64","training","adjacent","ED","5","4","P.jpg","L.jpg","0","0","1","",""
"","feedback","","html-keyboard-response","424","421294","0.0-1.0-582.0-0.0","0","0","80480","","null","","","null","64","","","","","","","","","","","","","","","",""
"","ITI","","html-keyboard-response","425","422296","0.0-1.0-585.0","0","0","80480","","null","","","null","64","","","","","","","","","","","","","","","NaN",""
"","S1","","html-keyboard-response","426","422549","0.0-1.0-587.0","0","0","80480","","null","","","null","65","","","","","","","","","","","","","","","",""
"","ISI","","html-keyboard-response","427","423551","0.0-1.0-588.0","0","0","80480","","null","","","null","65","NaN","","","","","","","","","","","","","","",""
"","S2","","html-keyboard-response","428","423804","0.0-1.0-589.0","0","0","80480","","null","","","null","65","","NaN","","","","","","","","","","","","","",""
"","response","","html-keyboard-response","429","424355","0.0-1.0-590.0-0.0","0","0","80480","","549","","","75","65","","","2","65","training","adjacent","GF","7","6","Q.jpg","O.jpg","0","0","1","",""
"","feedback","","html-keyboard-response","430","425357","0.0-1.0-591.0-0.0","0","0","80480","","null","","","null","65","","","","","","","","","","","","","","","",""
"","ITI","","html-keyboard-response","431","426360","0.0-1.0-594.0","0","0","80480","","null","","","null","65","","","","","","","","","","","","","","","NaN",""
"","S1","","html-keyboard-response","432","426613","0.0-1.0-596.0","0","0","80480","","null","","","null","66","","","","","","","","","","","","","","","",""
"","ISI","","html-keyboard-response","433","427615","0.0-1.0-597.0","0","0","80480","","null","","","null","66","NaN","","","","","","","","","","","","","","",""
"","S2","","html-keyboard-response","434","427868","0.0-1.0-598.0","0","0","80480","","null","","","null","66","","NaN","","","","","","","","","","","","","",""
"","response","","html-keyboard-response","435","428951","0.0-1.0-599.0-0.0","0","0","80480","","1083","","","75","66","","","2","66","training","adjacent","CB","3","2","M.jpg","N.jpg","0","0","1","",""
"","feedback","","html-keyboard-response","436","429954","0.0-1.0-600.0-0.0","0","0","80480","","null","","","null","66","","","","","","","","","","","","","","","",""
"","ITI","","html-keyboard-response","437","430956","0.0-1.0-603.0","0","0","80480","","null","","","null","66","","","","","","","","","","","","","","","NaN",""
"","S1","","html-keyboard-response","438","431209","0.0-1.0-605.0","0","0","80480","","null","","","null","67","","","","","","","","","","","","","","","",""
"","ISI","","html-keyboard-response","439","432212","0.0-1.0-606.0","0","0","80480","","null","","","null","67","NaN","","","","","","","","","","","","","","",""
"","S2","","html-keyboard-response","440","432464","0.0-1.0-607.0","0","0","80480","","null","","","null","67","","NaN","","","","","","","","","","","","","",""
"","response","","html-keyboard-response","441","433176","0.0-1.0-608.0-0.0","0","0","80480","","710","","","68","67","","","2","67","training","adjacent","BA","2","1","N.jpg","R.jpg","1","0","0","",""
"","feedback","","html-keyboard-response","442","434177","0.0-1.0-609.0-0.0","0","0","80480","","null","","","null","67","","","","","","","","","","","","","","","",""
"","time_out","","html-keyboard-response","443","436180","0.0-1.0-611.0-0.0","0","0","80480","","null","","","null","67","","","","","","","","","","","","","","","",""
"","ITI","","html-keyboard-response","444","437182","0.0-1.0-612.0","0","0","80480","","null","","","null","67","","","","","","","","","","","","","","","NaN",""
"","S1","","html-keyboard-response","445","437435","0.0-1.0-614.0","0","0","80480","","null","","","null","68","","","","","","","","","","","","","","","",""
"","ISI","","html-keyboard-response","446","438437","0.0-1.0-615.0","0","0","80480","","null","","","null","68","NaN","","","","","","","","","","","","","","",""
"","S2","","html-keyboard-response","447","438690","0.0-1.0-616.0","0","0","80480","","null","","","null","68","","NaN","","","","","","","","","","","","","",""
"","response","","html-keyboard-response","448","439670","0.0-1.0-617.0-0.0","0","0","80480","","979","","","68","68","","","2","68","training","adjacent","CD","3","4","M.jpg","L.jpg","1","1","1","",""
"","feedback","","html-keyboard-response","449","440672","0.0-1.0-618.0-0.0","0","0","80480","","null","","","null","68","","","","","","","","","","","","","","","",""
"","ITI","","html-keyboard-response","450","441675","0.0-1.0-621.0","0","0","80480","","null","","","null","68","","","","","","","","","","","","","","","NaN",""
"","S1","","html-keyboard-response","451","441927","0.0-1.0-623.0","0","0","80480","","null","","","null","69","","","","","","","","","","","","","","","",""
"","ISI","","html-keyboard-response","452","442930","0.0-1.0-624.0","0","0","80480","","null","","","null","69","NaN","","","","","","","","","","","","","","",""
"","S2","","html-keyboard-response","453","443182","0.0-1.0-625.0","0","0","80480","","null","","","null","69","","NaN","","","","","","","","","","","","","",""
"","response","","html-keyboard-response","454","444621","0.0-1.0-626.0-0.0","0","0","80480","","1438","","","68","69","","","2","69","training","adjacent","BC","2","3","N.jpg","M.jpg","1","1","1","",""
"","feedback","","html-keyboard-response","455","445622","0.0-1.0-627.0-0.0","0","0","80480","","null","","","null","69","","","","","","","","","","","","","","","",""
"","ITI","","html-keyboard-response","456","446639","0.0-1.0-630.0","0","0","80480","","null","","","null","69","","","","","","","","","","","","","","","NaN",""
"","S1","","html-keyboard-response","457","446892","0.0-1.0-632.0","0","0","80480","","null","","","null","70","","","","","","","","","","","","","","","",""
"","ISI","","html-keyboard-response","458","447895","0.0-1.0-633.0","0","0","80480","","null","","","null","70","NaN","","","","","","","","","","","","","","",""
"","S2","","html-keyboard-response","459","448147","0.0-1.0-634.0","0","0","80480","","null","","","null","70","","NaN","","","","","","","","","","","","","",""
"","response","","html-keyboard-response","460","448636","0.0-1.0-635.0-0.0","0","0","80480","","488","","","75","70","","","2","70","training","adjacent","DC","4","3","L.jpg","M.jpg","0","0","1","",""
"","feedback","","html-keyboard-response","461","449639","0.0-1.0-636.0-0.0","0","0","80480","","null","","","null","70","","","","","","","","","","","","","","","",""
"","ITI","","html-keyboard-response","462","450641","0.0-1.0-639.0","0","0","80480","","null","","","null","70","","","","","","","","","","","","","","","NaN",""
"","S1","","html-keyboard-response","463","450905","0.0-1.0-641.0","0","0","80480","","null","","","null","71","","","","","","","","","","","","","","","",""
"","ISI","","html-keyboard-response","464","451907","0.0-1.0-642.0","0","0","80480","","null","","","null","71","NaN","","","","","","","","","","","","","","",""
"","S2","","html-keyboard-response","465","452160","0.0-1.0-643.0","0","0","80480","","null","","","null","71","","NaN","","","","","","","","","","","","","",""
"","response","","html-keyboard-response","466","452913","0.0-1.0-644.0-0.0","0","0","80480","","751","","","68","71","","","2","71","training","adjacent","FG","6","7","O.jpg","Q.jpg","1","1","1","",""
"","feedback","","html-keyboard-response","467","453915","0.0-1.0-645.0-0.0","0","0","80480","","null","","","null","71","","","","","","","","","","","","","","","",""
"","ITI","","html-keyboard-response","468","454916","0.0-1.0-648.0","0","0","80480","","null","","","null","71","","","","","","","","","","","","","","","NaN",""
"","S1","","html-keyboard-response","469","455169","0.0-1.0-650.0","0","0","80480","","null","","","null","72","","","","","","","","","","","","","","","",""
"","ISI","","html-keyboard-response","470","456171","0.0-1.0-651.0","0","0","80480","","null","","","null","72","NaN","","","","","","","","","","","","","","",""
"","S2","","html-keyboard-response","471","456423","0.0-1.0-652.0","0","0","80480","","null","","","null","72","","NaN","","","","","","","","","","","","","",""
"","response","","html-keyboard-response","472","456903","0.0-1.0-653.0-0.0","0","0","80480","","478","","","75","72","","","2","72","training","adjacent","CB","3","2","M.jpg","N.jpg","0","0","1","",""
"","feedback","","html-keyboard-response","473","457905","0.0-1.0-654.0-0.0","0","0","80480","","null","","","null","72","","","","","","","","","","","","","","","",""
"","ITI","","html-keyboard-response","474","458908","0.0-1.0-657.0","0","0","80480","","null","","","null","72","","","","","","","","","","","","","","","NaN",""
"","S1","","html-keyboard-response","475","459160","0.0-1.0-659.0","0","0","80480","","null","","","null","73","","","","","","","","","","","","","","","",""
"","ISI","","html-keyboard-response","476","460163","0.0-1.0-660.0","0","0","80480","","null","","","null","73","NaN","","","","","","","","","","","","","","",""
"","S2","","html-keyboard-response","477","460415","0.0-1.0-661.0","0","0","80480","","null","","","null","73","","NaN","","","","","","","","","","","","","",""
"","response","","html-keyboard-response","478","461818","0.0-1.0-662.0-0.0","0","0","80480","","1401","","","68","73","","","2","73","training","adjacent","CD","3","4","M.jpg","L.jpg","1","1","1","",""
"","feedback","","html-keyboard-response","479","462820","0.0-1.0-663.0-0.0","0","0","80480","","null","","","null","73","","","","","","","","","","","","","","","",""
"","ITI","","html-keyboard-response","480","463822","0.0-1.0-666.0","0","0","80480","","null","","","null","73","","","","","","","","","","","","","","","NaN",""
"","S1","","html-keyboard-response","481","464074","0.0-1.0-668.0","0","0","80480","","null","","","null","74","","","","","","","","","","","","","","","",""
"","ISI","","html-keyboard-response","482","465077","0.0-1.0-669.0","0","0","80480","","null","","","null","74","NaN","","","","","","","","","","","","","","",""
"","S2","","html-keyboard-response","483","465329","0.0-1.0-670.0","0","0","80480","","null","","","null","74","","NaN","","","","","","","","","","","","","",""
"","response","","html-keyboard-response","484","466236","0.0-1.0-671.0-0.0","0","0","80480","","906","","","75","74","","","2","74","training","adjacent","DE","4","5","L.jpg","P.jpg","0","1","0","",""
"","feedback","","html-keyboard-response","485","467239","0.0-1.0-672.0-0.0","0","0","80480","","null","","","null","74","","","","","","","","","","","","","","","",""
"","time_out","","html-keyboard-response","486","469240","0.0-1.0-674.0-0.0","0","0","80480","","null","","","null","74","","","","","","","","","","","","","","","",""
"","ITI","","html-keyboard-response","487","470243","0.0-1.0-675.0","0","0","80480","","null","","","null","74","","","","","","","","","","","","","","","NaN",""
"","S1","","html-keyboard-response","488","470495","0.0-1.0-677.0","0","0","80480","","null","","","null","75","","","","","","","","","","","","","","","",""
"","ISI","","html-keyboard-response","489","471497","0.0-1.0-678.0","0","0","80480","","null","","","null","75","NaN","","","","","","","","","","","","","","",""
"","S2","","html-keyboard-response","490","471749","0.0-1.0-679.0","0","0","80480","","null","","","null","75","","NaN","","","","","","","","","","","","","",""
"","response","","html-keyboard-response","491","472838","0.0-1.0-680.0-0.0","0","0","80480","","1088","","","68","75","","","2","75","training","adjacent","BC","2","3","N.jpg","M.jpg","1","1","1","",""
"","feedback","","html-keyboard-response","492","473841","0.0-1.0-681.0-0.0","0","0","80480","","null","","","null","75","","","","","","","","","","","","","","","",""
"","ITI","","html-keyboard-response","493","474843","0.0-1.0-684.0","0","0","80480","","null","","","null","75","","","","","","","","","","","","","","","NaN",""
"","S1","","html-keyboard-response","494","475096","0.0-1.0-686.0","0","0","80480","","null","","","null","76","","","","","","","","","","","","","","","",""
"","ISI","","html-keyboard-response","495","476097","0.0-1.0-687.0","0","0","80480","","null","","","null","76","NaN","","","","","","","","","","","","","","",""
"","S2","","html-keyboard-response","496","476350","0.0-1.0-688.0","0","0","80480","","null","","","null","76","","NaN","","","","","","","","","","","","","",""
"","response","","html-keyboard-response","497","477500","0.0-1.0-689.0-0.0","0","0","80480","","1149","","","68","76","","","2","76","training","adjacent","CD","3","4","M.jpg","L.jpg","1","1","1","",""
"","feedback","","html-keyboard-response","498","478503","0.0-1.0-690.0-0.0","0","0","80480","","null","","","null","76","","","","","","","","","","","","","","","",""
"","ITI","","html-keyboard-response","499","479505","0.0-1.0-693.0","0","0","80480","","null","","","null","76","","","","","","","","","","","","","","","NaN",""
"","S1","","html-keyboard-response","500","479757","0.0-1.0-695.0","0","0","80480","","null","","","null","77","","","","","","","","","","","","","","","",""
"","ISI","","html-keyboard-response","501","480760","0.0-1.0-696.0","0","0","80480","","null","","","null","77","NaN","","","","","","","","","","","","","","",""
"","S2","","html-keyboard-response","502","481012","0.0-1.0-697.0","0","0","80480","","null","","","null","77","","NaN","","","","","","","","","","","","","",""
"","response","","html-keyboard-response","503","481866","0.0-1.0-698.0-0.0","0","0","80480","","853","","","68","77","","","2","77","training","adjacent","EF","5","6","P.jpg","O.jpg","1","1","1","",""
"","feedback","","html-keyboard-response","504","482869","0.0-1.0-699.0-0.0","0","0","80480","","null","","","null","77","","","","","","","","","","","","","","","",""
"","ITI","","html-keyboard-response","505","483871","0.0-1.0-702.0","0","0","80480","","null","","","null","77","","","","","","","","","","","","","","","NaN",""
"","S1","","html-keyboard-response","506","484124","0.0-1.0-704.0","0","0","80480","","null","","","null","78","","","","","","","","","","","","","","","",""
"","ISI","","html-keyboard-response","507","485126","0.0-1.0-705.0","0","0","80480","","null","","","null","78","NaN","","","","","","","","","","","","","","",""
"","S2","","html-keyboard-response","508","485378","0.0-1.0-706.0","0","0","80480","","null","","","null","78","","NaN","","","","","","","","","","","","","",""
"","response","","html-keyboard-response","509","485875","0.0-1.0-707.0-0.0","0","0","80480","","495","","","68","78","","","2","78","training","adjacent","EF","5","6","P.jpg","O.jpg","1","1","1","",""
"","feedback","","html-keyboard-response","510","486876","0.0-1.0-708.0-0.0","0","0","80480","","null","","","null","78","","","","","","","","","","","","","","","",""
"","ITI","","html-keyboard-response","511","487878","0.0-1.0-711.0","0","0","80480","","null","","","null","78","","","","","","","","","","","","","","","NaN",""
"","S1","","html-keyboard-response","512","488131","0.0-1.0-713.0","0","0","80480","","null","","","null","79","","","","","","","","","","","","","","","",""
"","ISI","","html-keyboard-response","513","489134","0.0-1.0-714.0","0","0","80480","","null","","","null","79","NaN","","","","","","","","","","","","","","",""
"","S2","","html-keyboard-response","514","489386","0.0-1.0-715.0","0","0","80480","","null","","","null","79","","NaN","","","","","","","","","","","","","",""
"","response","","html-keyboard-response","515","489731","0.0-1.0-716.0-0.0","0","0","80480","","344","","","68","79","","","2","79","training","adjacent","EF","5","6","P.jpg","O.jpg","1","1","1","",""
"","feedback","","html-keyboard-response","516","490733","0.0-1.0-717.0-0.0","0","0","80480","","null","","","null","79","","","","","","","","","","","","","","","",""
"","ITI","","html-keyboard-response","517","491735","0.0-1.0-720.0","0","0","80480","","null","","","null","79","","","","","","","","","","","","","","","NaN",""
"","S1","","html-keyboard-response","518","491988","0.0-1.0-722.0","0","0","80480","","null","","","null","80","","","","","","","","","","","","","","","",""
"","ISI","","html-keyboard-response","519","492991","0.0-1.0-723.0","0","0","80480","","null","","","null","80","NaN","","","","","","","","","","","","","","",""
"","S2","","html-keyboard-response","520","493243","0.0-1.0-724.0","0","0","80480","","null","","","null","80","","NaN","","","","","","","","","","","","","",""
"","response","","html-keyboard-response","521","493856","0.0-1.0-725.0-0.0","0","0","80480","","611","","","75","80","","","2","80","training","adjacent","BA","2","1","N.jpg","R.jpg","0","0","1","",""
"","feedback","","html-keyboard-response","522","494858","0.0-1.0-726.0-0.0","0","0","80480","","null","","","null","80","","","","","","","","","","","","","","","",""
"","ITI","","html-keyboard-response","523","495860","0.0-1.0-729.0","0","0","80480","","null","","","null","80","","","","","","","","","","","","","","","NaN",""
"","S1","","html-keyboard-response","524","496112","0.0-1.0-731.0","0","0","80480","","null","","","null","81","","","","","","","","","","","","","","","",""
"","ISI","","html-keyboard-response","525","497115","0.0-1.0-732.0","0","0","80480","","null","","","null","81","NaN","","","","","","","","","","","","","","",""
"","S2","","html-keyboard-response","526","497367","0.0-1.0-733.0","0","0","80480","","null","","","null","81","","NaN","","","","","","","","","","","","","",""
"","response","","html-keyboard-response","527","498480","0.0-1.0-734.0-0.0","0","0","80480","","1112","","","75","81","","","2","81","training","adjacent","DC","4","3","L.jpg","M.jpg","0","0","1","",""
"","feedback","","html-keyboard-response","528","499483","0.0-1.0-735.0-0.0","0","0","80480","","null","","","null","81","","","","","","","","","","","","","","","",""
"","ITI","","html-keyboard-response","529","500485","0.0-1.0-738.0","0","0","80480","","null","","","null","81","","","","","","","","","","","","","","","NaN",""
"","S1","","html-keyboard-response","530","500738","0.0-1.0-740.0","0","0","80480","","null","","","null","82","","","","","","","","","","","","","","","",""
"","ISI","","html-keyboard-response","531","501741","0.0-1.0-741.0","0","0","80480","","null","","","null","82","NaN","","","","","","","","","","","","","","",""
"","S2","","html-keyboard-response","532","501994","0.0-1.0-742.0","0","0","80480","","null","","","null","82","","NaN","","","","","","","","","","","","","",""
"","response","","html-keyboard-response","533","502867","0.0-1.0-743.0-0.0","0","0","80480","","872","","","68","82","","","2","82","training","adjacent","BC","2","3","N.jpg","M.jpg","1","1","1","",""
"","feedback","","html-keyboard-response","534","503870","0.0-1.0-744.0-0.0","0","0","80480","","null","","","null","82","","","","","","","","","","","","","","","",""
"","ITI","","html-keyboard-response","535","504872","0.0-1.0-747.0","0","0","80480","","null","","","null","82","","","","","","","","","","","","","","","NaN",""
"","S1","","html-keyboard-response","536","505124","0.0-1.0-749.0","0","0","80480","","null","","","null","83","","","","","","","","","","","","","","","",""
"","ISI","","html-keyboard-response","537","506127","0.0-1.0-750.0","0","0","80480","","null","","","null","83","NaN","","","","","","","","","","","","","","",""
"","S2","","html-keyboard-response","538","506382","0.0-1.0-751.0","0","0","80480","","null","","","null","83","","NaN","","","","","","","","","","","","","",""
"","response","","html-keyboard-response","539","506989","0.0-1.0-752.0-0.0","0","0","80480","","604","","","75","83","","","2","83","training","adjacent","BA","2","1","N.jpg","R.jpg","0","0","1","",""
"","feedback","","html-keyboard-response","540","507991","0.0-1.0-753.0-0.0","0","0","80480","","null","","","null","83","","","","","","","","","","","","","","","",""
"","ITI","","html-keyboard-response","541","508993","0.0-1.0-756.0","0","0","80480","","null","","","null","83","","","","","","","","","","","","","","","NaN",""
"","S1","","html-keyboard-response","542","509246","0.0-1.0-758.0","0","0","80480","","null","","","null","84","","","","","","","","","","","","","","","",""
"","ISI","","html-keyboard-response","543","510248","0.0-1.0-759.0","0","0","80480","","null","","","null","84","NaN","","","","","","","","","","","","","","",""
"","S2","","html-keyboard-response","544","510500","0.0-1.0-760.0","0","0","80480","","null","","","null","84","","NaN","","","","","","","","","","","","","",""
"","response","","html-keyboard-response","545","511122","0.0-1.0-761.0-0.0","0","0","80480","","620","","","68","84","","","2","84","training","adjacent","FG","6","7","O.jpg","Q.jpg","1","1","1","",""
"","feedback","","html-keyboard-response","546","512139","0.0-1.0-762.0-0.0","0","0","80480","","null","","","null","84","","","","","","","","","","","","","","","",""
"","ITI","","html-keyboard-response","547","513141","0.0-1.0-765.0","0","0","80480","","null","","","null","84","","","","","","","","","","","","","","","NaN",""
"","S1","","html-keyboard-response","548","513394","0.0-1.0-767.0","0","0","80480","","null","","","null","85","","","","","","","","","","","","","","","",""
"","ISI","","html-keyboard-response","549","514396","0.0-1.0-768.0","0","0","80480","","null","","","null","85","NaN","","","","","","","","","","","","","","",""
"","S2","","html-keyboard-response","550","514649","0.0-1.0-769.0","0","0","80480","","null","","","null","85","","NaN","","","","","","","","","","","","","",""
"","response","","html-keyboard-response","551","515019","0.0-1.0-770.0-0.0","0","0","80480","","369","","","75","85","","","2","85","training","adjacent","GF","7","6","Q.jpg","O.jpg","0","0","1","",""
"","feedback","","html-keyboard-response","552","516021","0.0-1.0-771.0-0.0","0","0","80480","","null","","","null","85","","","","","","","","","","","","","","","",""
"","ITI","","html-keyboard-response","553","517023","0.0-1.0-774.0","0","0","80480","","null","","","null","85","","","","","","","","","","","","","","","NaN",""
"","S1","","html-keyboard-response","554","517275","0.0-1.0-776.0","0","0","80480","","null","","","null","86","","","","","","","","","","","","","","","",""
"","ISI","","html-keyboard-response","555","518279","0.0-1.0-777.0","0","0","80480","","null","","","null","86","NaN","","","","","","","","","","","","","","",""
"","S2","","html-keyboard-response","556","518531","0.0-1.0-778.0","0","0","80480","","null","","","null","86","","NaN","","","","","","","","","","","","","",""
"","response","","html-keyboard-response","557","519049","0.0-1.0-779.0-0.0","0","0","80480","","517","","","75","86","","","2","86","training","adjacent","FE","6","5","O.jpg","P.jpg","0","0","1","",""
"","feedback","","html-keyboard-response","558","520052","0.0-1.0-780.0-0.0","0","0","80480","","null","","","null","86","","","","","","","","","","","","","","","",""
"","ITI","","html-keyboard-response","559","521055","0.0-1.0-783.0","0","0","80480","","null","","","null","86","","","","","","","","","","","","","","","NaN",""
"","S1","","html-keyboard-response","560","521307","0.0-1.0-785.0","0","0","80480","","null","","","null","87","","","","","","","","","","","","","","","",""
"","ISI","","html-keyboard-response","561","522308","0.0-1.0-786.0","0","0","80480","","null","","","null","87","NaN","","","","","","","","","","","","","","",""
"","S2","","html-keyboard-response","562","522561","0.0-1.0-787.0","0","0","80480","","null","","","null","87","","NaN","","","","","","","","","","","","","",""
"","response","","html-keyboard-response","563","522924","0.0-1.0-788.0-0.0","0","0","80480","","362","","","68","87","","","2","87","training","adjacent","AB","1","2","R.jpg","N.jpg","1","1","1","",""
"","feedback","","html-keyboard-response","564","523927","0.0-1.0-789.0-0.0","0","0","80480","","null","","","null","87","","","","","","","","","","","","","","","",""
"","ITI","","html-keyboard-response","565","524930","0.0-1.0-792.0","0","0","80480","","null","","","null","87","","","","","","","","","","","","","","","NaN",""
"","S1","","html-keyboard-response","566","525182","0.0-1.0-794.0","0","0","80480","","null","","","null","88","","","","","","","","","","","","","","","",""
"","ISI","","html-keyboard-response","567","526185","0.0-1.0-795.0","0","0","80480","","null","","","null","88","NaN","","","","","","","","","","","","","","",""
"","S2","","html-keyboard-response","568","526438","0.0-1.0-796.0","0","0","80480","","null","","","null","88","","NaN","","","","","","","","","","","","","",""
"","response","","html-keyboard-response","569","526864","0.0-1.0-797.0-0.0","0","0","80480","","425","","","68","88","","","2","88","training","adjacent","AB","1","2","R.jpg","N.jpg","1","1","1","",""
"","feedback","","html-keyboard-response","570","527867","0.0-1.0-798.0-0.0","0","0","80480","","null","","","null","88","","","","","","","","","","","","","","","",""
"","ITI","","html-keyboard-response","571","528869","0.0-1.0-801.0","0","0","80480","","null","","","null","88","","","","","","","","","","","","","","","NaN",""
"","S1","","html-keyboard-response","572","529128","0.0-1.0-803.0","0","0","80480","","null","","","null","89","","","","","","","","","","","","","","","",""
"","ISI","","html-keyboard-response","573","530130","0.0-1.0-804.0","0","0","80480","","null","","","null","89","NaN","","","","","","","","","","","","","","",""
"","S2","","html-keyboard-response","574","530382","0.0-1.0-805.0","0","0","80480","","null","","","null","89","","NaN","","","","","","","","","","","","","",""
"","response","","html-keyboard-response","575","530832","0.0-1.0-806.0-0.0","0","0","80480","","448","","","75","89","","","2","89","training","adjacent","BA","2","1","N.jpg","R.jpg","0","0","1","",""
"","feedback","","html-keyboard-response","576","531835","0.0-1.0-807.0-0.0","0","0","80480","","null","","","null","89","","","","","","","","","","","","","","","",""
"","ITI","","html-keyboard-response","577","532836","0.0-1.0-810.0","0","0","80480","","null","","","null","89","","","","","","","","","","","","","","","NaN",""
"","S1","","html-keyboard-response","578","533089","0.0-1.0-812.0","0","0","80480","","null","","","null","90","","","","","","","","","","","","","","","",""
"","ISI","","html-keyboard-response","579","534091","0.0-1.0-813.0","0","0","80480","","null","","","null","90","NaN","","","","","","","","","","","","","","",""
"","S2","","html-keyboard-response","580","534343","0.0-1.0-814.0","0","0","80480","","null","","","null","90","","NaN","","","","","","","","","","","","","",""
"","response","","html-keyboard-response","581","535178","0.0-1.0-815.0-0.0","0","0","80480","","834","","","75","90","","","2","90","training","adjacent","DE","4","5","L.jpg","P.jpg","0","1","0","",""
"","feedback","","html-keyboard-response","582","536180","0.0-1.0-816.0-0.0","0","0","80480","","null","","","null","90","","","","","","","","","","","","","","","",""
