"success","ttype","start_time","trial_type","trial_index","time_elapsed","internal_node_id","warning","missed_checkup","PID","view_history","rt","responses","repeat_instructions","key_press","index","keypress_isi","keypress_S2","block","trial_num","phase","group_type","pair_type","S1_stim","S2_stim","S1_img","S2_img","S1_chosen","S1_higher","accuracy","keypress_iti","total_bonus_tally"
"true","full_screen","d04132023hr1506","fullscreen","0","338912","0.0-0.0","0","0","82750","","","","","","","","","","","","","","","","","","","","","",""
"","instructions","","instructions","1","407637","0.0-1.0-0.0-0.0","0","0","82750","[{""page_index"":0,""viewing_time"":35991},{""page_index"":1,""viewing_time"":21611},{""page_index"":2,""viewing_time"":8431},{""page_index"":3,""viewing_time"":2674}]","68709","","","","","","","","","","","","","","","","","","","",""
"","comprehension_check","","survey-multi-choice","2","441351","0.0-1.0-0.0-1.0","0","0","82750","","33682","{""Q0"":""True"",""Q1"":""K"",""Q2"":""Once the second image appears and while the screen 'MAKE A CHOICE' is shown"",""Q3"":""Green mark"",""Q4"":""either D or K""}","1","","","","","","","","","","","","","","","","","",""
"","missed_instruction_checkup","","html-keyboard-response","3","448226","0.0-1.0-0.0-2.0-0.0","0","1","82750","","6849","","","32","","","","","","","","","","","","","","","","",""
"","instructions","","instructions","4","522966","0.0-1.0-0.1-0.1","0","0","82750","[{""page_index"":0,""viewing_time"":61780},{""page_index"":1,""viewing_time"":8981},{""page_index"":2,""viewing_time"":1313},{""page_index"":3,""viewing_time"":2652}]","74728","","","","","","","","","","","","","","","","","","","",""
"","comprehension_check","","survey-multi-choice","5","537858","0.0-1.0-0.1-1.1","0","0","82750","","14872","{""Q0"":""True"",""Q1"":""D"",""Q2"":""Once the second image appears and while the screen 'MAKE A CHOICE' is shown"",""Q3"":""Green mark"",""Q4"":""either D or K""}","0","","","","","","","","","","","","","","","","","",""
"","start_exp","","html-keyboard-response","6","540561","0.0-1.0-1.0","0","0","82750","","2686","","","32","","","","","","","","","","","","","","","","",""
"","S1","","html-keyboard-response","7","540828","0.0-1.0-2.0","0","0","82750","","null","","","null","0","","","","","","","","","","","","","","","",""
"","ISI","","html-keyboard-response","8","541840","0.0-1.0-3.0","0","0","82750","","null","","","null","0","NaN","","","","","","","","","","","","","","",""
"","S2","","html-keyboard-response","9","542104","0.0-1.0-4.0","0","0","82750","","null","","","null","0","","NaN","","","","","","","","","","","","","",""
"","response","","html-keyboard-response","10","543866","0.0-1.0-5.0-0.0","0","0","82750","","null","","","null","0","","","1","0","training","adjacent","CB","3","2","Q.jpg","P.jpg","NaN","0","0","",""
"","too_slow_prompt","","html-keyboard-response","11","544882","0.0-1.0-7.0-0.0","1","0","82750","","null","","","null","","","","","","","","","","","","","","","","",""
"","time_out","","html-keyboard-response","12","546898","0.0-1.0-8.0-0.0","0","0","82750","","null","","","null","0","","","","","","","","","","","","","","","",""
"","ITI","","html-keyboard-response","13","547912","0.0-1.0-9.0","0","0","82750","","null","","","null","0","","","","","","","","","","","","","","","NaN",""
"","S1","","html-keyboard-response","14","548173","0.0-1.0-11.0","0","0","82750","","null","","","null","1","","","","","","","","","","","","","","","",""
"","ISI","","html-keyboard-response","15","549185","0.0-1.0-12.0","0","0","82750","","685","","","75","1","k","","","","","","","","","","","","","","",""
"","S2","","html-keyboard-response","16","549471","0.0-1.0-13.0","0","0","82750","","null","","","null","1","","NaN","","","","","","","","","","","","","",""
"","response","","html-keyboard-response","17","551009","0.0-1.0-14.0-0.0","0","0","82750","","1524","","","68","1","","","1","1","training","adjacent","AB","1","2","N.jpg","P.jpg","1","1","1","",""
"","feedback","","html-keyboard-response","18","552024","0.0-1.0-15.0-0.0","0","0","82750","","null","","","null","1","","","","","","","","","","","","","","","",""
"","ITI","","html-keyboard-response","19","553037","0.0-1.0-18.0","0","0","82750","","null","","","null","1","","","","","","","","","","","","","","","NaN",""
"","S1","","html-keyboard-response","20","553297","0.0-1.0-20.0","0","0","82750","","null","","","null","2","","","","","","","","","","","","","","","",""
"","ISI","","html-keyboard-response","21","554308","0.0-1.0-21.0","0","0","82750","","null","","","null","2","NaN","","","","","","","","","","","","","","",""
"","S2","","html-keyboard-response","22","554570","0.0-1.0-22.0","0","0","82750","","null","","","null","2","","NaN","","","","","","","","","","","","","",""
"","response","","html-keyboard-response","23","554764","0.0-1.0-23.0-0.0","0","0","82750","","184","","","68","2","","","1","2","training","adjacent","EF","5","6","R.jpg","M.jpg","1","1","1","",""
"","feedback","","html-keyboard-response","24","555780","0.0-1.0-24.0-0.0","0","0","82750","","null","","","null","2","","","","","","","","","","","","","","","",""
"","ITI","","html-keyboard-response","25","556794","0.0-1.0-27.0","0","0","82750","","null","","","null","2","","","","","","","","","","","","","","","NaN",""
"","S1","","html-keyboard-response","26","557058","0.0-1.0-29.0","0","0","82750","","null","","","null","3","","","","","","","","","","","","","","","",""
"","ISI","","html-keyboard-response","27","558072","0.0-1.0-30.0","0","0","82750","","null","","","null","3","NaN","","","","","","","","","","","","","","",""
"","S2","","html-keyboard-response","28","558336","0.0-1.0-31.0","0","0","82750","","null","","","null","3","","NaN","","","","","","","","","","","","","",""
"","response","","html-keyboard-response","29","559341","0.0-1.0-32.0-0.0","0","0","82750","","992","","","68","3","","","1","3","training","adjacent","CD","3","4","Q.jpg","L.jpg","1","1","1","",""
"","feedback","","html-keyboard-response","30","560360","0.0-1.0-33.0-0.0","0","0","82750","","null","","","null","3","","","","","","","","","","","","","","","",""
"","ITI","","html-keyboard-response","31","561373","0.0-1.0-36.0","0","0","82750","","null","","","null","3","","","","","","","","","","","","","","","NaN",""
"","S1","","html-keyboard-response","32","561637","0.0-1.0-38.0","0","0","82750","","null","","","null","4","","","","","","","","","","","","","","","",""
"","ISI","","html-keyboard-response","33","562646","0.0-1.0-39.0","0","0","82750","","null","","","null","4","NaN","","","","","","","","","","","","","","",""
"","S2","","html-keyboard-response","34","562904","0.0-1.0-40.0","0","0","82750","","null","","","null","4","","NaN","","","","","","","","","","","","","",""
"","response","","html-keyboard-response","35","563860","0.0-1.0-41.0-0.0","0","0","82750","","945","","","68","4","","","1","4","training","adjacent","FG","6","7","M.jpg","O.jpg","1","1","1","",""
"","feedback","","html-keyboard-response","36","564879","0.0-1.0-42.0-0.0","0","0","82750","","null","","","null","4","","","","","","","","","","","","","","","",""
"","ITI","","html-keyboard-response","37","565892","0.0-1.0-45.0","0","0","82750","","null","","","null","4","","","","","","","","","","","","","","","NaN",""
"","S1","","html-keyboard-response","38","566157","0.0-1.0-47.0","0","0","82750","","null","","","null","5","","","","","","","","","","","","","","","",""
"","ISI","","html-keyboard-response","39","567170","0.0-1.0-48.0","0","0","82750","","null","","","null","5","NaN","","","","","","","","","","","","","","",""
"","S2","","html-keyboard-response","40","567434","0.0-1.0-49.0","0","0","82750","","null","","","null","5","","NaN","","","","","","","","","","","","","",""
"","response","","html-keyboard-response","41","568358","0.0-1.0-50.0-0.0","0","0","82750","","910","","","68","5","","","1","5","training","adjacent","EF","5","6","R.jpg","M.jpg","1","1","1","",""
"","feedback","","html-keyboard-response","42","569372","0.0-1.0-51.0-0.0","0","0","82750","","null","","","null","5","","","","","","","","","","","","","","","",""
"","ITI","","html-keyboard-response","43","570385","0.0-1.0-54.0","0","0","82750","","null","","","null","5","","","","","","","","","","","","","","","NaN",""
"","S1","","html-keyboard-response","44","570658","0.0-1.0-56.0","0","0","82750","","null","","","null","6","","","","","","","","","","","","","","","",""
"","ISI","","html-keyboard-response","45","571668","0.0-1.0-57.0","0","0","82750","","null","","","null","6","NaN","","","","","","","","","","","","","","",""
"","S2","","html-keyboard-response","46","571930","0.0-1.0-58.0","0","0","82750","","null","","","null","6","","NaN","","","","","","","","","","","","","",""
"","response","","html-keyboard-response","47","572588","0.0-1.0-59.0-0.0","0","0","82750","","645","","","68","6","","","1","6","training","adjacent","FE","6","5","M.jpg","R.jpg","1","0","0","",""
"","feedback","","html-keyboard-response","48","573602","0.0-1.0-60.0-0.0","0","0","82750","","null","","","null","6","","","","","","","","","","","","","","","",""
"","time_out","","html-keyboard-response","49","575613","0.0-1.0-62.0-0.0","0","0","82750","","null","","","null","6","","","","","","","","","","","","","","","",""
"","ITI","","html-keyboard-response","50","576630","0.0-1.0-63.0","0","0","82750","","null","","","null","6","","","","","","","","","","","","","","","NaN",""
"","S1","","html-keyboard-response","51","576894","0.0-1.0-65.0","0","0","82750","","null","","","null","7","","","","","","","","","","","","","","","",""
"","ISI","","html-keyboard-response","52","577905","0.0-1.0-66.0","0","0","82750","","null","","","null","7","NaN","","","","","","","","","","","","","","",""
"","S2","","html-keyboard-response","53","578171","0.0-1.0-67.0","0","0","82750","","null","","","null","7","","NaN","","","","","","","","","","","","","",""
"","response","","html-keyboard-response","54","578810","0.0-1.0-68.0-0.0","0","0","82750","","626","","","75","7","","","1","7","training","adjacent","DE","4","5","L.jpg","R.jpg","0","1","0","",""
"","feedback","","html-keyboard-response","55","579823","0.0-1.0-69.0-0.0","0","0","82750","","null","","","null","7","","","","","","","","","","","","","","","",""
"","time_out","","html-keyboard-response","56","581838","0.0-1.0-71.0-0.0","0","0","82750","","null","","","null","7","","","","","","","","","","","","","","","",""
"","ITI","","html-keyboard-response","57","582850","0.0-1.0-72.0","0","0","82750","","null","","","null","7","","","","","","","","","","","","","","","NaN",""
"","S1","","html-keyboard-response","58","583117","0.0-1.0-74.0","0","0","82750","","null","","","null","8","","","","","","","","","","","","","","","",""
"","ISI","","html-keyboard-response","59","584130","0.0-1.0-75.0","0","0","82750","","null","","","null","8","NaN","","","","","","","","","","","","","","",""
"","S2","","html-keyboard-response","60","584395","0.0-1.0-76.0","0","0","82750","","null","","","null","8","","NaN","","","","","","","","","","","","","",""
"","response","","html-keyboard-response","61","585271","0.0-1.0-77.0-0.0","0","0","82750","","859","","","68","8","","","1","8","training","adjacent","BA","2","1","P.jpg","N.jpg","1","0","0","",""
"","feedback","","html-keyboard-response","62","586285","0.0-1.0-78.0-0.0","0","0","82750","","null","","","null","8","","","","","","","","","","","","","","","",""
"","time_out","","html-keyboard-response","63","588298","0.0-1.0-80.0-0.0","0","0","82750","","null","","","null","8","","","","","","","","","","","","","","","",""
"","ITI","","html-keyboard-response","64","589312","0.0-1.0-81.0","0","0","82750","","null","","","null","8","","","","","","","","","","","","","","","NaN",""
"","S1","","html-keyboard-response","65","589576","0.0-1.0-83.0","0","0","82750","","null","","","null","9","","","","","","","","","","","","","","","",""
"","ISI","","html-keyboard-response","66","590597","0.0-1.0-84.0","0","0","82750","","null","","","null","9","NaN","","","","","","","","","","","","","","",""
"","S2","","html-keyboard-response","67","590863","0.0-1.0-85.0","0","0","82750","","null","","","null","9","","NaN","","","","","","","","","","","","","",""
"","response","","html-keyboard-response","68","591666","0.0-1.0-86.0-0.0","0","0","82750","","791","","","75","9","","","1","9","training","adjacent","EF","5","6","R.jpg","M.jpg","0","1","0","",""
"","feedback","","html-keyboard-response","69","592681","0.0-1.0-87.0-0.0","0","0","82750","","null","","","null","9","","","","","","","","","","","","","","","",""
"","time_out","","html-keyboard-response","70","594694","0.0-1.0-89.0-0.0","0","0","82750","","null","","","null","9","","","","","","","","","","","","","","","",""
"","ITI","","html-keyboard-response","71","595707","0.0-1.0-90.0","0","0","82750","","null","","","null","9","","","","","","","","","","","","","","","NaN",""
"","S1","","html-keyboard-response","72","595971","0.0-1.0-92.0","0","0","82750","","null","","","null","10","","","","","","","","","","","","","","","",""
"","ISI","","html-keyboard-response","73","596983","0.0-1.0-93.0","0","0","82750","","663","","","68","10","d","","","","","","","","","","","","","","",""
"","S2","","html-keyboard-response","74","597248","0.0-1.0-94.0","0","0","82750","","null","","","null","10","","NaN","","","","","","","","","","","","","",""
"","response","","html-keyboard-response","75","597859","0.0-1.0-95.0-0.0","0","0","82750","","601","","","68","10","","","1","10","training","adjacent","AB","1","2","N.jpg","P.jpg","1","1","1","",""
"","feedback","","html-keyboard-response","76","598873","0.0-1.0-96.0-0.0","0","0","82750","","null","","","null","10","","","","","","","","","","","","","","","",""
"","ITI","","html-keyboard-response","77","599886","0.0-1.0-99.0","0","0","82750","","null","","","null","10","","","","","","","","","","","","","","","NaN",""
"","S1","","html-keyboard-response","78","600150","0.0-1.0-101.0","0","0","82750","","null","","","null","11","","","","","","","","","","","","","","","",""
"","ISI","","html-keyboard-response","79","601163","0.0-1.0-102.0","0","0","82750","","null","","","null","11","NaN","","","","","","","","","","","","","","",""
"","S2","","html-keyboard-response","80","601429","0.0-1.0-103.0","0","0","82750","","null","","","null","11","","NaN","","","","","","","","","","","","","",""
"","response","","html-keyboard-response","81","602208","0.0-1.0-104.0-0.0","0","0","82750","","766","","","68","11","","","1","11","training","adjacent","BC","2","3","P.jpg","Q.jpg","1","1","1","",""
"","feedback","","html-keyboard-response","82","603220","0.0-1.0-105.0-0.0","0","0","82750","","null","","","null","11","","","","","","","","","","","","","","","",""
"","ITI","","html-keyboard-response","83","604234","0.0-1.0-108.0","0","0","82750","","null","","","null","11","","","","","","","","","","","","","","","NaN",""
"","S1","","html-keyboard-response","84","604508","0.0-1.0-110.0","0","0","82750","","null","","","null","12","","","","","","","","","","","","","","","",""
"","ISI","","html-keyboard-response","85","605520","0.0-1.0-111.0","0","0","82750","","null","","","null","12","NaN","","","","","","","","","","","","","","",""
"","S2","","html-keyboard-response","86","605785","0.0-1.0-112.0","0","0","82750","","null","","","null","12","","NaN","","","","","","","","","","","","","",""
"","response","","html-keyboard-response","87","606825","0.0-1.0-113.0-0.0","0","0","82750","","1029","","","68","12","","","1","12","training","adjacent","FG","6","7","M.jpg","O.jpg","1","1","1","",""
"","feedback","","html-keyboard-response","88","607840","0.0-1.0-114.0-0.0","0","0","82750","","null","","","null","12","","","","","","","","","","","","","","","",""
"","ITI","","html-keyboard-response","89","608854","0.0-1.0-117.0","0","0","82750","","null","","","null","12","","","","","","","","","","","","","","","NaN",""
"","S1","","html-keyboard-response","90","609118","0.0-1.0-119.0","0","0","82750","","null","","","null","13","","","","","","","","","","","","","","","",""
"","ISI","","html-keyboard-response","91","610128","0.0-1.0-120.0","0","0","82750","","null","","","null","13","NaN","","","","","","","","","","","","","","",""
"","S2","","html-keyboard-response","92","610392","0.0-1.0-121.0","0","0","82750","","null","","","null","13","","NaN","","","","","","","","","","","","","",""
"","response","","html-keyboard-response","93","610986","0.0-1.0-122.0-0.0","0","0","82750","","581","","","68","13","","","1","13","training","adjacent","BC","2","3","P.jpg","Q.jpg","1","1","1","",""
"","feedback","","html-keyboard-response","94","612001","0.0-1.0-123.0-0.0","0","0","82750","","null","","","null","13","","","","","","","","","","","","","","","",""
"","ITI","","html-keyboard-response","95","613016","0.0-1.0-126.0","0","0","82750","","null","","","null","13","","","","","","","","","","","","","","","NaN",""
"","S1","","html-keyboard-response","96","613279","0.0-1.0-128.0","0","0","82750","","null","","","null","14","","","","","","","","","","","","","","","",""
"","ISI","","html-keyboard-response","97","614290","0.0-1.0-129.0","0","0","82750","","null","","","null","14","NaN","","","","","","","","","","","","","","",""
"","S2","","html-keyboard-response","98","614554","0.0-1.0-130.0","0","0","82750","","null","","","null","14","","NaN","","","","","","","","","","","","","",""
"","response","","html-keyboard-response","99","615066","0.0-1.0-131.0-0.0","0","0","82750","","498","","","68","14","","","1","14","training","adjacent","ED","5","4","R.jpg","L.jpg","1","0","0","",""
"","feedback","","html-keyboard-response","100","616080","0.0-1.0-132.0-0.0","0","0","82750","","null","","","null","14","","","","","","","","","","","","","","","",""
"","time_out","","html-keyboard-response","101","618094","0.0-1.0-134.0-0.0","0","0","82750","","null","","","null","14","","","","","","","","","","","","","","","",""
"","ITI","","html-keyboard-response","102","619109","0.0-1.0-135.0","0","0","82750","","null","","","null","14","","","","","","","","","","","","","","","NaN",""
"","S1","","html-keyboard-response","103","619374","0.0-1.0-137.0","0","0","82750","","null","","","null","15","","","","","","","","","","","","","","","",""
"","ISI","","html-keyboard-response","104","620386","0.0-1.0-138.0","0","0","82750","","null","","","null","15","NaN","","","","","","","","","","","","","","",""
"","S2","","html-keyboard-response","105","620650","0.0-1.0-139.0","0","0","82750","","null","","","null","15","","NaN","","","","","","","","","","","","","",""
"","response","","html-keyboard-response","106","621411","0.0-1.0-140.0-0.0","0","0","82750","","749","","","68","15","","","1","15","training","adjacent","ED","5","4","R.jpg","L.jpg","1","0","0","",""
"","feedback","","html-keyboard-response","107","622426","0.0-1.0-141.0-0.0","0","0","82750","","null","","","null","15","","","","","","","","","","","","","","","",""
"","time_out","","html-keyboard-response","108","624441","0.0-1.0-143.0-0.0","0","0","82750","","null","","","null","15","","","","","","","","","","","","","","","",""
"","ITI","","html-keyboard-response","109","625454","0.0-1.0-144.0","0","0","82750","","null","","","null","15","","","","","","","","","","","","","","","NaN",""
"","S1","","html-keyboard-response","110","625718","0.0-1.0-146.0","0","0","82750","","null","","","null","16","","","","","","","","","","","","","","","",""
"","ISI","","html-keyboard-response","111","626731","0.0-1.0-147.0","0","0","82750","","null","","","null","16","NaN","","","","","","","","","","","","","","",""
"","S2","","html-keyboard-response","112","626996","0.0-1.0-148.0","0","0","82750","","null","","","null","16","","NaN","","","","","","","","","","","","","",""
"","response","","html-keyboard-response","113","627865","0.0-1.0-149.0-0.0","0","0","82750","","857","","","75","16","","","1","16","training","adjacent","CD","3","4","Q.jpg","L.jpg","0","1","0","",""
"","feedback","","html-keyboard-response","114","628882","0.0-1.0-150.0-0.0","0","0","82750","","null","","","null","16","","","","","","","","","","","","","","","",""
"","time_out","","html-keyboard-response","115","630893","0.0-1.0-152.0-0.0","0","0","82750","","null","","","null","16","","","","","","","","","","","","","","","",""
"","ITI","","html-keyboard-response","116","631905","0.0-1.0-153.0","0","0","82750","","null","","","null","16","","","","","","","","","","","","","","","NaN",""
"","S1","","html-keyboard-response","117","632168","0.0-1.0-155.0","0","0","82750","","null","","","null","17","","","","","","","","","","","","","","","",""
"","ISI","","html-keyboard-response","118","633179","0.0-1.0-156.0","0","0","82750","","559","","","68","17","d","","","","","","","","","","","","","","",""
"","S2","","html-keyboard-response","119","633445","0.0-1.0-157.0","0","0","82750","","null","","","null","17","","NaN","","","","","","","","","","","","","",""
"","response","","html-keyboard-response","120","634207","0.0-1.0-158.0-0.0","0","0","82750","","750","","","68","17","","","1","17","training","adjacent","DE","4","5","L.jpg","R.jpg","1","1","1","",""
"","feedback","","html-keyboard-response","121","635219","0.0-1.0-159.0-0.0","0","0","82750","","null","","","null","17","","","","","","","","","","","","","","","",""
"","ITI","","html-keyboard-response","122","636231","0.0-1.0-162.0","0","0","82750","","null","","","null","17","","","","","","","","","","","","","","","NaN",""
"","S1","","html-keyboard-response","123","636496","0.0-1.0-164.0","0","0","82750","","null","","","null","18","","","","","","","","","","","","","","","",""
"","ISI","","html-keyboard-response","124","637508","0.0-1.0-165.0","0","0","82750","","null","","","null","18","NaN","","","","","","","","","","","","","","",""
"","S2","","html-keyboard-response","125","637773","0.0-1.0-166.0","0","0","82750","","null","","","null","18","","NaN","","","","","","","","","","","","","",""
"","response","","html-keyboard-response","126","638627","0.0-1.0-167.0-0.0","0","0","82750","","842","","","68","18","","","1","18","training","adjacent","CB","3","2","Q.jpg","P.jpg","1","0","0","",""
"","feedback","","html-keyboard-response","127","639657","0.0-1.0-168.0-0.0","0","0","82750","","null","","","null","18","","","","","","","","","","","","","","","",""
"","time_out","","html-keyboard-response","128","641671","0.0-1.0-170.0-0.0","0","0","82750","","null","","","null","18","","","","","","","","","","","","","","","",""
"","ITI","","html-keyboard-response","129","642684","0.0-1.0-171.0","0","0","82750","","null","","","null","18","","","","","","","","","","","","","","","NaN",""
"","S1","","html-keyboard-response","130","642952","0.0-1.0-173.0","0","0","82750","","null","","","null","19","","","","","","","","","","","","","","","",""
"","ISI","","html-keyboard-response","131","643964","0.0-1.0-174.0","0","0","82750","","null","","","null","19","NaN","","","","","","","","","","","","","","",""
"","S2","","html-keyboard-response","132","644230","0.0-1.0-175.0","0","0","82750","","null","","","null","19","","NaN","","","","","","","","","","","","","",""
"","response","","html-keyboard-response","133","645139","0.0-1.0-176.0-0.0","0","0","82750","","899","","","68","19","","","1","19","training","adjacent","DC","4","3","L.jpg","Q.jpg","1","0","0","",""
"","feedback","","html-keyboard-response","134","646153","0.0-1.0-177.0-0.0","0","0","82750","","null","","","null","19","","","","","","","","","","","","","","","",""
"","time_out","","html-keyboard-response","135","648166","0.0-1.0-179.0-0.0","0","0","82750","","null","","","null","19","","","","","","","","","","","","","","","",""
"","ITI","","html-keyboard-response","136","649180","0.0-1.0-180.0","0","0","82750","","null","","","null","19","","","","","","","","","","","","","","","NaN",""
"","S1","","html-keyboard-response","137","649444","0.0-1.0-182.0","0","0","82750","","null","","","null","20","","","","","","","","","","","","","","","",""
"","ISI","","html-keyboard-response","138","650457","0.0-1.0-183.0","0","0","82750","","null","","","null","20","NaN","","","","","","","","","","","","","","",""
"","S2","","html-keyboard-response","139","650723","0.0-1.0-184.0","0","0","82750","","null","","","null","20","","NaN","","","","","","","","","","","","","",""
"","response","","html-keyboard-response","140","651625","0.0-1.0-185.0-0.0","0","0","82750","","890","","","68","20","","","1","20","training","adjacent","FE","6","5","M.jpg","R.jpg","1","0","0","",""
"","feedback","","html-keyboard-response","141","652641","0.0-1.0-186.0-0.0","0","0","82750","","null","","","null","20","","","","","","","","","","","","","","","",""
"","time_out","","html-keyboard-response","142","654654","0.0-1.0-188.0-0.0","0","0","82750","","null","","","null","20","","","","","","","","","","","","","","","",""
"","ITI","","html-keyboard-response","143","655668","0.0-1.0-189.0","0","0","82750","","null","","","null","20","","","","","","","","","","","","","","","NaN",""
"","S1","","html-keyboard-response","144","655932","0.0-1.0-191.0","0","0","82750","","null","","","null","21","","","","","","","","","","","","","","","",""
"","ISI","","html-keyboard-response","145","656944","0.0-1.0-192.0","0","0","82750","","null","","","null","21","NaN","","","","","","","","","","","","","","",""
"","S2","","html-keyboard-response","146","657210","0.0-1.0-193.0","0","0","82750","","null","","","null","21","","NaN","","","","","","","","","","","","","",""
"","response","","html-keyboard-response","147","657806","0.0-1.0-194.0-0.0","0","0","82750","","583","","","75","21","","","1","21","training","adjacent","GF","7","6","O.jpg","M.jpg","0","0","1","",""
"","feedback","","html-keyboard-response","148","658824","0.0-1.0-195.0-0.0","0","0","82750","","null","","","null","21","","","","","","","","","","","","","","","",""
"","ITI","","html-keyboard-response","149","659838","0.0-1.0-198.0","0","0","82750","","null","","","null","21","","","","","","","","","","","","","","","NaN",""
"","S1","","html-keyboard-response","150","660103","0.0-1.0-200.0","0","0","82750","","null","","","null","22","","","","","","","","","","","","","","","",""
"","ISI","","html-keyboard-response","151","661115","0.0-1.0-201.0","0","0","82750","","null","","","null","22","NaN","","","","","","","","","","","","","","",""
"","S2","","html-keyboard-response","152","661381","0.0-1.0-202.0","0","0","82750","","null","","","null","22","","NaN","","","","","","","","","","","","","",""
"","response","","html-keyboard-response","153","662053","0.0-1.0-203.0-0.0","0","0","82750","","660","","","75","22","","","1","22","training","adjacent","CD","3","4","Q.jpg","L.jpg","0","1","0","",""
"","feedback","","html-keyboard-response","154","663067","0.0-1.0-204.0-0.0","0","0","82750","","null","","","null","22","","","","","","","","","","","","","","","",""
"","time_out","","html-keyboard-response","155","665080","0.0-1.0-206.0-0.0","0","0","82750","","null","","","null","22","","","","","","","","","","","","","","","",""
"","ITI","","html-keyboard-response","156","666095","0.0-1.0-207.0","0","0","82750","","null","","","null","22","","","","","","","","","","","","","","","NaN",""
"","S1","","html-keyboard-response","157","666358","0.0-1.0-209.0","0","0","82750","","null","","","null","23","","","","","","","","","","","","","","","",""
"","ISI","","html-keyboard-response","158","667372","0.0-1.0-210.0","0","0","82750","","null","","","null","23","NaN","","","","","","","","","","","","","","",""
"","S2","","html-keyboard-response","159","667636","0.0-1.0-211.0","0","0","82750","","null","","","null","23","","NaN","","","","","","","","","","","","","",""
"","response","","html-keyboard-response","160","668191","0.0-1.0-212.0-0.0","0","0","82750","","540","","","68","23","","","1","23","training","adjacent","AB","1","2","N.jpg","P.jpg","1","1","1","",""
"","feedback","","html-keyboard-response","161","669206","0.0-1.0-213.0-0.0","0","0","82750","","null","","","null","23","","","","","","","","","","","","","","","",""
"","ITI","","html-keyboard-response","162","670220","0.0-1.0-216.0","0","0","82750","","null","","","null","23","","","","","","","","","","","","","","","NaN",""
"","S1","","html-keyboard-response","163","670485","0.0-1.0-218.0","0","0","82750","","null","","","null","24","","","","","","","","","","","","","","","",""
"","ISI","","html-keyboard-response","164","671498","0.0-1.0-219.0","0","0","82750","","null","","","null","24","NaN","","","","","","","","","","","","","","",""
"","S2","","html-keyboard-response","165","671764","0.0-1.0-220.0","0","0","82750","","null","","","null","24","","NaN","","","","","","","","","","","","","",""
"","response","","html-keyboard-response","166","672367","0.0-1.0-221.0-0.0","0","0","82750","","591","","","75","24","","","1","24","training","adjacent","AB","1","2","N.jpg","P.jpg","0","1","0","",""
"","feedback","","html-keyboard-response","167","673385","0.0-1.0-222.0-0.0","0","0","82750","","null","","","null","24","","","","","","","","","","","","","","","",""
"","time_out","","html-keyboard-response","168","675399","0.0-1.0-224.0-0.0","0","0","82750","","null","","","null","24","","","","","","","","","","","","","","","",""
"","ITI","","html-keyboard-response","169","676412","0.0-1.0-225.0","0","0","82750","","null","","","null","24","","","","","","","","","","","","","","","NaN",""
"","S1","","html-keyboard-response","170","676685","0.0-1.0-227.0","0","0","82750","","null","","","null","25","","","","","","","","","","","","","","","",""
"","ISI","","html-keyboard-response","171","677697","0.0-1.0-228.0","0","0","82750","","null","","","null","25","NaN","","","","","","","","","","","","","","",""
"","S2","","html-keyboard-response","172","677963","0.0-1.0-229.0","0","0","82750","","null","","","null","25","","NaN","","","","","","","","","","","","","",""
"","response","","html-keyboard-response","173","678688","0.0-1.0-230.0-0.0","0","0","82750","","713","","","68","25","","","1","25","training","adjacent","FE","6","5","M.jpg","R.jpg","1","0","0","",""
"","feedback","","html-keyboard-response","174","679705","0.0-1.0-231.0-0.0","0","0","82750","","null","","","null","25","","","","","","","","","","","","","","","",""
"","time_out","","html-keyboard-response","175","681719","0.0-1.0-233.0-0.0","0","0","82750","","null","","","null","25","","","","","","","","","","","","","","","",""
"","ITI","","html-keyboard-response","176","682733","0.0-1.0-234.0","0","0","82750","","null","","","null","25","","","","","","","","","","","","","","","NaN",""
"","S1","","html-keyboard-response","177","682997","0.0-1.0-236.0","0","0","82750","","null","","","null","26","","","","","","","","","","","","","","","",""
"","ISI","","html-keyboard-response","178","684010","0.0-1.0-237.0","0","0","82750","","876","","","75","26","k","","","","","","","","","","","","","","",""
"","S2","","html-keyboard-response","179","684276","0.0-1.0-238.0","0","0","82750","","null","","","null","26","","NaN","","","","","","","","","","","","","",""
"","response","","html-keyboard-response","180","684787","0.0-1.0-239.0-0.0","0","0","82750","","498","","","75","26","","","1","26","training","adjacent","FG","6","7","M.jpg","O.jpg","0","1","0","",""
"","feedback","","html-keyboard-response","181","685802","0.0-1.0-240.0-0.0","0","0","82750","","null","","","null","26","","","","","","","","","","","","","","","",""
"","time_out","","html-keyboard-response","182","687817","0.0-1.0-242.0-0.0","0","0","82750","","null","","","null","26","","","","","","","","","","","","","","","",""
"","ITI","","html-keyboard-response","183","688830","0.0-1.0-243.0","0","0","82750","","null","","","null","26","","","","","","","","","","","","","","","NaN",""
"","S1","","html-keyboard-response","184","689094","0.0-1.0-245.0","0","0","82750","","null","","","null","27","","","","","","","","","","","","","","","",""
"","ISI","","html-keyboard-response","185","690109","0.0-1.0-246.0","0","0","82750","","null","","","null","27","NaN","","","","","","","","","","","","","","",""
"","S2","","html-keyboard-response","186","690374","0.0-1.0-247.0","0","0","82750","","null","","","null","27","","NaN","","","","","","","","","","","","","",""
"","response","","html-keyboard-response","187","691047","0.0-1.0-248.0-0.0","0","0","82750","","660","","","68","27","","","1","27","training","adjacent","BA","2","1","P.jpg","N.jpg","1","0","0","",""
"","feedback","","html-keyboard-response","188","692062","0.0-1.0-249.0-0.0","0","0","82750","","null","","","null","27","","","","","","","","","","","","","","","",""
"","time_out","","html-keyboard-response","189","694076","0.0-1.0-251.0-0.0","0","0","82750","","null","","","null","27","","","","","","","","","","","","","","","",""
"","ITI","","html-keyboard-response","190","695088","0.0-1.0-252.0","0","0","82750","","null","","","null","27","","","","","","","","","","","","","","","NaN",""
"","S1","","html-keyboard-response","191","695352","0.0-1.0-254.0","0","0","82750","","null","","","null","28","","","","","","","","","","","","","","","",""
"","ISI","","html-keyboard-response","192","696364","0.0-1.0-255.0","0","0","82750","","null","","","null","28","NaN","","","","","","","","","","","","","","",""
"","S2","","html-keyboard-response","193","696628","0.0-1.0-256.0","0","0","82750","","null","","","null","28","","NaN","","","","","","","","","","","","","",""
"","response","","html-keyboard-response","194","697204","0.0-1.0-257.0-0.0","0","0","82750","","562","","","75","28","","","1","28","training","adjacent","BC","2","3","P.jpg","Q.jpg","0","1","0","",""
"","feedback","","html-keyboard-response","195","698220","0.0-1.0-258.0-0.0","0","0","82750","","null","","","null","28","","","","","","","","","","","","","","","",""
"","time_out","","html-keyboard-response","196","700235","0.0-1.0-260.0-0.0","0","0","82750","","null","","","null","28","","","","","","","","","","","","","","","",""
"","ITI","","html-keyboard-response","197","701250","0.0-1.0-261.0","0","0","82750","","null","","","null","28","","","","","","","","","","","","","","","NaN",""
"","S1","","html-keyboard-response","198","701514","0.0-1.0-263.0","0","0","82750","","null","","","null","29","","","","","","","","","","","","","","","",""
"","ISI","","html-keyboard-response","199","702527","0.0-1.0-264.0","0","0","82750","","null","","","null","29","NaN","","","","","","","","","","","","","","",""
"","S2","","html-keyboard-response","200","702806","0.0-1.0-265.0","0","0","82750","","null","","","null","29","","NaN","","","","","","","","","","","","","",""
"","response","","html-keyboard-response","201","703740","0.0-1.0-266.0-0.0","0","0","82750","","920","","","75","29","","","1","29","training","adjacent","ED","5","4","R.jpg","L.jpg","0","0","1","",""
"","feedback","","html-keyboard-response","202","704758","0.0-1.0-267.0-0.0","0","0","82750","","null","","","null","29","","","","","","","","","","","","","","","",""
"","ITI","","html-keyboard-response","203","705771","0.0-1.0-270.0","0","0","82750","","null","","","null","29","","","","","","","","","","","","","","","NaN",""
"","S1","","html-keyboard-response","204","706038","0.0-1.0-272.0","0","0","82750","","null","","","null","30","","","","","","","","","","","","","","","",""
"","ISI","","html-keyboard-response","205","707048","0.0-1.0-273.0","0","0","82750","","null","","","null","30","NaN","","","","","","","","","","","","","","",""
"","S2","","html-keyboard-response","206","707311","0.0-1.0-274.0","0","0","82750","","null","","","null","30","","NaN","","","","","","","","","","","","","",""
"","response","","html-keyboard-response","207","707970","0.0-1.0-275.0-0.0","0","0","82750","","646","","","75","30","","","1","30","training","adjacent","GF","7","6","O.jpg","M.jpg","0","0","1","",""
"","feedback","","html-keyboard-response","208","708988","0.0-1.0-276.0-0.0","0","0","82750","","null","","","null","30","","","","","","","","","","","","","","","",""
"","ITI","","html-keyboard-response","209","710003","0.0-1.0-279.0","0","0","82750","","null","","","null","30","","","","","","","","","","","","","","","NaN",""
"","S1","","html-keyboard-response","210","710269","0.0-1.0-281.0","0","0","82750","","null","","","null","31","","","","","","","","","","","","","","","",""
"","ISI","","html-keyboard-response","211","711281","0.0-1.0-282.0","0","0","82750","","null","","","null","31","NaN","","","","","","","","","","","","","","",""
"","S2","","html-keyboard-response","212","711548","0.0-1.0-283.0","0","0","82750","","null","","","null","31","","NaN","","","","","","","","","","","","","",""
"","response","","html-keyboard-response","213","712168","0.0-1.0-284.0-0.0","0","0","82750","","607","","","75","31","","","1","31","training","adjacent","GF","7","6","O.jpg","M.jpg","0","0","1","",""
"","feedback","","html-keyboard-response","214","713184","0.0-1.0-285.0-0.0","0","0","82750","","null","","","null","31","","","","","","","","","","","","","","","",""
"","ITI","","html-keyboard-response","215","714198","0.0-1.0-288.0","0","0","82750","","null","","","null","31","","","","","","","","","","","","","","","NaN",""
"","S1","","html-keyboard-response","216","714462","0.0-1.0-290.0","0","0","82750","","null","","","null","32","","","","","","","","","","","","","","","",""
"","ISI","","html-keyboard-response","217","715474","0.0-1.0-291.0","0","0","82750","","null","","","null","32","NaN","","","","","","","","","","","","","","",""
"","S2","","html-keyboard-response","218","715740","0.0-1.0-292.0","0","0","82750","","null","","","null","32","","NaN","","","","","","","","","","","","","",""
"","response","","html-keyboard-response","219","716290","0.0-1.0-293.0-0.0","0","0","82750","","536","","","68","32","","","1","32","training","adjacent","FG","6","7","M.jpg","O.jpg","1","1","1","",""
"","feedback","","html-keyboard-response","220","717305","0.0-1.0-294.0-0.0","0","0","82750","","null","","","null","32","","","","","","","","","","","","","","","",""
"","ITI","","html-keyboard-response","221","718320","0.0-1.0-297.0","0","0","82750","","null","","","null","32","","","","","","","","","","","","","","","NaN",""
"","S1","","html-keyboard-response","222","718584","0.0-1.0-299.0","0","0","82750","","null","","","null","33","","","","","","","","","","","","","","","",""
"","ISI","","html-keyboard-response","223","719597","0.0-1.0-300.0","0","0","82750","","null","","","null","33","NaN","","","","","","","","","","","","","","",""
"","S2","","html-keyboard-response","224","719863","0.0-1.0-301.0","0","0","82750","","null","","","null","33","","NaN","","","","","","","","","","","","","",""
"","response","","html-keyboard-response","225","721103","0.0-1.0-302.0-0.0","0","0","82750","","1227","","","75","33","","","1","33","training","adjacent","BA","2","1","P.jpg","N.jpg","0","0","1","",""
"","feedback","","html-keyboard-response","226","722119","0.0-1.0-303.0-0.0","0","0","82750","","null","","","null","33","","","","","","","","","","","","","","","",""
"","ITI","","html-keyboard-response","227","723134","0.0-1.0-306.0","0","0","82750","","null","","","null","33","","","","","","","","","","","","","","","NaN",""
"","S1","","html-keyboard-response","228","723397","0.0-1.0-308.0","0","0","82750","","null","","","null","34","","","","","","","","","","","","","","","",""
"","ISI","","html-keyboard-response","229","724422","0.0-1.0-309.0","0","0","82750","","null","","","null","34","NaN","","","","","","","","","","","","","","",""
"","S2","","html-keyboard-response","230","724687","0.0-1.0-310.0","0","0","82750","","null","","","null","34","","NaN","","","","","","","","","","","","","",""
"","response","","html-keyboard-response","231","725477","0.0-1.0-311.0-0.0","0","0","82750","","776","","","68","34","","","1","34","training","adjacent","DC","4","3","L.jpg","Q.jpg","1","0","0","",""
"","feedback","","html-keyboard-response","232","726493","0.0-1.0-312.0-0.0","0","0","82750","","null","","","null","34","","","","","","","","","","","","","","","",""
"","time_out","","html-keyboard-response","233","728506","0.0-1.0-314.0-0.0","0","0","82750","","null","","","null","34","","","","","","","","","","","","","","","",""
"","ITI","","html-keyboard-response","234","729520","0.0-1.0-315.0","0","0","82750","","null","","","null","34","","","","","","","","","","","","","","","NaN",""
"","S1","","html-keyboard-response","235","729782","0.0-1.0-317.0","0","0","82750","","null","","","null","35","","","","","","","","","","","","","","","",""
"","ISI","","html-keyboard-response","236","730790","0.0-1.0-318.0","0","0","82750","","null","","","null","35","NaN","","","","","","","","","","","","","","",""
"","S2","","html-keyboard-response","237","731049","0.0-1.0-319.0","0","0","82750","","null","","","null","35","","NaN","","","","","","","","","","","","","",""
"","response","","html-keyboard-response","238","732807","0.0-1.0-320.0-0.0","0","0","82750","","null","","","null","35","","","1","35","training","adjacent","DE","4","5","L.jpg","R.jpg","NaN","1","0","",""
"","too_slow_prompt","","html-keyboard-response","239","733818","0.0-1.0-322.0-0.0","1","0","82750","","null","","","null","","","","","","","","","","","","","","","","",""
"","time_out","","html-keyboard-response","240","735835","0.0-1.0-323.0-0.0","0","0","82750","","null","","","null","35","","","","","","","","","","","","","","","",""
"","ITI","","html-keyboard-response","241","736849","0.0-1.0-324.0","0","0","82750","","null","","","null","35","","","","","","","","","","","","","","","NaN",""
"","S1","","html-keyboard-response","242","737148","0.0-1.0-326.0","0","0","82750","","null","","","null","36","","","","","","","","","","","","","","","",""
"","ISI","","html-keyboard-response","243","738164","0.0-1.0-327.0","0","0","82750","","29","","","75","36","k","","","","","","","","","","","","","","",""
"","S2","","html-keyboard-response","244","738427","0.0-1.0-328.0","0","0","82750","","null","","","null","36","","NaN","","","","","","","","","","","","","",""
"","response","","html-keyboard-response","245","740190","0.0-1.0-329.0-0.0","0","0","82750","","null","","","null","36","","","1","36","training","adjacent","EF","5","6","R.jpg","M.jpg","NaN","1","0","",""
"","too_slow_prompt","","html-keyboard-response","246","741205","0.0-1.0-331.0-0.0","1","0","82750","","null","","","null","","","","","","","","","","","","","","","","",""
"","time_out","","html-keyboard-response","247","743219","0.0-1.0-332.0-0.0","0","0","82750","","null","","","null","36","","","","","","","","","","","","","","","",""
"","ITI","","html-keyboard-response","248","744232","0.0-1.0-333.0","0","0","82750","","null","","","null","36","","","","","","","","","","","","","","","NaN",""
"","S1","","html-keyboard-response","249","744496","0.0-1.0-335.0","0","0","82750","","null","","","null","37","","","","","","","","","","","","","","","",""
"","ISI","","html-keyboard-response","250","745508","0.0-1.0-336.0","0","0","82750","","null","","","null","37","NaN","","","","","","","","","","","","","","",""
"","S2","","html-keyboard-response","251","745774","0.0-1.0-337.0","0","0","82750","","null","","","null","37","","NaN","","","","","","","","","","","","","",""
"","response","","html-keyboard-response","252","746874","0.0-1.0-338.0-0.0","0","0","82750","","1087","","","75","37","","","1","37","training","adjacent","CB","3","2","Q.jpg","P.jpg","0","0","1","",""
"","feedback","","html-keyboard-response","253","747890","0.0-1.0-339.0-0.0","0","0","82750","","null","","","null","37","","","","","","","","","","","","","","","",""
"","ITI","","html-keyboard-response","254","748906","0.0-1.0-342.0","0","0","82750","","null","","","null","37","","","","","","","","","","","","","","","NaN",""
"","S1","","html-keyboard-response","255","749168","0.0-1.0-344.0","0","0","82750","","null","","","null","38","","","","","","","","","","","","","","","",""
"","ISI","","html-keyboard-response","256","750178","0.0-1.0-345.0","0","0","82750","","null","","","null","38","NaN","","","","","","","","","","","","","","",""
"","S2","","html-keyboard-response","257","750443","0.0-1.0-346.0","0","0","82750","","null","","","null","38","","NaN","","","","","","","","","","","","","",""
"","response","","html-keyboard-response","258","751877","0.0-1.0-347.0-0.0","0","0","82750","","1420","","","68","38","","","1","38","training","adjacent","CB","3","2","Q.jpg","P.jpg","1","0","0","",""
"","feedback","","html-keyboard-response","259","752892","0.0-1.0-348.0-0.0","0","0","82750","","null","","","null","38","","","","","","","","","","","","","","","",""
"","time_out","","html-keyboard-response","260","754906","0.0-1.0-350.0-0.0","0","0","82750","","null","","","null","38","","","","","","","","","","","","","","","",""
"","ITI","","html-keyboard-response","261","755920","0.0-1.0-351.0","0","0","82750","","null","","","null","38","","","","","","","","","","","","","","","NaN",""
"","S1","","html-keyboard-response","262","756185","0.0-1.0-353.0","0","0","82750","","null","","","null","39","","","","","","","","","","","","","","","",""
"","ISI","","html-keyboard-response","263","757199","0.0-1.0-354.0","0","0","82750","","null","","","null","39","NaN","","","","","","","","","","","","","","",""
"","S2","","html-keyboard-response","264","757465","0.0-1.0-355.0","0","0","82750","","null","","","null","39","","NaN","","","","","","","","","","","","","",""
"","response","","html-keyboard-response","265","758177","0.0-1.0-356.0-0.0","0","0","82750","","697","","","75","39","","","1","39","training","adjacent","GF","7","6","O.jpg","M.jpg","0","0","1","",""
"","feedback","","html-keyboard-response","266","759193","0.0-1.0-357.0-0.0","0","0","82750","","null","","","null","39","","","","","","","","","","","","","","","",""
"","ITI","","html-keyboard-response","267","760219","0.0-1.0-360.0","0","0","82750","","null","","","null","39","","","","","","","","","","","","","","","NaN",""
"","S1","","html-keyboard-response","268","760483","0.0-1.0-362.0","0","0","82750","","null","","","null","40","","","","","","","","","","","","","","","",""
"","ISI","","html-keyboard-response","269","761496","0.0-1.0-363.0","0","0","82750","","null","","","null","40","NaN","","","","","","","","","","","","","","",""
"","S2","","html-keyboard-response","270","761761","0.0-1.0-364.0","0","0","82750","","null","","","null","40","","NaN","","","","","","","","","","","","","",""
"","response","","html-keyboard-response","271","763177","0.0-1.0-365.0-0.0","0","0","82750","","1401","","","75","40","","","1","40","training","adjacent","FE","6","5","M.jpg","R.jpg","0","0","1","",""
"","feedback","","html-keyboard-response","272","764195","0.0-1.0-366.0-0.0","0","0","82750","","null","","","null","40","","","","","","","","","","","","","","","",""
"","ITI","","html-keyboard-response","273","765210","0.0-1.0-369.0","0","0","82750","","null","","","null","40","","","","","","","","","","","","","","","NaN",""
"","S1","","html-keyboard-response","274","765475","0.0-1.0-371.0","0","0","82750","","null","","","null","41","","","","","","","","","","","","","","","",""
"","ISI","","html-keyboard-response","275","766489","0.0-1.0-372.0","0","0","82750","","null","","","null","41","NaN","","","","","","","","","","","","","","",""
"","S2","","html-keyboard-response","276","766755","0.0-1.0-373.0","0","0","82750","","null","","","null","41","","NaN","","","","","","","","","","","","","",""
"","response","","html-keyboard-response","277","767935","0.0-1.0-374.0-0.0","0","0","82750","","1166","","","75","41","","","1","41","training","adjacent","ED","5","4","R.jpg","L.jpg","0","0","1","",""
"","feedback","","html-keyboard-response","278","768951","0.0-1.0-375.0-0.0","0","0","82750","","null","","","null","41","","","","","","","","","","","","","","","",""
"","ITI","","html-keyboard-response","279","769967","0.0-1.0-378.0","0","0","82750","","null","","","null","41","","","","","","","","","","","","","","","NaN",""
"","S1","","html-keyboard-response","280","770229","0.0-1.0-380.0","0","0","82750","","null","","","null","42","","","","","","","","","","","","","","","",""
"","ISI","","html-keyboard-response","281","771243","0.0-1.0-381.0","0","0","82750","","null","","","null","42","NaN","","","","","","","","","","","","","","",""
"","S2","","html-keyboard-response","282","771509","0.0-1.0-382.0","0","0","82750","","null","","","null","42","","NaN","","","","","","","","","","","","","",""
"","response","","html-keyboard-response","283","772445","0.0-1.0-383.0-0.0","0","0","82750","","923","","","75","42","","","1","42","training","adjacent","BA","2","1","P.jpg","N.jpg","0","0","1","",""
"","feedback","","html-keyboard-response","284","773460","0.0-1.0-384.0-0.0","0","0","82750","","null","","","null","42","","","","","","","","","","","","","","","",""
"","ITI","","html-keyboard-response","285","774475","0.0-1.0-387.0","0","0","82750","","null","","","null","42","","","","","","","","","","","","","","","NaN",""
"","S1","","html-keyboard-response","286","774742","0.0-1.0-389.0","0","0","82750","","null","","","null","43","","","","","","","","","","","","","","","",""
"","ISI","","html-keyboard-response","287","775754","0.0-1.0-390.0","0","0","82750","","null","","","null","43","NaN","","","","","","","","","","","","","","",""
"","S2","","html-keyboard-response","288","776020","0.0-1.0-391.0","0","0","82750","","null","","","null","43","","NaN","","","","","","","","","","","","","",""
"","response","","html-keyboard-response","289","777414","0.0-1.0-392.0-0.0","0","0","82750","","1380","","","75","43","","","1","43","training","adjacent","DC","4","3","L.jpg","Q.jpg","0","0","1","",""
"","feedback","","html-keyboard-response","290","778432","0.0-1.0-393.0-0.0","0","0","82750","","null","","","null","43","","","","","","","","","","","","","","","",""
"","ITI","","html-keyboard-response","291","779448","0.0-1.0-396.0","0","0","82750","","null","","","null","43","","","","","","","","","","","","","","","NaN",""
"","S1","","html-keyboard-response","292","779712","0.0-1.0-398.0","0","0","82750","","null","","","null","44","","","","","","","","","","","","","","","",""
"","ISI","","html-keyboard-response","293","780725","0.0-1.0-399.0","0","0","82750","","null","","","null","44","NaN","","","","","","","","","","","","","","",""
"","S2","","html-keyboard-response","294","780992","0.0-1.0-400.0","0","0","82750","","null","","","null","44","","NaN","","","","","","","","","","","","","",""
"","response","","html-keyboard-response","295","782758","0.0-1.0-401.0-0.0","0","0","82750","","null","","","null","44","","","1","44","training","adjacent","DE","4","5","L.jpg","R.jpg","NaN","1","0","",""
"","too_slow_prompt","","html-keyboard-response","296","783772","0.0-1.0-403.0-0.0","1","0","82750","","null","","","null","","","","","","","","","","","","","","","","",""
"","time_out","","html-keyboard-response","297","785784","0.0-1.0-404.0-0.0","0","0","82750","","null","","","null","44","","","","","","","","","","","","","","","",""
"","ITI","","html-keyboard-response","298","786800","0.0-1.0-405.0","0","0","82750","","null","","","null","44","","","","","","","","","","","","","","","NaN",""
"","S1","","html-keyboard-response","299","787066","0.0-1.0-407.0","0","0","82750","","null","","","null","45","","","","","","","","","","","","","","","",""
"","ISI","","html-keyboard-response","300","788078","0.0-1.0-408.0","0","0","82750","","null","","","null","45","NaN","","","","","","","","","","","","","","",""
"","S2","","html-keyboard-response","301","788340","0.0-1.0-409.0","0","0","82750","","null","","","null","45","","NaN","","","","","","","","","","","","","",""
"","response","","html-keyboard-response","302","789275","0.0-1.0-410.0-0.0","0","0","82750","","923","","","75","45","","","1","45","training","adjacent","BC","2","3","P.jpg","Q.jpg","0","1","0","",""
"","feedback","","html-keyboard-response","303","790293","0.0-1.0-411.0-0.0","0","0","82750","","null","","","null","45","","","","","","","","","","","","","","","",""
"","time_out","","html-keyboard-response","304","792305","0.0-1.0-413.0-0.0","0","0","82750","","null","","","null","45","","","","","","","","","","","","","","","",""
"","ITI","","html-keyboard-response","305","793317","0.0-1.0-414.0","0","0","82750","","null","","","null","45","","","","","","","","","","","","","","","NaN",""
"","S1","","html-keyboard-response","306","793582","0.0-1.0-416.0","0","0","82750","","null","","","null","46","","","","","","","","","","","","","","","",""
"","ISI","","html-keyboard-response","307","794595","0.0-1.0-417.0","0","0","82750","","null","","","null","46","NaN","","","","","","","","","","","","","","",""
"","S2","","html-keyboard-response","308","794865","0.0-1.0-418.0","0","0","82750","","null","","","null","46","","NaN","","","","","","","","","","","","","",""
"","response","","html-keyboard-response","309","795491","0.0-1.0-419.0-0.0","0","0","82750","","616","","","75","46","","","1","46","training","adjacent","CD","3","4","Q.jpg","L.jpg","0","1","0","",""
"","feedback","","html-keyboard-response","310","796505","0.0-1.0-420.0-0.0","0","0","82750","","null","","","null","46","","","","","","","","","","","","","","","",""
"","time_out","","html-keyboard-response","311","798519","0.0-1.0-422.0-0.0","0","0","82750","","null","","","null","46","","","","","","","","","","","","","","","",""
"","ITI","","html-keyboard-response","312","799533","0.0-1.0-423.0","0","0","82750","","null","","","null","46","","","","","","","","","","","","","","","NaN",""
"","S1","","html-keyboard-response","313","799797","0.0-1.0-425.0","0","0","82750","","null","","","null","47","","","","","","","","","","","","","","","",""
"","ISI","","html-keyboard-response","314","800809","0.0-1.0-426.0","0","0","82750","","null","","","null","47","NaN","","","","","","","","","","","","","","",""
"","S2","","html-keyboard-response","315","801070","0.0-1.0-427.0","0","0","82750","","null","","","null","47","","NaN","","","","","","","","","","","","","",""
"","response","","html-keyboard-response","316","801760","0.0-1.0-428.0-0.0","0","0","82750","","682","","","68","47","","","1","47","training","adjacent","DC","4","3","L.jpg","Q.jpg","1","0","0","",""
"","feedback","","html-keyboard-response","317","802773","0.0-1.0-429.0-0.0","0","0","82750","","null","","","null","47","","","","","","","","","","","","","","","",""
"","time_out","","html-keyboard-response","318","804787","0.0-1.0-431.0-0.0","0","0","82750","","null","","","null","47","","","","","","","","","","","","","","","",""
"","ITI","","html-keyboard-response","319","805800","0.0-1.0-432.0","0","0","82750","","null","","","null","47","","","","","","","","","","","","","","","NaN",""
"","block_over","","html-keyboard-response","320","1547571","0.0-1.0-433.0-0.0","0","0","82750","","741753","","","32","47","","","","","","","","","","","","","","","",""
"","S1","","html-keyboard-response","321","1547833","0.0-1.0-434.0","0","0","82750","","null","","","null","48","","","","","","","","","","","","","","","",""
"","ISI","","html-keyboard-response","322","1548846","0.0-1.0-435.0","0","0","82750","","null","","","null","48","NaN","","","","","","","","","","","","","","",""
"","S2","","html-keyboard-response","323","1549106","0.0-1.0-436.0","0","0","82750","","null","","","null","48","","NaN","","","","","","","","","","","","","",""
"","response","","html-keyboard-response","324","1550793","0.0-1.0-437.0-0.0","0","0","82750","","1676","","","68","48","","","2","48","training","adjacent","GF","7","6","O.jpg","M.jpg","1","0","0","",""
"","feedback","","html-keyboard-response","325","1551809","0.0-1.0-438.0-0.0","0","0","82750","","null","","","null","48","","","","","","","","","","","","","","","",""
"","time_out","","html-keyboard-response","326","1553825","0.0-1.0-440.0-0.0","0","0","82750","","null","","","null","48","","","","","","","","","","","","","","","",""
"","ITI","","html-keyboard-response","327","1554835","0.0-1.0-441.0","0","0","82750","","null","","","null","48","","","","","","","","","","","","","","","NaN",""
"","S1","","html-keyboard-response","328","1555099","0.0-1.0-443.0","0","0","82750","","null","","","null","49","","","","","","","","","","","","","","","",""
"","ISI","","html-keyboard-response","329","1556114","0.0-1.0-444.0","0","0","82750","","null","","","null","49","NaN","","","","","","","","","","","","","","",""
"","S2","","html-keyboard-response","330","1556380","0.0-1.0-445.0","0","0","82750","","null","","","null","49","","NaN","","","","","","","","","","","","","",""
"","response","","html-keyboard-response","331","1557305","0.0-1.0-446.0-0.0","0","0","82750","","911","","","75","49","","","2","49","training","adjacent","CB","3","2","Q.jpg","P.jpg","0","0","1","",""
"","feedback","","html-keyboard-response","332","1558321","0.0-1.0-447.0-0.0","0","0","82750","","null","","","null","49","","","","","","","","","","","","","","","",""
"","ITI","","html-keyboard-response","333","1559336","0.0-1.0-450.0","0","0","82750","","null","","","null","49","","","","","","","","","","","","","","","NaN",""
"","S1","","html-keyboard-response","334","1559600","0.0-1.0-452.0","0","0","82750","","null","","","null","50","","","","","","","","","","","","","","","",""
"","ISI","","html-keyboard-response","335","1560612","0.0-1.0-453.0","0","0","82750","","null","","","null","50","NaN","","","","","","","","","","","","","","",""
"","S2","","html-keyboard-response","336","1560879","0.0-1.0-454.0","0","0","82750","","null","","","null","50","","NaN","","","","","","","","","","","","","",""
"","response","","html-keyboard-response","337","1561515","0.0-1.0-455.0-0.0","0","0","82750","","624","","","75","50","","","2","50","training","adjacent","CB","3","2","Q.jpg","P.jpg","0","0","1","",""
"","feedback","","html-keyboard-response","338","1562532","0.0-1.0-456.0-0.0","0","0","82750","","null","","","null","50","","","","","","","","","","","","","","","",""
"","ITI","","html-keyboard-response","339","1563547","0.0-1.0-459.0","0","0","82750","","null","","","null","50","","","","","","","","","","","","","","","NaN",""
"","S1","","html-keyboard-response","340","1563811","0.0-1.0-461.0","0","0","82750","","null","","","null","51","","","","","","","","","","","","","","","",""
"","ISI","","html-keyboard-response","341","1564820","0.0-1.0-462.0","0","0","82750","","null","","","null","51","NaN","","","","","","","","","","","","","","",""
"","S2","","html-keyboard-response","342","1565082","0.0-1.0-463.0","0","0","82750","","null","","","null","51","","NaN","","","","","","","","","","","","","",""
"","response","","html-keyboard-response","343","1565555","0.0-1.0-464.0-0.0","0","0","82750","","464","","","68","51","","","2","51","training","adjacent","BA","2","1","P.jpg","N.jpg","1","0","0","",""
"","feedback","","html-keyboard-response","344","1566567","0.0-1.0-465.0-0.0","0","0","82750","","null","","","null","51","","","","","","","","","","","","","","","",""
"","time_out","","html-keyboard-response","345","1568582","0.0-1.0-467.0-0.0","0","0","82750","","null","","","null","51","","","","","","","","","","","","","","","",""
"","ITI","","html-keyboard-response","346","1569594","0.0-1.0-468.0","0","0","82750","","null","","","null","51","","","","","","","","","","","","","","","NaN",""
"","S1","","html-keyboard-response","347","1569854","0.0-1.0-470.0","0","0","82750","","null","","","null","52","","","","","","","","","","","","","","","",""
"","ISI","","html-keyboard-response","348","1570865","0.0-1.0-471.0","0","0","82750","","null","","","null","52","NaN","","","","","","","","","","","","","","",""
"","S2","","html-keyboard-response","349","1571129","0.0-1.0-472.0","0","0","82750","","null","","","null","52","","NaN","","","","","","","","","","","","","",""
"","response","","html-keyboard-response","350","1571845","0.0-1.0-473.0-0.0","0","0","82750","","703","","","75","52","","","2","52","training","adjacent","CB","3","2","Q.jpg","P.jpg","0","0","1","",""
"","feedback","","html-keyboard-response","351","1572862","0.0-1.0-474.0-0.0","0","0","82750","","null","","","null","52","","","","","","","","","","","","","","","",""
"","ITI","","html-keyboard-response","352","1573878","0.0-1.0-477.0","0","0","82750","","null","","","null","52","","","","","","","","","","","","","","","NaN",""
"","S1","","html-keyboard-response","353","1574139","0.0-1.0-479.0","0","0","82750","","null","","","null","53","","","","","","","","","","","","","","","",""
"","ISI","","html-keyboard-response","354","1575149","0.0-1.0-480.0","0","0","82750","","null","","","null","53","NaN","","","","","","","","","","","","","","",""
"","S2","","html-keyboard-response","355","1575414","0.0-1.0-481.0","0","0","82750","","null","","","null","53","","NaN","","","","","","","","","","","","","",""
"","response","","html-keyboard-response","356","1576067","0.0-1.0-482.0-0.0","0","0","82750","","640","","","75","53","","","2","53","training","adjacent","AB","1","2","N.jpg","P.jpg","0","1","0","",""
"","feedback","","html-keyboard-response","357","1577085","0.0-1.0-483.0-0.0","0","0","82750","","null","","","null","53","","","","","","","","","","","","","","","",""
"","time_out","","html-keyboard-response","358","1579101","0.0-1.0-485.0-0.0","0","0","82750","","null","","","null","53","","","","","","","","","","","","","","","",""
"","ITI","","html-keyboard-response","359","1580115","0.0-1.0-486.0","0","0","82750","","null","","","null","53","","","","","","","","","","","","","","","NaN",""
"","S1","","html-keyboard-response","360","1580379","0.0-1.0-488.0","0","0","82750","","null","","","null","54","","","","","","","","","","","","","","","",""
"","ISI","","html-keyboard-response","361","1581401","0.0-1.0-489.0","0","0","82750","","null","","","null","54","NaN","","","","","","","","","","","","","","",""
"","S2","","html-keyboard-response","362","1581671","0.0-1.0-490.0","0","0","82750","","null","","","null","54","","NaN","","","","","","","","","","","","","",""
"","response","","html-keyboard-response","363","1582134","0.0-1.0-491.0-0.0","0","0","82750","","451","","","68","54","","","2","54","training","adjacent","AB","1","2","N.jpg","P.jpg","1","1","1","",""
"","feedback","","html-keyboard-response","364","1583144","0.0-1.0-492.0-0.0","0","0","82750","","null","","","null","54","","","","","","","","","","","","","","","",""
"","ITI","","html-keyboard-response","365","1584157","0.0-1.0-495.0","0","0","82750","","null","","","null","54","","","","","","","","","","","","","","","NaN",""
"","S1","","html-keyboard-response","366","1584418","0.0-1.0-497.0","0","0","82750","","null","","","null","55","","","","","","","","","","","","","","","",""
"","ISI","","html-keyboard-response","367","1585429","0.0-1.0-498.0","0","0","82750","","null","","","null","55","NaN","","","","","","","","","","","","","","",""
"","S2","","html-keyboard-response","368","1585693","0.0-1.0-499.0","0","0","82750","","null","","","null","55","","NaN","","","","","","","","","","","","","",""
"","response","","html-keyboard-response","369","1586386","0.0-1.0-500.0-0.0","0","0","82750","","680","","","75","55","","","2","55","training","adjacent","CD","3","4","Q.jpg","L.jpg","0","1","0","",""
"","feedback","","html-keyboard-response","370","1587403","0.0-1.0-501.0-0.0","0","0","82750","","null","","","null","55","","","","","","","","","","","","","","","",""
"","time_out","","html-keyboard-response","371","1589419","0.0-1.0-503.0-0.0","0","0","82750","","null","","","null","55","","","","","","","","","","","","","","","",""
"","ITI","","html-keyboard-response","372","1590433","0.0-1.0-504.0","0","0","82750","","null","","","null","55","","","","","","","","","","","","","","","NaN",""
"","S1","","html-keyboard-response","373","1590704","0.0-1.0-506.0","0","0","82750","","null","","","null","56","","","","","","","","","","","","","","","",""
"","ISI","","html-keyboard-response","374","1591718","0.0-1.0-507.0","0","0","82750","","null","","","null","56","NaN","","","","","","","","","","","","","","",""
"","S2","","html-keyboard-response","375","1591983","0.0-1.0-508.0","0","0","82750","","null","","","null","56","","NaN","","","","","","","","","","","","","",""
"","response","","html-keyboard-response","376","1592707","0.0-1.0-509.0-0.0","0","0","82750","","710","","","68","56","","","2","56","training","adjacent","FE","6","5","M.jpg","R.jpg","1","0","0","",""
"","feedback","","html-keyboard-response","377","1593723","0.0-1.0-510.0-0.0","0","0","82750","","null","","","null","56","","","","","","","","","","","","","","","",""
"","time_out","","html-keyboard-response","378","1595740","0.0-1.0-512.0-0.0","0","0","82750","","null","","","null","56","","","","","","","","","","","","","","","",""
"","ITI","","html-keyboard-response","379","1596752","0.0-1.0-513.0","0","0","82750","","null","","","null","56","","","","","","","","","","","","","","","NaN",""
"","S1","","html-keyboard-response","380","1597017","0.0-1.0-515.0","0","0","82750","","null","","","null","57","","","","","","","","","","","","","","","",""
"","ISI","","html-keyboard-response","381","1598030","0.0-1.0-516.0","0","0","82750","","null","","","null","57","NaN","","","","","","","","","","","","","","",""
"","S2","","html-keyboard-response","382","1598295","0.0-1.0-517.0","0","0","82750","","null","","","null","57","","NaN","","","","","","","","","","","","","",""
"","response","","html-keyboard-response","383","1598806","0.0-1.0-518.0-0.0","0","0","82750","","498","","","68","57","","","2","57","training","adjacent","BC","2","3","P.jpg","Q.jpg","1","1","1","",""
"","feedback","","html-keyboard-response","384","1599824","0.0-1.0-519.0-0.0","0","0","82750","","null","","","null","57","","","","","","","","","","","","","","","",""
"","ITI","","html-keyboard-response","385","1600835","0.0-1.0-522.0","0","0","82750","","null","","","null","57","","","","","","","","","","","","","","","NaN",""
"","S1","","html-keyboard-response","386","1601098","0.0-1.0-524.0","0","0","82750","","null","","","null","58","","","","","","","","","","","","","","","",""
"","ISI","","html-keyboard-response","387","1602113","0.0-1.0-525.0","0","0","82750","","null","","","null","58","NaN","","","","","","","","","","","","","","",""
"","S2","","html-keyboard-response","388","1602379","0.0-1.0-526.0","0","0","82750","","null","","","null","58","","NaN","","","","","","","","","","","","","",""
"","response","","html-keyboard-response","389","1603126","0.0-1.0-527.0-0.0","0","0","82750","","733","","","68","58","","","2","58","training","adjacent","BC","2","3","P.jpg","Q.jpg","1","1","1","",""
"","feedback","","html-keyboard-response","390","1604143","0.0-1.0-528.0-0.0","0","0","82750","","null","","","null","58","","","","","","","","","","","","","","","",""
"","ITI","","html-keyboard-response","391","1605156","0.0-1.0-531.0","0","0","82750","","null","","","null","58","","","","","","","","","","","","","","","NaN",""
"","S1","","html-keyboard-response","392","1605419","0.0-1.0-533.0","0","0","82750","","null","","","null","59","","","","","","","","","","","","","","","",""
"","ISI","","html-keyboard-response","393","1606432","0.0-1.0-534.0","0","0","82750","","null","","","null","59","NaN","","","","","","","","","","","","","","",""
"","S2","","html-keyboard-response","394","1606696","0.0-1.0-535.0","0","0","82750","","null","","","null","59","","NaN","","","","","","","","","","","","","",""
"","response","","html-keyboard-response","395","1607284","0.0-1.0-536.0-0.0","0","0","82750","","575","","","68","59","","","2","59","training","adjacent","DC","4","3","L.jpg","Q.jpg","1","0","0","",""
"","feedback","","html-keyboard-response","396","1608299","0.0-1.0-537.0-0.0","0","0","82750","","null","","","null","59","","","","","","","","","","","","","","","",""
"","time_out","","html-keyboard-response","397","1610315","0.0-1.0-539.0-0.0","0","0","82750","","null","","","null","59","","","","","","","","","","","","","","","",""
"","ITI","","html-keyboard-response","398","1611328","0.0-1.0-540.0","0","0","82750","","null","","","null","59","","","","","","","","","","","","","","","NaN",""
"","S1","","html-keyboard-response","399","1611595","0.0-1.0-542.0","0","0","82750","","null","","","null","60","","","","","","","","","","","","","","","",""
"","ISI","","html-keyboard-response","400","1612610","0.0-1.0-543.0","0","0","82750","","null","","","null","60","NaN","","","","","","","","","","","","","","",""
"","S2","","html-keyboard-response","401","1612876","0.0-1.0-544.0","0","0","82750","","null","","","null","60","","NaN","","","","","","","","","","","","","",""
"","response","","html-keyboard-response","402","1613546","0.0-1.0-545.0-0.0","0","0","82750","","657","","","75","60","","","2","60","training","adjacent","EF","5","6","R.jpg","M.jpg","0","1","0","",""
"","feedback","","html-keyboard-response","403","1614564","0.0-1.0-546.0-0.0","0","0","82750","","null","","","null","60","","","","","","","","","","","","","","","",""
"","time_out","","html-keyboard-response","404","1616582","0.0-1.0-548.0-0.0","0","0","82750","","null","","","null","60","","","","","","","","","","","","","","","",""
"","ITI","","html-keyboard-response","405","1617595","0.0-1.0-549.0","0","0","82750","","null","","","null","60","","","","","","","","","","","","","","","NaN",""
"","S1","","html-keyboard-response","406","1617863","0.0-1.0-551.0","0","0","82750","","null","","","null","61","","","","","","","","","","","","","","","",""
"","ISI","","html-keyboard-response","407","1618876","0.0-1.0-552.0","0","0","82750","","null","","","null","61","NaN","","","","","","","","","","","","","","",""
"","S2","","html-keyboard-response","408","1619141","0.0-1.0-553.0","0","0","82750","","null","","","null","61","","NaN","","","","","","","","","","","","","",""
"","response","","html-keyboard-response","409","1619886","0.0-1.0-554.0-0.0","0","0","82750","","731","","","68","61","","","2","61","training","adjacent","DC","4","3","L.jpg","Q.jpg","1","0","0","",""
"","feedback","","html-keyboard-response","410","1620913","0.0-1.0-555.0-0.0","0","0","82750","","null","","","null","61","","","","","","","","","","","","","","","",""
"","time_out","","html-keyboard-response","411","1622931","0.0-1.0-557.0-0.0","0","0","82750","","null","","","null","61","","","","","","","","","","","","","","","",""
"","ITI","","html-keyboard-response","412","1623944","0.0-1.0-558.0","0","0","82750","","null","","","null","61","","","","","","","","","","","","","","","NaN",""
"","S1","","html-keyboard-response","413","1624210","0.0-1.0-560.0","0","0","82750","","null","","","null","62","","","","","","","","","","","","","","","",""
"","ISI","","html-keyboard-response","414","1625223","0.0-1.0-561.0","0","0","82750","","null","","","null","62","NaN","","","","","","","","","","","","","","",""
"","S2","","html-keyboard-response","415","1625489","0.0-1.0-562.0","0","0","82750","","null","","","null","62","","NaN","","","","","","","","","","","","","",""
"","response","","html-keyboard-response","416","1626089","0.0-1.0-563.0-0.0","0","0","82750","","586","","","75","62","","","2","62","training","adjacent","ED","5","4","R.jpg","L.jpg","0","0","1","",""
"","feedback","","html-keyboard-response","417","1627106","0.0-1.0-564.0-0.0","0","0","82750","","null","","","null","62","","","","","","","","","","","","","","","",""
"","ITI","","html-keyboard-response","418","1628125","0.0-1.0-567.0","0","0","82750","","null","","","null","62","","","","","","","","","","","","","","","NaN",""
"","S1","","html-keyboard-response","419","1628388","0.0-1.0-569.0","0","0","82750","","null","","","null","63","","","","","","","","","","","","","","","",""
"","ISI","","html-keyboard-response","420","1629400","0.0-1.0-570.0","0","0","82750","","null","","","null","63","NaN","","","","","","","","","","","","","","",""
"","S2","","html-keyboard-response","421","1629669","0.0-1.0-571.0","0","0","82750","","null","","","null","63","","NaN","","","","","","","","","","","","","",""
"","response","","html-keyboard-response","422","1630422","0.0-1.0-572.0-0.0","0","0","82750","","743","","","75","63","","","2","63","training","adjacent","AB","1","2","N.jpg","P.jpg","0","1","0","",""
"","feedback","","html-keyboard-response","423","1631436","0.0-1.0-573.0-0.0","0","0","82750","","null","","","null","63","","","","","","","","","","","","","","","",""
"","time_out","","html-keyboard-response","424","1633452","0.0-1.0-575.0-0.0","0","0","82750","","null","","","null","63","","","","","","","","","","","","","","","",""
"","ITI","","html-keyboard-response","425","1634465","0.0-1.0-576.0","0","0","82750","","null","","","null","63","","","","","","","","","","","","","","","NaN",""
"","S1","","html-keyboard-response","426","1634731","0.0-1.0-578.0","0","0","82750","","null","","","null","64","","","","","","","","","","","","","","","",""
"","ISI","","html-keyboard-response","427","1635744","0.0-1.0-579.0","0","0","82750","","null","","","null","64","NaN","","","","","","","","","","","","","","",""
"","S2","","html-keyboard-response","428","1636010","0.0-1.0-580.0","0","0","82750","","null","","","null","64","","NaN","","","","","","","","","","","","","",""
"","response","","html-keyboard-response","429","1636811","0.0-1.0-581.0-0.0","0","0","82750","","787","","","75","64","","","2","64","training","adjacent","ED","5","4","R.jpg","L.jpg","0","0","1","",""
"","feedback","","html-keyboard-response","430","1637827","0.0-1.0-582.0-0.0","0","0","82750","","null","","","null","64","","","","","","","","","","","","","","","",""
"","ITI","","html-keyboard-response","431","1638846","0.0-1.0-585.0","0","0","82750","","null","","","null","64","","","","","","","","","","","","","","","NaN",""
"","S1","","html-keyboard-response","432","1639113","0.0-1.0-587.0","0","0","82750","","null","","","null","65","","","","","","","","","","","","","","","",""
"","ISI","","html-keyboard-response","433","1640122","0.0-1.0-588.0","0","0","82750","","null","","","null","65","NaN","","","","","","","","","","","","","","",""
"","S2","","html-keyboard-response","434","1640381","0.0-1.0-589.0","0","0","82750","","null","","","null","65","","NaN","","","","","","","","","","","","","",""
"","response","","html-keyboard-response","435","1641300","0.0-1.0-590.0-0.0","0","0","82750","","905","","","68","65","","","2","65","training","adjacent","BA","2","1","P.jpg","N.jpg","1","0","0","",""
"","feedback","","html-keyboard-response","436","1642317","0.0-1.0-591.0-0.0","0","0","82750","","null","","","null","65","","","","","","","","","","","","","","","",""
"","time_out","","html-keyboard-response","437","1644333","0.0-1.0-593.0-0.0","0","0","82750","","null","","","null","65","","","","","","","","","","","","","","","",""
"","ITI","","html-keyboard-response","438","1645348","0.0-1.0-594.0","0","0","82750","","null","","","null","65","","","","","","","","","","","","","","","NaN",""
"","S1","","html-keyboard-response","439","1645612","0.0-1.0-596.0","0","0","82750","","null","","","null","66","","","","","","","","","","","","","","","",""
"","ISI","","html-keyboard-response","440","1646626","0.0-1.0-597.0","0","0","82750","","null","","","null","66","NaN","","","","","","","","","","","","","","",""
"","S2","","html-keyboard-response","441","1646895","0.0-1.0-598.0","0","0","82750","","null","","","null","66","","NaN","","","","","","","","","","","","","",""
"","response","","html-keyboard-response","442","1648663","0.0-1.0-599.0-0.0","0","0","82750","","null","","","null","66","","","2","66","training","adjacent","CD","3","4","Q.jpg","L.jpg","NaN","1","0","",""
"","too_slow_prompt","","html-keyboard-response","443","1649679","0.0-1.0-601.0-0.0","1","0","82750","","null","","","null","","","","","","","","","","","","","","","","",""
"","time_out","","html-keyboard-response","444","1651694","0.0-1.0-602.0-0.0","0","0","82750","","null","","","null","66","","","","","","","","","","","","","","","",""
"","ITI","","html-keyboard-response","445","1652708","0.0-1.0-603.0","0","0","82750","","null","","","null","66","","","","","","","","","","","","","","","NaN",""
"","S1","","html-keyboard-response","446","1652974","0.0-1.0-605.0","0","0","82750","","null","","","null","67","","","","","","","","","","","","","","","",""
"","ISI","","html-keyboard-response","447","1653987","0.0-1.0-606.0","0","0","82750","","588","","","75","67","k","","","","","","","","","","","","","","",""
"","S2","","html-keyboard-response","448","1654256","0.0-1.0-607.0","0","0","82750","","null","","","null","67","","NaN","","","","","","","","","","","","","",""
"","response","","html-keyboard-response","449","1655970","0.0-1.0-608.0-0.0","0","0","82750","","1698","","","75","67","","","2","67","training","adjacent","EF","5","6","R.jpg","M.jpg","0","1","0","",""
"","feedback","","html-keyboard-response","450","1656987","0.0-1.0-609.0-0.0","0","0","82750","","null","","","null","67","","","","","","","","","","","","","","","",""
"","time_out","","html-keyboard-response","451","1659003","0.0-1.0-611.0-0.0","0","0","82750","","null","","","null","67","","","","","","","","","","","","","","","",""
"","ITI","","html-keyboard-response","452","1660018","0.0-1.0-612.0","0","0","82750","","null","","","null","67","","","","","","","","","","","","","","","NaN",""
"","S1","","html-keyboard-response","453","1660283","0.0-1.0-614.0","0","0","82750","","null","","","null","68","","","","","","","","","","","","","","","",""
"","ISI","","html-keyboard-response","454","1661295","0.0-1.0-615.0","0","0","82750","","null","","","null","68","NaN","","","","","","","","","","","","","","",""
"","S2","","html-keyboard-response","455","1661559","0.0-1.0-616.0","0","0","82750","","null","","","null","68","","NaN","","","","","","","","","","","","","",""
"","response","","html-keyboard-response","456","1662429","0.0-1.0-617.0-0.0","0","0","82750","","855","","","75","68","","","2","68","training","adjacent","AB","1","2","N.jpg","P.jpg","0","1","0","",""
"","feedback","","html-keyboard-response","457","1663443","0.0-1.0-618.0-0.0","0","0","82750","","null","","","null","68","","","","","","","","","","","","","","","",""
"","time_out","","html-keyboard-response","458","1665461","0.0-1.0-620.0-0.0","0","0","82750","","null","","","null","68","","","","","","","","","","","","","","","",""
"","ITI","","html-keyboard-response","459","1666474","0.0-1.0-621.0","0","0","82750","","null","","","null","68","","","","","","","","","","","","","","","NaN",""
"","S1","","html-keyboard-response","460","1666740","0.0-1.0-623.0","0","0","82750","","null","","","null","69","","","","","","","","","","","","","","","",""
"","ISI","","html-keyboard-response","461","1667752","0.0-1.0-624.0","0","0","82750","","null","","","null","69","NaN","","","","","","","","","","","","","","",""
"","S2","","html-keyboard-response","462","1668020","0.0-1.0-625.0","0","0","82750","","null","","","null","69","","NaN","","","","","","","","","","","","","",""
"","response","","html-keyboard-response","463","1668768","0.0-1.0-626.0-0.0","0","0","82750","","735","","","68","69","","","2","69","training","adjacent","FG","6","7","M.jpg","O.jpg","1","1","1","",""
"","feedback","","html-keyboard-response","464","1669787","0.0-1.0-627.0-0.0","0","0","82750","","null","","","null","69","","","","","","","","","","","","","","","",""
"","ITI","","html-keyboard-response","465","1670803","0.0-1.0-630.0","0","0","82750","","null","","","null","69","","","","","","","","","","","","","","","NaN",""
"","S1","","html-keyboard-response","466","1671067","0.0-1.0-632.0","0","0","82750","","null","","","null","70","","","","","","","","","","","","","","","",""
"","ISI","","html-keyboard-response","467","1672080","0.0-1.0-633.0","0","0","82750","","null","","","null","70","NaN","","","","","","","","","","","","","","",""
"","S2","","html-keyboard-response","468","1672346","0.0-1.0-634.0","0","0","82750","","null","","","null","70","","NaN","","","","","","","","","","","","","",""
"","response","","html-keyboard-response","469","1672847","0.0-1.0-635.0-0.0","0","0","82750","","486","","","68","70","","","2","70","training","adjacent","FG","6","7","M.jpg","O.jpg","1","1","1","",""
"","feedback","","html-keyboard-response","470","1673863","0.0-1.0-636.0-0.0","0","0","82750","","null","","","null","70","","","","","","","","","","","","","","","",""
"","ITI","","html-keyboard-response","471","1674879","0.0-1.0-639.0","0","0","82750","","null","","","null","70","","","","","","","","","","","","","","","NaN",""
"","S1","","html-keyboard-response","472","1675143","0.0-1.0-641.0","0","0","82750","","null","","","null","71","","","","","","","","","","","","","","","",""
"","ISI","","html-keyboard-response","473","1676156","0.0-1.0-642.0","0","0","82750","","null","","","null","71","NaN","","","","","","","","","","","","","","",""
"","S2","","html-keyboard-response","474","1676422","0.0-1.0-643.0","0","0","82750","","null","","","null","71","","NaN","","","","","","","","","","","","","",""
"","response","","html-keyboard-response","475","1676990","0.0-1.0-644.0-0.0","0","0","82750","","553","","","68","71","","","2","71","training","adjacent","GF","7","6","O.jpg","M.jpg","1","0","0","",""
"","feedback","","html-keyboard-response","476","1678003","0.0-1.0-645.0-0.0","0","0","82750","","null","","","null","71","","","","","","","","","","","","","","","",""
"","time_out","","html-keyboard-response","477","1680016","0.0-1.0-647.0-0.0","0","0","82750","","null","","","null","71","","","","","","","","","","","","","","","",""
"","ITI","","html-keyboard-response","478","1681031","0.0-1.0-648.0","0","0","82750","","null","","","null","71","","","","","","","","","","","","","","","NaN",""
"","S1","","html-keyboard-response","479","1681297","0.0-1.0-650.0","0","0","82750","","null","","","null","72","","","","","","","","","","","","","","","",""
"","ISI","","html-keyboard-response","480","1682310","0.0-1.0-651.0","0","0","82750","","null","","","null","72","NaN","","","","","","","","","","","","","","",""
"","S2","","html-keyboard-response","481","1682576","0.0-1.0-652.0","0","0","82750","","null","","","null","72","","NaN","","","","","","","","","","","","","",""
"","response","","html-keyboard-response","482","1683230","0.0-1.0-653.0-0.0","0","0","82750","","641","","","75","72","","","2","72","training","adjacent","EF","5","6","R.jpg","M.jpg","0","1","0","",""
"","feedback","","html-keyboard-response","483","1684250","0.0-1.0-654.0-0.0","0","0","82750","","null","","","null","72","","","","","","","","","","","","","","","",""
"","time_out","","html-keyboard-response","484","1686265","0.0-1.0-656.0-0.0","0","0","82750","","null","","","null","72","","","","","","","","","","","","","","","",""
"","ITI","","html-keyboard-response","485","1687279","0.0-1.0-657.0","0","0","82750","","null","","","null","72","","","","","","","","","","","","","","","NaN",""
"","S1","","html-keyboard-response","486","1687544","0.0-1.0-659.0","0","0","82750","","null","","","null","73","","","","","","","","","","","","","","","",""
"","ISI","","html-keyboard-response","487","1688556","0.0-1.0-660.0","0","0","82750","","null","","","null","73","NaN","","","","","","","","","","","","","","",""
"","S2","","html-keyboard-response","488","1688823","0.0-1.0-661.0","0","0","82750","","null","","","null","73","","NaN","","","","","","","","","","","","","",""
"","response","","html-keyboard-response","489","1689293","0.0-1.0-662.0-0.0","0","0","82750","","455","","","68","73","","","2","73","training","adjacent","EF","5","6","R.jpg","M.jpg","1","1","1","",""
"","feedback","","html-keyboard-response","490","1690312","0.0-1.0-663.0-0.0","0","0","82750","","null","","","null","73","","","","","","","","","","","","","","","",""
"","ITI","","html-keyboard-response","491","1691331","0.0-1.0-666.0","0","0","82750","","null","","","null","73","","","","","","","","","","","","","","","NaN",""
"","S1","","html-keyboard-response","492","1691597","0.0-1.0-668.0","0","0","82750","","null","","","null","74","","","","","","","","","","","","","","","",""
"","ISI","","html-keyboard-response","493","1692610","0.0-1.0-669.0","0","0","82750","","null","","","null","74","NaN","","","","","","","","","","","","","","",""
"","S2","","html-keyboard-response","494","1692876","0.0-1.0-670.0","0","0","82750","","null","","","null","74","","NaN","","","","","","","","","","","","","",""
"","response","","html-keyboard-response","495","1693531","0.0-1.0-671.0-0.0","0","0","82750","","640","","","68","74","","","2","74","training","adjacent","DE","4","5","L.jpg","R.jpg","1","1","1","",""
"","feedback","","html-keyboard-response","496","1694547","0.0-1.0-672.0-0.0","0","0","82750","","null","","","null","74","","","","","","","","","","","","","","","",""
"","ITI","","html-keyboard-response","497","1695565","0.0-1.0-675.0","0","0","82750","","null","","","null","74","","","","","","","","","","","","","","","NaN",""
"","S1","","html-keyboard-response","498","1695831","0.0-1.0-677.0","0","0","82750","","null","","","null","75","","","","","","","","","","","","","","","",""
"","ISI","","html-keyboard-response","499","1696841","0.0-1.0-678.0","0","0","82750","","null","","","null","75","NaN","","","","","","","","","","","","","","",""
"","S2","","html-keyboard-response","500","1697107","0.0-1.0-679.0","0","0","82750","","null","","","null","75","","NaN","","","","","","","","","","","","","",""
"","response","","html-keyboard-response","501","1697754","0.0-1.0-680.0-0.0","0","0","82750","","631","","","68","75","","","2","75","training","adjacent","BC","2","3","P.jpg","Q.jpg","1","1","1","",""
"","feedback","","html-keyboard-response","502","1698772","0.0-1.0-681.0-0.0","0","0","82750","","null","","","null","75","","","","","","","","","","","","","","","",""
"","ITI","","html-keyboard-response","503","1699789","0.0-1.0-684.0","0","0","82750","","null","","","null","75","","","","","","","","","","","","","","","NaN",""
"","S1","","html-keyboard-response","504","1700053","0.0-1.0-686.0","0","0","82750","","null","","","null","76","","","","","","","","","","","","","","","",""
"","ISI","","html-keyboard-response","505","1701067","0.0-1.0-687.0","0","0","82750","","null","","","null","76","NaN","","","","","","","","","","","","","","",""
"","S2","","html-keyboard-response","506","1701333","0.0-1.0-688.0","0","0","82750","","null","","","null","76","","NaN","","","","","","","","","","","","","",""
"","response","","html-keyboard-response","507","1702011","0.0-1.0-689.0-0.0","0","0","82750","","664","","","68","76","","","2","76","training","adjacent","FE","6","5","M.jpg","R.jpg","1","0","0","",""
"","feedback","","html-keyboard-response","508","1703029","0.0-1.0-690.0-0.0","0","0","82750","","null","","","null","76","","","","","","","","","","","","","","","",""
"","time_out","","html-keyboard-response","509","1705045","0.0-1.0-692.0-0.0","0","0","82750","","null","","","null","76","","","","","","","","","","","","","","","",""
"","ITI","","html-keyboard-response","510","1706057","0.0-1.0-693.0","0","0","82750","","null","","","null","76","","","","","","","","","","","","","","","NaN",""
"","S1","","html-keyboard-response","511","1706322","0.0-1.0-695.0","0","0","82750","","null","","","null","77","","","","","","","","","","","","","","","",""
"","ISI","","html-keyboard-response","512","1707334","0.0-1.0-696.0","0","0","82750","","null","","","null","77","NaN","","","","","","","","","","","","","","",""
"","S2","","html-keyboard-response","513","1707602","0.0-1.0-697.0","0","0","82750","","null","","","null","77","","NaN","","","","","","","","","","","","","",""
"","response","","html-keyboard-response","514","1708494","0.0-1.0-698.0-0.0","0","0","82750","","877","","","68","77","","","2","77","training","adjacent","DE","4","5","L.jpg","R.jpg","1","1","1","",""
"","feedback","","html-keyboard-response","515","1709513","0.0-1.0-699.0-0.0","0","0","82750","","null","","","null","77","","","","","","","","","","","","","","","",""
"","ITI","","html-keyboard-response","516","1710530","0.0-1.0-702.0","0","0","82750","","null","","","null","77","","","","","","","","","","","","","","","NaN",""
"","S1","","html-keyboard-response","517","1710796","0.0-1.0-704.0","0","0","82750","","null","","","null","78","","","","","","","","","","","","","","","",""
"","ISI","","html-keyboard-response","518","1711811","0.0-1.0-705.0","0","0","82750","","null","","","null","78","NaN","","","","","","","","","","","","","","",""
"","S2","","html-keyboard-response","519","1712076","0.0-1.0-706.0","0","0","82750","","null","","","null","78","","NaN","","","","","","","","","","","","","",""
"","response","","html-keyboard-response","520","1712668","0.0-1.0-707.0-0.0","0","0","82750","","577","","","75","78","","","2","78","training","adjacent","CD","3","4","Q.jpg","L.jpg","0","1","0","",""
"","feedback","","html-keyboard-response","521","1713686","0.0-1.0-708.0-0.0","0","0","82750","","null","","","null","78","","","","","","","","","","","","","","","",""
"","time_out","","html-keyboard-response","522","1715709","0.0-1.0-710.0-0.0","0","0","82750","","null","","","null","78","","","","","","","","","","","","","","","",""
"","ITI","","html-keyboard-response","523","1716722","0.0-1.0-711.0","0","0","82750","","null","","","null","78","","","","","","","","","","","","","","","NaN",""
"","S1","","html-keyboard-response","524","1716987","0.0-1.0-713.0","0","0","82750","","null","","","null","79","","","","","","","","","","","","","","","",""
"","ISI","","html-keyboard-response","525","1718000","0.0-1.0-714.0","0","0","82750","","null","","","null","79","NaN","","","","","","","","","","","","","","",""
"","S2","","html-keyboard-response","526","1718266","0.0-1.0-715.0","0","0","82750","","null","","","null","79","","NaN","","","","","","","","","","","","","",""
"","response","","html-keyboard-response","527","1718845","0.0-1.0-716.0-0.0","0","0","82750","","565","","","68","79","","","2","79","training","adjacent","BA","2","1","P.jpg","N.jpg","1","0","0","",""
"","feedback","","html-keyboard-response","528","1719864","0.0-1.0-717.0-0.0","0","0","82750","","null","","","null","79","","","","","","","","","","","","","","","",""
"","time_out","","html-keyboard-response","529","1721879","0.0-1.0-719.0-0.0","0","0","82750","","null","","","null","79","","","","","","","","","","","","","","","",""
"","ITI","","html-keyboard-response","530","1722894","0.0-1.0-720.0","0","0","82750","","null","","","null","79","","","","","","","","","","","","","","","NaN",""
"","S1","","html-keyboard-response","531","1723161","0.0-1.0-722.0","0","0","82750","","null","","","null","80","","","","","","","","","","","","","","","",""
"","ISI","","html-keyboard-response","532","1724173","0.0-1.0-723.0","0","0","82750","","null","","","null","80","NaN","","","","","","","","","","","","","","",""
"","S2","","html-keyboard-response","533","1724440","0.0-1.0-724.0","0","0","82750","","null","","","null","80","","NaN","","","","","","","","","","","","","",""
"","response","","html-keyboard-response","534","1725058","0.0-1.0-725.0-0.0","0","0","82750","","605","","","68","80","","","2","80","training","adjacent","CD","3","4","Q.jpg","L.jpg","1","1","1","",""
"","feedback","","html-keyboard-response","535","1726076","0.0-1.0-726.0-0.0","0","0","82750","","null","","","null","80","","","","","","","","","","","","","","","",""
"","ITI","","html-keyboard-response","536","1727094","0.0-1.0-729.0","0","0","82750","","null","","","null","80","","","","","","","","","","","","","","","NaN",""
"","S1","","html-keyboard-response","537","1727358","0.0-1.0-731.0","0","0","82750","","null","","","null","81","","","","","","","","","","","","","","","",""
"","ISI","","html-keyboard-response","538","1728371","0.0-1.0-732.0","0","0","82750","","null","","","null","81","NaN","","","","","","","","","","","","","","",""
"","S2","","html-keyboard-response","539","1728637","0.0-1.0-733.0","0","0","82750","","null","","","null","81","","NaN","","","","","","","","","","","","","",""
"","response","","html-keyboard-response","540","1729087","0.0-1.0-734.0-0.0","0","0","82750","","438","","","68","81","","","2","81","training","adjacent","DE","4","5","L.jpg","R.jpg","1","1","1","",""
"","feedback","","html-keyboard-response","541","1730107","0.0-1.0-735.0-0.0","0","0","82750","","null","","","null","81","","","","","","","","","","","","","","","",""
"","ITI","","html-keyboard-response","542","1731132","0.0-1.0-738.0","0","0","82750","","null","","","null","81","","","","","","","","","","","","","","","NaN",""
"","S1","","html-keyboard-response","543","1731397","0.0-1.0-740.0","0","0","82750","","null","","","null","82","","","","","","","","","","","","","","","",""
"","ISI","","html-keyboard-response","544","1732407","0.0-1.0-741.0","0","0","82750","","null","","","null","82","NaN","","","","","","","","","","","","","","",""
"","S2","","html-keyboard-response","545","1732667","0.0-1.0-742.0","0","0","82750","","null","","","null","82","","NaN","","","","","","","","","","","","","",""
"","response","","html-keyboard-response","546","1733185","0.0-1.0-743.0-0.0","0","0","82750","","508","","","75","82","","","2","82","training","adjacent","ED","5","4","R.jpg","L.jpg","0","0","1","",""
"","feedback","","html-keyboard-response","547","1734200","0.0-1.0-744.0-0.0","0","0","82750","","null","","","null","82","","","","","","","","","","","","","","","",""
"","ITI","","html-keyboard-response","548","1735219","0.0-1.0-747.0","0","0","82750","","null","","","null","82","","","","","","","","","","","","","","","NaN",""
"","S1","","html-keyboard-response","549","1735485","0.0-1.0-749.0","0","0","82750","","null","","","null","83","","","","","","","","","","","","","","","",""
"","ISI","","html-keyboard-response","550","1736498","0.0-1.0-750.0","0","0","82750","","null","","","null","83","NaN","","","","","","","","","","","","","","",""
"","S2","","html-keyboard-response","551","1736764","0.0-1.0-751.0","0","0","82750","","null","","","null","83","","NaN","","","","","","","","","","","","","",""
"","response","","html-keyboard-response","552","1737610","0.0-1.0-752.0-0.0","0","0","82750","","832","","","68","83","","","2","83","training","adjacent","FE","6","5","M.jpg","R.jpg","1","0","0","",""
"","feedback","","html-keyboard-response","553","1738630","0.0-1.0-753.0-0.0","0","0","82750","","null","","","null","83","","","","","","","","","","","","","","","",""
"","time_out","","html-keyboard-response","554","1740646","0.0-1.0-755.0-0.0","0","0","82750","","null","","","null","83","","","","","","","","","","","","","","","",""
"","ITI","","html-keyboard-response","555","1741662","0.0-1.0-756.0","0","0","82750","","null","","","null","83","","","","","","","","","","","","","","","NaN",""
"","S1","","html-keyboard-response","556","1741925","0.0-1.0-758.0","0","0","82750","","null","","","null","84","","","","","","","","","","","","","","","",""
"","ISI","","html-keyboard-response","557","1742945","0.0-1.0-759.0","0","0","82750","","null","","","null","84","NaN","","","","","","","","","","","","","","",""
"","S2","","html-keyboard-response","558","1743211","0.0-1.0-760.0","0","0","82750","","null","","","null","84","","NaN","","","","","","","","","","","","","",""
"","response","","html-keyboard-response","559","1743934","0.0-1.0-761.0-0.0","0","0","82750","","709","","","68","84","","","2","84","training","adjacent","CB","3","2","Q.jpg","P.jpg","1","0","0","",""
"","feedback","","html-keyboard-response","560","1744952","0.0-1.0-762.0-0.0","0","0","82750","","null","","","null","84","","","","","","","","","","","","","","","",""
"","time_out","","html-keyboard-response","561","1746969","0.0-1.0-764.0-0.0","0","0","82750","","null","","","null","84","","","","","","","","","","","","","","","",""
"","ITI","","html-keyboard-response","562","1747982","0.0-1.0-765.0","0","0","82750","","null","","","null","84","","","","","","","","","","","","","","","NaN",""
"","S1","","html-keyboard-response","563","1748248","0.0-1.0-767.0","0","0","82750","","null","","","null","85","","","","","","","","","","","","","","","",""
"","ISI","","html-keyboard-response","564","1749262","0.0-1.0-768.0","0","0","82750","","null","","","null","85","NaN","","","","","","","","","","","","","","",""
"","S2","","html-keyboard-response","565","1749528","0.0-1.0-769.0","0","0","82750","","null","","","null","85","","NaN","","","","","","","","","","","","","",""
"","response","","html-keyboard-response","566","1750149","0.0-1.0-770.0-0.0","0","0","82750","","608","","","75","85","","","2","85","training","adjacent","BC","2","3","P.jpg","Q.jpg","0","1","0","",""
"","feedback","","html-keyboard-response","567","1751166","0.0-1.0-771.0-0.0","0","0","82750","","null","","","null","85","","","","","","","","","","","","","","","",""
"","time_out","","html-keyboard-response","568","1753183","0.0-1.0-773.0-0.0","0","0","82750","","null","","","null","85","","","","","","","","","","","","","","","",""
"","ITI","","html-keyboard-response","569","1754195","0.0-1.0-774.0","0","0","82750","","null","","","null","85","","","","","","","","","","","","","","","NaN",""
"","S1","","html-keyboard-response","570","1754460","0.0-1.0-776.0","0","0","82750","","null","","","null","86","","","","","","","","","","","","","","","",""
"","ISI","","html-keyboard-response","571","1755473","0.0-1.0-777.0","0","0","82750","","null","","","null","86","NaN","","","","","","","","","","","","","","",""
"","S2","","html-keyboard-response","572","1755738","0.0-1.0-778.0","0","0","82750","","null","","","null","86","","NaN","","","","","","","","","","","","","",""
"","response","","html-keyboard-response","573","1757500","0.0-1.0-779.0-0.0","0","0","82750","","null","","","null","86","","","2","86","training","adjacent","GF","7","6","O.jpg","M.jpg","NaN","0","0","",""
"","too_slow_prompt","","html-keyboard-response","574","1758513","0.0-1.0-781.0-0.0","1","0","82750","","null","","","null","","","","","","","","","","","","","","","","",""
"","time_out","","html-keyboard-response","575","1760530","0.0-1.0-782.0-0.0","0","0","82750","","null","","","null","86","","","","","","","","","","","","","","","",""
"","ITI","","html-keyboard-response","576","1761544","0.0-1.0-783.0","0","0","82750","","null","","","null","86","","","","","","","","","","","","","","","NaN",""
"","S1","","html-keyboard-response","577","1761809","0.0-1.0-785.0","0","0","82750","","null","","","null","87","","","","","","","","","","","","","","","",""
"","ISI","","html-keyboard-response","578","1762822","0.0-1.0-786.0","0","0","82750","","null","","","null","87","NaN","","","","","","","","","","","","","","",""
"","S2","","html-keyboard-response","579","1763088","0.0-1.0-787.0","0","0","82750","","null","","","null","87","","NaN","","","","","","","","","","","","","",""
